time,hip_angle_l,hip_angle_l_velocity,hip_angle_l_velocity_filt,hip_angle_l_torque_estimated,hip_angle_l_torque_desired,hip_angle_l_torque_measured,hip_angle_l_torque_interaction,knee_angle_l,knee_angle_l_velocity,knee_angle_l_velocity_filt,knee_angle_l_torque_estimated,knee_angle_l_torque_desired,knee_angle_l_torque_measured,knee_angle_l_torque_interaction,thigh_imu_l_accel_x,thigh_imu_l_accel_y,thigh_imu_l_accel_z,thigh_imu_l_gyro_x,thigh_imu_l_gyro_y,thigh_imu_l_gyro_z,shank_imu_l_accel_x,shank_imu_l_accel_y,shank_imu_l_accel_z,shank_imu_l_gyro_x,shank_imu_l_gyro_y,shank_imu_l_gyro_z,foot_imu_l_accel_x,foot_imu_l_accel_y,foot_imu_l_accel_z,foot_imu_l_gyro_x,foot_imu_l_gyro_y,foot_imu_l_gyro_z,insole_l_force_y,insole_l_cop_x,insole_l_cop_z,hip_angle_r,hip_angle_r_velocity,hip_angle_r_velocity_filt,hip_angle_r_torque_estimated,hip_angle_r_torque_desired,hip_angle_r_torque_measured,hip_angle_r_torque_interaction,knee_angle_r,knee_angle_r_velocity,knee_angle_r_velocity_filt,knee_angle_r_torque_estimated,knee_angle_r_torque_desired,knee_angle_r_torque_measured,knee_angle_r_torque_interaction,thigh_imu_r_accel_x,thigh_imu_r_accel_y,thigh_imu_r_accel_z,thigh_imu_r_gyro_x,thigh_imu_r_gyro_y,thigh_imu_r_gyro_z,shank_imu_r_accel_x,shank_imu_r_accel_y,shank_imu_r_accel_z,shank_imu_r_gyro_x,shank_imu_r_gyro_y,shank_imu_r_gyro_z,foot_imu_r_accel_x,foot_imu_r_accel_y,foot_imu_r_accel_z,foot_imu_r_gyro_x,foot_imu_r_gyro_y,foot_imu_r_gyro_z,insole_r_force_y,insole_r_cop_x,insole_r_cop_z
63.525,-1.27054224028191,-0.358501575507611,0.196596654193602,0.109273168045228,1.94956476419857,2.35608133057917,2.35712655554762,-10.6187973956014,-25.8300590854509,-28.163203554969,-0.233453172054401,-2.84662854865298,-2.96266871769566,-2.95411370817383,1.72500170150707,9.48504253767624,2.26499829849294,6.38257320681565,32.2716091395236,6.45665148214167,-1.8448996110841,9.32006125425376,-1.30005104521146,4.11121614241044,9.28316078191304,-53.1850885563898,-1.7555681169091,8.84258688802446,1.72434163224251,-0.348939865737733,1.64507150381992,-19.4590948361242,1138.49880894507,0.104463767286211,-0.184753171299839,-46.6051108932495,-0.358989902220279,-0.631130957451425,-0.0598503498228777,-0.153726153778263,-0.0923047025957383,-0.0911649311808343,-34.0836113098587,16.1435585021973,15.2091101539192,-0.0336020528871207,-0.805598037524061,-1.02419081085013,-1.03230676600612,6.33501531356345,5.21998298492951,0.525015313563448,22.999537862283,25.7721237928903,10.6122811597856,-1.44515824015559,6.66495746232379,0.919945551774416,-3.36409039893886,26.487437956511,43.0502859852236,-4.76246451618721,6.5913458609268,-0.729174690423773,-21.1618654834801,68.1293049822053,-43.3329418289007,0,0,0
63.53,-1.27611332236417,-0.724240843055966,0.116351094186807,0.10825801316952,1.90921250773405,2.30006515758097,2.30081731829848,-10.8861937792995,-25.2814504233969,-28.3752266988427,-0.233774524841522,-2.86116889411559,-2.91561513237717,-2.91135035310957,1.72245296548374,9.42132413709287,2.26754703451627,6.59654116926846,32.2653159641573,6.66432626922823,-1.99527503646086,9.2283067574137,-1.2235889645114,3.95388675825397,10.4662777507698,-53.3298315898137,-1.7274884473527,8.58132379901137,1.8329976946753,-1.93680241313674,1.53802460177784,-20.81502280889,1140.2829241614,0.110903300959517,-0.18273433007347,-46.6051108932495,0.0067493653280763,-0.347414429745035,-0.0627623038214924,-0.172436900046316,-0.0967859964355949,-0.0952750563520064,-33.9053473781485,16.1435585021973,15.1921511754313,-0.0354517596579086,-0.765094824595719,-1.0017843264592,-1.00908281188125,6.31207668935344,5.24547034516285,0.502076689353439,23.6917871525715,24.9949166351573,8.85963182028246,-1.20812578998544,6.72867586290717,1.00150510452113,-3.52456637077847,26.8115364878734,41.6972532814779,-4.81068828396271,6.21410169057841,-0.892158776477131,-14.6230830406065,65.4263705461305,-38.9261779834764,0,0,0
63.535,-1.28191461752489,-1.06902186640393,0.0343030416378467,0.107191351832086,1.87040872321333,2.24412046259125,2.24414079272298,-11.1525543754508,-24.7823174436827,-28.5627088078998,-0.233925015575086,-2.87509388632094,-2.86953395236632,-2.87390072636593,1.71678197252036,9.35839098626018,2.26718422595527,6.8338796663718,32.2528033399327,6.86159033267466,-2.14362028091462,9.13929605648881,-1.14849154961888,3.79539245500228,11.6245543341739,-53.4583345528267,-1.69769410237356,8.32701173207066,1.92319211102455,-3.48858202208149,1.43077640015453,-22.1200008392334,1142.01005633587,0.117317270290499,-0.180781034868059,-46.6051108932495,0.358745723962784,-0.0713960363472009,-0.0657026730601102,-0.191364511392475,-0.101364124627662,-0.0997694569729464,-33.7285066199924,16.1435585021973,15.1826085003194,-0.037253691359963,-0.724103304279703,-0.979335707968042,-0.983850979349547,6.29231295725103,5.26879323969511,0.483519717555908,24.3770199924533,24.1991149467719,7.11510868911859,-0.977988732825223,6.79452535114331,1.07899436641259,-3.69130342285828,27.1809393025882,40.3627821317625,-4.8630249490672,5.83971272904477,-1.04786253533313,-8.0614454749589,62.6722449964622,-34.72653401283,0,0,0
63.54,-1.29359752138967,-0.877243924327513,-0.0937496483331098,0.104808482312556,1.87126477776271,2.190075115308,2.18921361214982,-11.3920814346496,-25.5494288614911,-28.1221818069275,-0.229704581951643,-2.87326019692482,-2.84838577299462,-2.86104648733316,1.63124933085219,9.31562466542609,2.19234316449564,7.66874688635802,32.0812100773269,6.79229305354537,-2.23984450279129,9.1205857911239,-1.10839812383694,3.60729984022278,12.145933862861,-53.1712458250054,-1.62407529641566,8.25083247952015,1.54101441416679,-4.11537591945314,1.3185147875725,-22.1200008392334,1142.27734584109,0.12306916219377,-0.180506914106504,-46.6051108932495,0.358745723962784,0.00735054064637255,-0.0693661911196947,-0.215815646515641,-0.108413519743026,-0.107457624238934,-33.5882954595583,16.1435585021973,15.3627905320702,-0.0378312299771635,-0.670672599571918,-0.955837730888369,-0.956572051545797,6.35378954345001,5.23671849906955,0.577071044380442,24.8819001689667,22.9286648294015,5.58066893696999,-0.924530831782616,6.91480562848915,1.0522654158913,-4.01799059589637,28.7087793138674,39.5048158187332,-5.02050517580165,5.53883589484908,-1.01713467494545,-0.923479258638838,58.6121167597148,-35.830438935227,0,0,0
63.545,-1.30528098235254,-0.685456837339452,-0.221808444483551,0.102425499166135,1.87212087313296,2.13602719087787,2.13427541201085,-11.6316199156718,-26.3165768589293,-27.68163379947,-0.225483947077253,-2.8714264200894,-2.82723658517413,-2.84737140447096,1.54571261056871,9.27285630528436,2.11749853424762,8.50365391690262,31.9096086323138,6.72299246998238,-2.33607331311019,9.10187463356189,-1.06830278620407,3.41919825626609,12.6673382534778,-52.8841434073872,-1.5504529799525,8.17464959436974,1.15881849320447,-4.74219970542798,1.20624782180691,-22.1200008392334,1142.54464809197,0.12882132837542,-0.180232780273528,-46.6051108932495,0.358745723962784,0.086100872662453,-0.0730298838737649,-0.240267947588696,-0.115463251008079,-0.115269562464363,-33.4480776131692,16.1435585021973,15.5429811557828,-0.0384087961342342,-0.617239347026419,-0.932338633310051,-0.929574442510049,6.41526906115374,5.20464222896325,0.670626832190471,25.3868044206399,21.6581541307467,4.04615601521803,-0.871070381605438,7.03509164138776,1.02553519080273,-4.34469334697905,30.2366921800419,38.6468085936676,-5.17799291196468,5.23794471337218,-0.986405349302876,6.21482733087356,54.5517949161657,-36.9343964972179,0,0,0
63.55,-1.31696388621732,-0.493678895263034,-0.349861134454507,0.100042629646605,1.87297692768234,2.08198184359462,2.0793324854275,-11.8711469748706,-27.0836882767377,-27.2411067984978,-0.22126351345381,-2.86959273069328,-2.80608840580242,-2.83280462895372,1.46017996890054,9.23008998445027,2.04265747278799,9.33852113688884,31.7380153697079,6.6536951908531,-2.43229753498687,9.08316436819699,-1.02820936042213,3.23110564148659,13.1887177821648,-52.5970546795659,-1.47683417399461,8.09847034181923,0.776640796346709,-5.36899360279963,1.09398620922489,-22.1200008392334,1142.81193759719,0.13457322027869,-0.179958659511973,-46.6051108932495,0.358745723962784,0.164847449656026,-0.0766934019333495,-0.264719082711862,-0.122512646123443,-0.123193074174694,-33.3078664527351,16.1435585021973,15.7231631875336,-0.0389863347514347,-0.563808642318635,-0.908840656230377,-0.90281343308247,6.47674564735271,5.17256748833769,0.764178159015005,25.8916845971534,20.3877040133764,2.51171626306944,-0.81761248056283,7.1553719187336,0.998806240281436,-4.67138052001714,31.764532191321,37.7888422806383,-5.33547313869913,4.93706787917649,-0.955677488915199,13.3527935471936,50.4916666794183,-38.038301419615,0,0,0
63.555,-1.34116872366088,-0.591954599818646,-0.495568955175237,0.097531455097664,1.88072805651212,2.02752576958585,2.02397449346735,-12.1213748699081,-27.5068163294704,-26.8798768442604,-0.217861680658373,-2.85757016027634,-2.79978105974483,-2.83213724904614,1.40162516828084,9.18781123789357,1.9607469709446,10.2820584812987,31.452760741938,6.55578194706056,-2.51137617796599,9.06512449515743,-0.97318472336588,3.08171119705277,13.8705573087585,-52.6739486309123,-1.47991823504405,8.1846052139585,0.598240338629032,-7.06991170055936,1.20555097863681,-22.7115619942725,1141.69986537532,0.142139680222315,-0.1798227427826,-46.6051108932495,0.417047943532172,0.243828847221167,-0.0803794330692346,-0.285801217701366,-0.133187411906242,-0.134836582772393,-33.1577093793619,16.2601628880589,15.8995491381882,-0.0392742700957493,-0.512763669819549,-0.884449742672205,-0.875329712896876,6.54925302905539,5.15487550484255,0.822686742736135,26.1496041214549,19.3343199032987,1.02580669521814,-0.765373485472274,7.24975100968514,0.976749663438305,-4.85408462395046,32.9598890084584,36.6635262308364,-5.44627475738525,4.7253737449646,-0.934057652950287,18.375,47.6349983215332,-38.814998626709,0,0,0
63.56,-1.3950883632787,-1.37860786273859,-0.68315481134589,0.094716174141386,1.90484223341628,1.97210366424989,1.967651184369,-12.3969591434085,-27.113489873639,-26.7069031477884,-0.216403205921487,-2.82136793457685,-2.82869694078968,-2.8657271673806,1.40710713772235,9.1466964670823,1.86207152099753,11.4833542539738,30.8977959342797,6.38996929111384,-2.54974996405651,9.04867858683291,-0.882732227581075,3.02418435723452,14.933111879519,-53.6146816585283,-1.66504310655389,8.65595140585417,0.903499453690773,-11.3198086721534,1.84831193617022,-24.706998536387,1137.31428982211,0.154011494030425,-0.180014851855316,-46.6051108932495,0.61371126130435,0.323354847671284,-0.0841183022957871,-0.298884208552675,-0.152464665936142,-0.155154089604566,-32.9839715132683,16.6534893438903,16.0668973596288,-0.0388748346459872,-0.467389040526486,-0.857943518381093,-0.84581980657494,6.64792847900246,5.17132141316706,0.798017880249375,25.8213627413155,18.7962747544104,-0.344685665157764,-0.716035760498755,7.28264282633417,0.965785724555292,-4.69503983151179,33.3659608189402,34.9038817187488,-5.44627475738525,4.7253737449646,-0.934057652950287,18.375,47.6349983215332,-38.814998626709,0,0,0
63.565,-1.44901057404904,-2.16529863713928,-0.870749612528998,0.0919007589387222,1.9289575602025,1.91667891611647,1.91133313605312,-12.672556558117,-26.7201446620756,-26.5339212030834,-0.214944661637381,-2.78516398257791,-2.85761420068538,-2.89835199159597,1.41258936857102,9.10557973571737,1.76339136572168,12.6847073103156,30.3428046631809,6.2241487284075,-2.58812557999712,9.03223189428694,-0.792275418578216,2.96665477425478,15.9957171180862,-54.555459544903,-1.85017680572437,9.12732007384501,1.20877312500234,-15.569908299652,2.49110354369444,-26.7025302306898,1132.92850514319,0.165883873944768,-0.180206970088734,-46.6051108932495,0.810383956946814,0.402884640310636,-0.087857349809938,-0.31196782326507,-0.171742839199938,-0.175515216719364,-32.8102253625022,17.0468345554537,16.2342535610523,-0.0384753801491863,-0.422012247548844,-0.831436030143374,-0.816303787771722,6.74660863427831,5.18776810571303,0.77334784143042,25.4931057090193,18.2582039488939,-1.71524337732235,-0.666695682860844,7.31553621142612,0.95482126285797,-4.53598745503838,33.7720519929149,33.1441532981918,-5.44627475738525,4.7253737449646,-0.934057652950287,18.375,47.6349983215332,-38.814998626709,0,0,0
63.57,-1.50293021366686,-2.95195190005923,-1.05833546869965,0.0890854779824442,1.95307173710666,1.86125681078051,1.85503480435902,-12.9481408316174,-26.3268182062442,-26.3609475066114,-0.213486186900495,-2.74896175687842,-2.88653008173023,-2.93003166470311,1.41807133801253,9.0644649649061,1.66471591577461,13.8860030829908,29.7878398555225,6.05833607246077,-2.62649936608764,9.01578598596243,-0.701822922793411,2.90912793443653,17.0582716888467,-55.4961925725191,-2.03530167723421,9.59866626574068,1.51403224006408,-19.8198052712461,3.13386450122784,-28.6979667728043,1128.54292958998,0.177755687752878,-0.180399079161449,-46.6051108932495,1.00704727471899,0.482410640760753,-0.0915962190364905,-0.325050814116378,-0.191020093229838,-0.19588399666012,-32.6364874964085,17.4401610112851,16.4016017824928,-0.0380759446994241,-0.376637618255781,-0.804929805852262,-0.786680773222295,6.84528408422538,5.20421401403754,0.74867897894366,25.1648643288799,17.7201588000056,-3.08573573769825,-0.617357957887325,7.34842802807514,0.943857323974957,-4.37694266259971,34.1781238033967,31.3845087861042,-5.44627475738525,4.7253737449646,-0.934057652950287,18.375,47.6349983215332,-38.814998626709,0,0,0
63.575,-1.54076037812332,-3.22871160507202,-1.32027881268439,0.0874596785329947,1.96048132105725,1.83568948377232,1.82861914718152,-13.2072958424264,-25.6931379204647,-26.218682028515,-0.212114138369113,-2.70994653034547,-2.90428920252795,-2.94965563479585,1.37685485406697,9.06035483502394,1.65243547588518,14.6878931346213,28.8234371515146,5.91051377139813,-2.67796772842107,9.00827419416267,-0.602693572344459,2.95067699911402,16.3241740303613,-55.8868179795617,-2.14465887818135,9.69629487342507,1.64788163285646,-22.0821211760797,3.4204033213621,-30.4449754348674,1127,0.185322452307559,-0.17957781161906,-46.6088831968109,0.704761912686547,0.502640699846823,-0.0933305333221048,-0.337445249689206,-0.212974122029746,-0.218899289777738,-32.4697449375593,17.2070655129978,16.5105186173197,-0.0375525712812689,-0.352202483220283,-0.744019879592157,-0.722436771549469,6.92487095177036,5.18238710660284,0.686500019043033,24.7745321567722,17.4733373362868,-4.3903222879089,-0.541322601531076,7.32893549492822,0.929645164976067,-4.01204710319551,34.6938469401621,29.900398555614,-5.42808804082641,4.74480044996285,-1.02540443835618,19.5287011100816,45.9376684385295,-42.0586510402935,0,0,0
63.58,-1.56985536692104,-3.22871160507202,-1.62255962921203,0.0864795772118982,1.9588241184553,1.82632740333094,1.81844865366799,-13.4575149804129,-24.9290547453906,-26.0930935770961,-0.210789097678892,-2.66940744733742,-2.91599180307967,-2.96238954294429,1.31029630946186,9.07632888572917,1.68704591907983,15.2729509588045,27.6368872946037,5.77246641962456,-2.73653924767358,9.00561185237847,-0.498862242760474,3.04599540867195,14.6150163417363,-55.9788495474108,-2.21288593122408,9.59108502554681,1.68869036209903,-23.2655320179104,3.51358525841919,-32.0570239742528,1127,0.190552140199273,-0.178206605030129,-46.6147026008115,0.131699658331278,0.490687024532198,-0.0939767689944687,-0.349465067395313,-0.236379327100387,-0.243292818637792,-32.3068112737674,16.6340032586426,16.5877144217457,-0.0369619703393984,-0.33913383514722,-0.664442187906058,-0.639197228113325,6.99409183815967,5.13978963805557,0.603967423732695,24.3505295763248,17.3845926101467,-5.65904318754212,-0.450802980868117,7.28101334281254,0.913671114270839,-3.53545505540582,35.2690442392186,28.5659408218029,-5.40003201368536,4.77476936496346,-1.16632200763286,21.3084764506379,43.3192555375091,-47.0625229518192,0,0,0
63.585,-1.59895174311033,-3.22871160507202,-1.92485485996963,0.08549942915477,1.95716683682982,1.81696487645971,1.80833032899647,-13.7077460500735,-24.164935135088,-25.9674991370046,-0.209463993804241,-2.62886643122732,-2.92769496166871,-2.97437440483554,1.24373459101933,9.09230369815538,1.72165801266995,15.8580366814105,26.4502808571837,5.63441248507708,-2.79511355990301,9.00294938364077,-0.395025961990108,3.14131836347855,12.9057771521008,-56.0708855037758,-2.2811162376669,9.48587016074766,1.7295010373017,-24.4489992905666,3.60677163884745,-33.6691493840087,1127,0.195782077468123,-0.17683533305535,-46.6205222823099,-0.441389922439249,0.478732779207783,-0.0946230354825147,-0.361485458265204,-0.259785648245848,-0.267569093681569,-32.1438698405002,16.060913677872,16.6649139072458,-0.0363713412347822,-0.326064563897004,-0.584860701565832,-0.555518566158759,7.06331602533991,5.09719013825236,0.521430892863951,23.9265067773576,17.2958436522233,-6.92782458600228,-0.360279043786261,7.23308890553391,0.89769630184463,-3.05884028137286,35.8442689664998,27.2314194545106,-5.3719746486955,4.80473970902873,-1.30724629654947,23.0883366596001,40.700717777736,-52.0666334724676,0,0,0
63.59,-1.62804811929963,-3.22871160507202,-2.22715009072724,0.0845192810976417,1.95550955520433,1.80760234958848,1.79827746378024,-13.9579771197341,-23.4008155247854,-25.8419046969131,-0.208138889929589,-2.58832541511721,-2.93939812025774,-2.98570958692822,1.17717287257679,9.10827851058159,1.75627010626007,16.4431224040165,25.2636744197637,5.49635855052959,-2.85368787213245,9.00028691490307,-0.291189681219743,3.23664131828514,11.1965379624653,-56.1629214601408,-2.34934654410971,9.38065529594852,1.77031171250436,-25.6324665632227,3.69995801927572,-35.2812747937646,1127,0.201012014736973,-0.175464061080572,-46.6263419638082,-1.01447950320978,0.466778533883369,-0.0952693019705608,-0.373505849135095,-0.283191969391309,-0.291680130790497,-31.9809284072331,15.4878240971015,16.7421133927458,-0.0357807121301659,-0.312995292646789,-0.505279215225607,-0.47130457867938,7.13254021252014,5.05459063844915,0.438894361995208,23.5024839783903,17.2070946942999,-8.19660598446244,-0.269755106704406,7.18516446825529,0.881721489418422,-2.5822255073399,36.4194936937809,25.8968980872183,-5.34391728370565,4.834710053094,-1.44817058546609,24.8681968685623,38.082180017963,-57.0707439931159,0,0,0
63.595,-1.63118362426758,-2.27049151605038,-2.2976145909873,0.0844601394173903,1.91899465894874,1.84377256755709,1.83383530283404,-14.1649495905477,-22.3602518195477,-25.3512543959611,-0.207983659285304,-2.55843990930586,-2.88586895910741,-2.93127559465478,1.28574456948444,9.21906699816803,1.72438628631248,16.706774776172,25.9409581875341,4.52518731765001,-2.99132556922272,8.92877257262497,-0.306710285265611,3.56842627325923,9.33058697710186,-55.2715047770443,-2.34230559956681,9.33573186800012,1.81948974287906,-26.7727650420512,3.99045797824485,-36.054870253051,1124.32897147344,0.204288097503562,-0.174794979931655,-46.6221037821906,-1.23594055870571,0.275967281689814,-0.0934032840507574,-0.406215974713101,-0.297455082519053,-0.306435915670319,-31.8514732545847,13.1902195596158,16.2422145802695,-0.0335141722604578,-0.323235467287708,-0.445826566092976,-0.406596364599252,7.16003271394922,5.06112928552736,0.430000000000007,23.5062536146895,17.1233356273485,-9.66884759661518,-0.3111947134258,7.42484428160167,0.795417429992145,-1.48663493817469,36.3193511491077,23.6289042684838,-5.33769519664142,5.39182764271484,-1.58170455028112,24.280949479028,40.0436636069407,-61.5753655871681,0,0,0
63.6,-1.63118362426758,-1.19648201859104,-2.34008128319732,0.0845122379311457,1.87826754934484,1.885444371414,1.87498443270939,-14.3667081518469,-21.2862423220884,-24.8164847590118,-0.207969722974297,-2.52983982745738,-2.82445787973933,-2.8685449336686,1.41547548238206,9.34131343532157,1.68446908234399,16.9316170516118,26.8434073204639,3.45333647034771,-3.13852025885656,8.84893816468797,-0.336648188241987,3.92878992019706,7.44560790081162,-54.2612545531502,-2.32617267339962,9.29808831412873,1.86968104890547,-27.9079103395653,4.30480589763627,-36.7272255812594,1121.3351811758,0.207328359892174,-0.174210676837643,-46.6166505394418,-1.41494215152914,0.0635426658718434,-0.0912337212226295,-0.441426849078767,-0.310614599526497,-0.319830968100984,-31.7260558091163,10.6841974385315,15.6725844839367,-0.0310450871035403,-0.33629161049731,-0.388801992394049,-0.343622427001388,7.18248614118151,5.07360341176752,0.430000000000007,23.5616941757568,17.0401747857475,-11.1657427454339,-0.368575694130522,7.6992750588851,0.70061407056696,-0.316223093419296,36.1376293100536,21.2480401737577,-5.33411014159178,6.01264625807163,-1.71435301466833,23.407760642217,42.5584479137723,-66.0198973756239,0,0,0
63.605,-1.63118362426758,-0.122523732723225,-2.38254595048401,0.0845643339607073,1.83754238171642,1.92711418824993,1.91623196479378,-14.5684570927684,-20.2122840362205,-24.2817406212822,-0.207955787327811,-2.50124110933586,-2.76304972861269,-2.80552971537596,1.54520020936928,9.46355404344414,1.64455378173254,17.1564486059819,27.7458134222506,2.38153673170682,-3.28570792986129,8.76910756346507,-0.366584663700578,4.28913638405045,5.56071870527076,-53.2510525006381,-2.31004051649268,9.26044655520078,1.91986996167869,-29.0430015103725,4.61913882809389,-37.3995488498012,1118.34153362994,0.210368477313096,-0.173626401604735,-46.6111975567181,-1.59393520908685,-0.148871820982947,-0.0890642618449511,-0.476636044497534,-0.323773489053634,-0.332926639055653,-31.6006443438808,8.17829481115893,15.1029815490619,-0.028576119679083,-0.349347131155739,-0.331780137776455,-0.279908325410546,7.20493849777546,5.0860769432086,0.430000000000007,23.6171320932727,16.9570179094736,-12.6625665183634,-0.425953938759491,7.97369275058883,0.605815231614759,0.854132943027651,35.9559161359737,18.8672896048801,-5.33052525748697,6.63343527116753,-1.84699515402863,22.5346134413415,45.0731123090882,-70.4642172371396,0,0,0
63.61,-1.63118362426758,0.951485764736117,-2.42501264269403,0.0846164324744627,1.79681527211252,1.96878599210684,1.95759130035305,-14.7702156540675,-19.1382745387612,-23.7469709843328,-0.207941851016804,-2.47264102748738,-2.70163864924462,-2.74235198106015,1.6749311222669,9.58580048059768,1.60463657776405,17.3812908814217,28.6482625551804,1.30968588440452,-3.43290261949512,8.68927315552807,-0.396522566676954,4.64950003098828,3.67573962898051,-52.240802276744,-2.29390759032548,9.22280300132939,1.9700612677051,-30.1781468078867,4.93348674748531,-38.0719041780096,1115.3477433323,0.213408739701708,-0.173042098510722,-46.6057443139693,-1.77293680191029,-0.361296436800918,-0.0868946990168232,-0.5118469188632,-0.336933006061079,-0.345687858226249,-31.4752268984124,5.67227269007464,14.533351452729,-0.0261070345221654,-0.36240327436534,-0.274755564077528,-0.215425604814946,7.22739192500775,5.09855106944876,0.430000000000007,23.6725726543401,16.8738570678726,-14.1594616671821,-0.483334919464214,8.24812352787226,0.511011872189574,2.02454478778305,35.7741942969196,16.486425510154,-5.32694020243733,7.25425388652432,-1.97964361841584,21.6614246045306,47.5878966159198,-74.9087490255954,0,0,0
63.615,-1.63118362426758,1.07623720169067,-2.04789954706566,0.0826728241633954,1.74482581614879,1.97362637519836,1.96223710922537,-14.793650894165,-19.0135231018066,-23.0021807050449,-0.207743756484061,-2.44799077635177,-2.69450545310974,-2.73341627746812,1.60645510251318,9.5796782681789,1.71064053991498,17.7224081887224,27.9335268648274,0.217881900970146,-3.58773618234312,8.78612459951028,-0.456449255058635,4.77777416823793,3.77457852230555,-51.1784544461785,-2.26986135527017,9.2178898083517,1.95696363753252,-28.2473436344182,4.75662167497771,-39.390755910891,1106.87130727155,0.219023794302101,-0.171906094308992,-46.6051108932495,-1.79372870922089,-0.625066317832161,-0.0825136932108181,-0.566911598870783,-0.338461548089981,-0.346453810115852,-31.4606590509415,5.38118600845337,13.2989495832702,-0.0240289680662791,-0.377633028408378,-0.268131881952286,-0.20058494279631,7.1419391621085,5.18580286768918,0.425484059595318,23.4392772377756,16.5073824865428,-14.6929359951885,-0.474194208583587,8.41999415254544,0.488710148988266,2.81279633006054,34.7411812549979,14.3031461501174,-5.21241744648812,7.70221290877431,-1.81064255792448,11.4838074379721,47.7535544266988,-70.6832647654833,0,0,0
63.62,-1.63118362426758,1.07623720169067,-1.61562198009821,0.0804668211701819,1.69135337851857,1.97362637519836,1.9621671486434,-14.793650894165,-19.0135231018066,-22.2297478535954,-0.207521447895604,-2.4238583098056,-2.69450545310974,-2.73169262977338,1.51192563986989,9.5566846151035,1.83582820665879,18.0788255820721,27.0062108148731,-0.876603368873787,-3.74358205318747,8.90620256557067,-0.5203205136014,4.87555239119229,4.13415005187963,-50.1092022661293,-2.24477380018861,9.21727800441874,1.93554742380392,-25.9134877887897,4.5151883956539,-40.7946459007735,1097.6738460414,0.224977549138939,-0.170697520379579,-46.6051108932495,-1.79372870922089,-0.895598585480106,-0.0778418076583919,-0.624588576435621,-0.338461548089981,-0.345306587705207,-31.4606590509415,5.38118600845337,11.9771121356509,-0.022002179921116,-0.393149275342934,-0.268131881952286,-0.191649700790798,7.04229999878178,5.28288718067418,0.420374358911902,23.1680215224828,16.103653049828,-15.0998195681276,-0.456310256191614,8.5783948737315,0.47593589727971,3.55086420655471,33.5962298055646,12.1457169726729,-5.08330829927119,8.12747767638249,-1.6019874783522,0.0827877880883996,47.6104824567077,-65.318078073293,0,0,0
63.625,-1.63118362426758,1.07623720169067,-1.18336502525964,0.0782609233649807,1.6378834905945,1.97362637519836,1.96222721174805,-14.793650894165,-19.0135231018066,-21.4573518337714,-0.207299149907403,-2.39972699395878,-2.69450545310974,-2.73014886230981,1.41740068463946,9.53369205842582,1.9610099041261,18.4352259805052,26.0789389817819,-1.97103645078763,-3.89942049289169,9.0262748059985,-0.584188726594931,4.97332595182437,4.49370443613951,-49.0400010708302,-2.21968744134753,9.2166662296582,1.9141322312566,-23.5797432275329,4.27376662850248,-42.1984689494969,1088.47682337033,0.23093102008512,-0.169489004078143,-46.6051108932495,-1.79372870922089,-1.16611795343953,-0.07317014487373,-0.682262803810798,-0.338461548089981,-0.343764902580933,-31.4606590509415,5.38118600845337,10.6553377167102,-0.019975488418531,-0.408664782422115,-0.268131881952286,-0.182072874833248,6.94266558651186,5.37996686442435,0.415264901872424,22.8967787413745,15.6999428639924,-15.5066837397901,-0.438427156553427,8.73678804195546,0.463162254681001,4.28889689003551,32.4513329504213,9.98839066711363,-4.95420530831724,8.55272216625047,-1.39334234800172,-11.3176882312569,47.4674173087636,-59.9531472072847,0,0,0
63.63,-1.63118362426758,1.07623720169067,-0.751087458292188,0.0760549203717672,1.58441105296428,1.97362637519836,1.96242147393111,-14.793650894165,-19.0135231018066,-20.6849189823219,-0.207076841318945,-2.37559452741261,-2.69450545310974,-2.72886812067072,1.32287122199617,9.51069840535041,2.08619757086991,18.7916433738549,25.1516229318277,-3.06552172063157,-4.05526636373604,9.14635277205889,-0.648059985137697,5.07110417477873,4.85327596571359,-47.9707488907809,-2.19459988626597,9.21605442572525,1.892716017528,-21.2458873819044,4.03233334917867,-43.6023589393794,1079.27936214017,0.236884774921958,-0.168280430148731,-46.6051108932495,-1.79372870922089,-1.43665022108747,-0.0684982593213038,-0.739939781375635,-0.338461548089981,-0.341830877228366,-31.4606590509415,5.38118600845337,9.33350026909091,-0.0179487002733679,-0.424181029356671,-0.268131881952286,-0.171968803487485,6.84302642318513,5.47705117740935,0.410155201189007,22.6255230260818,15.2962134272776,-15.9135673127292,-0.420543204161454,8.89518876314152,0.450388002972445,5.02696476652968,31.306381500988,7.8309614896691,-4.8250961611003,8.97798693385865,-1.18468726842945,-22.7187078811406,47.3243453387725,-54.5879605150944,0,0,0
63.635,-1.63118362426758,0.607067047456452,-0.459975534885216,0.0705322642630267,1.55000940793087,1.97171017469342,1.96083674580728,-14.9985070867851,-18.8571331196853,-20.2349733177491,-0.204120781666104,-2.35921429158896,-2.67725964856527,-2.71066647306238,1.36577324229008,9.56013259869866,1.97229737696833,18.8885798796757,24.3915154672014,-3.83608867651289,-4.06653903461287,9.1260235397528,-0.617304826935634,5.31895150196343,5.81679763496127,-48.2907874626691,-2.23821107317327,9.22543241248576,1.89571978120731,-21.1139685134144,4.25386624445678,-44.0798460267048,1075.07657923228,0.240043953118447,-0.167014856801574,-46.6003465056951,-1.79372870922089,-1.54908675852244,-0.0614468813986034,-0.793348408560898,-0.348042550614689,-0.349100770022084,-31.4368383603914,3.66089542560536,8.13575133517194,-0.0217247702029109,-0.42467178427018,-0.266215681447344,-0.159573560713836,6.95334326662306,5.44512514873137,0.414359356408601,22.3831703657121,14.0784002030594,-15.9124711221957,-0.38730482693566,8.96757002433296,0.469617103838605,5.47724547466924,28.9842883041402,3.76397346940854,-5.28474360632032,8.14154929273615,-1.39238486605581,-14.5359194878565,42.2086545552088,-48.115920741262,0,0,0
63.64,-1.63118362426758,0.123176200864532,-0.173271568743151,0.0649054362898867,1.51620349877035,1.96973385144224,1.95933099015452,-15.2097908514958,-18.6958362422855,-19.795108030494,-0.201078936851088,-2.34307610311136,-2.65947273930459,-2.69228687033056,1.4129826667667,9.61183815883973,1.85090171402844,18.9773924360103,23.6366087383571,-4.59654619012815,-4.07328323810952,9.10129479359838,-0.583583809452334,5.57151220904003,6.79928653941311,-48.654363865164,-2.28397651944095,9.23512380903572,1.89948869337548,-21.0510228885346,4.48991330252217,-44.5283353191132,1071.03005713428,0.243115741419112,-0.165747435603408,-46.5954326306194,-1.79372870922089,-1.65657618552127,-0.0543206147172825,-0.846625948376995,-0.357924166870623,-0.356323430510638,-31.4122702713673,1.88662897023562,6.94183079872976,-0.0256828110512853,-0.424691862107733,-0.264239358196157,-0.146932234855901,7.07024279389852,5.40915606341584,0.418855492073037,22.1417112281773,12.8350244143746,-15.8985941602685,-0.353583809452348,9.03726012713179,0.489849714328594,5.91853286395694,26.6252047765016,-0.363035007766272,-5.76285754100761,7.26554536499996,-1.61313569241107,-5.73922982025891,36.9369357459231,-41.6088884695059,0,0,0
63.645,-1.63118362426758,-0.360691572541874,0.113418726601367,0.0592788766186718,1.48239920156429,1.96775762242733,1.95796516649652,-15.4210645416421,-18.5345470559441,-19.3552637171701,-0.198037237079216,-2.32693868414494,-2.64168667817042,-2.67428478451224,1.46018984017406,9.663541253524,1.72951183955236,19.0662007575291,22.8817380054468,-5.35696744313337,-4.08002712002485,9.07656722657549,-0.549864399875648,5.82406087335928,7.78172859621549,-49.0179229313818,-2.32973978349205,9.24481474347446,1.90325742583202,-20.9880802650674,4.72594910524434,-44.9768032263751,1066.98372798508,0.246187383248848,-0.16448007483921,-46.59051898985,-1.79372870922089,-1.76406048714212,-0.0471946878350596,-0.89990094778017,-0.36780531194516,-0.363241448858112,-31.3877033538141,0.112447116546942,5.74796719155216,-0.0296406631698843,-0.424711938987922,-0.26226312918125,-0.134327971306626,7.18713674709773,5.3731886932007,0.423351413349926,21.9002636040479,11.5917079131106,-15.8847178600311,-0.319864399875648,9.10694690692362,0.510081360074617,6.35979921150377,24.2662337361569,-4.48984669834575,-6.24094867796771,6.38958320743007,-1.83387599278757,3.05704039808886,31.6654683060257,-35.1021664701259,0,0,0
63.65,-1.63118362426758,-0.844582419133794,0.400122692743432,0.0536520486455318,1.44859329240377,1.96578129917614,1.95673860031394,-15.6323483063529,-18.3732501785443,-18.915398429915,-0.1949953922642,-2.31080049566733,-2.62389976890974,-2.65664752536238,1.50739926465068,9.71524681366507,1.60811617661247,19.1550133138638,22.1268312766024,-6.11742495674862,-4.08677132352151,9.05183848042107,-0.516143382392348,6.07662158043588,8.76421750066733,-49.3814993338767,-2.37550522975973,9.25450614002442,1.90702633800019,-20.9251346401875,4.96199616330974,-45.4252925187835,1062.93720588708,0.249259171549512,-0.163212653641043,-46.5856051147743,-1.79372870922089,-1.87154991414095,-0.0400684211537387,-0.953178487596267,-0.377686928201094,-0.36991388303697,-31.36313526479,-1.6618193388228,4.55404665510999,-0.0335987040182587,-0.424732016825475,-0.260286805930063,-0.122012922956254,7.30403627437319,5.33721960788517,0.427847549014362,21.6588044665131,10.3483321244257,-15.8708408981039,-0.286143382392336,9.17663700972246,0.530313970564607,6.80108660079147,21.9071502085183,-8.61685517552056,-6.719062612655,5.51357927969388,-2.05462681914282,11.8537300656865,26.39374949674,-28.5951341983698,0,0,0
63.655,-1.63118362426758,-0.98373709149768,0.490876679068431,0.049206159495118,1.41703195449713,1.94330101995506,1.93514555246529,-15.8011248762704,-17.5560311625722,-18.4973729247902,-0.191655334544653,-2.29919065167533,-2.60518419329511,-2.63841329855432,1.51066176817472,9.73871078454499,1.54097549181489,19.5365467801465,21.147881979572,-7.07356561637827,-4.11836274001036,9.04515686182008,-0.472926475444641,6.46014882725658,8.13793895246068,-48.952330052529,-2.39741468429565,9.25914573669434,1.9088306427002,-20.8950004577637,5.07499980926514,-45.6399993896484,1061,0.250729739665985,-0.16260589659214,-46.5832526779175,-1.5162283786419,-1.87517292263339,-0.0366605630460466,-1.0085064442964,-0.401684987931022,-0.3905287703334,-31.3541916912297,-2.60372031541761,3.40268187782638,-0.0369537458173903,-0.415037899489061,-0.271807811408075,-0.123760096760598,7.40641175638063,5.30710784544983,0.431289215455023,21.6705397980264,9.41884537585971,-16.0647421572002,-0.106269637212797,9.13264707269895,0.563205878190331,6.85954977323253,20.866908722816,-11.7321953898671,-6.98191650099263,5.09575062121019,-1.92873043119106,16.2274417108976,20.697886102124,-29.7485919924858,0,0,0
63.66,-1.63118362426758,-0.806268212989998,0.401661125243671,0.0458445425879592,1.38752934260377,1.90198603227025,1.89485176404552,-15.9308745081994,-16.1362803114266,-18.0993687706016,-0.188041066083251,-2.29173897882883,-2.58561393597072,-2.61960186225178,1.4735598197858,9.73623732131907,1.5236612492334,20.1869759988165,19.9630625577693,-8.20952650532307,-4.17277893098078,9.05505071472379,-0.420983747700154,6.96400244735308,6.0339683812699,-47.7949935554589,-2.39741468429565,9.25914573669434,1.9088306427002,-20.8950004577637,5.07499980926514,-45.6399993896484,1061,0.250729739665985,-0.16260589659214,-46.5832526779175,-0.98382174311886,-1.7833961306688,-0.0366677094412477,-1.06572274730269,-0.438651036915239,-0.424022654128271,-31.3595982404105,-2.78118917181081,2.29029875429585,-0.0397552467316443,-0.396420516791385,-0.295727014804542,-0.138761469576618,7.49545643251405,5.28237321319055,0.433762678680949,21.9148324623156,8.77757713210056,-16.4495031034557,0.207860192480079,8.98423927914327,0.607728216257041,6.56639857608548,21.0379135878184,-13.9186147352555,-7.04708051544296,5.0987125468118,-1.48443097599656,16.5390981339776,14.6119296236081,-37.9382288845023,0,0,0
63.665,-1.63118362426758,-0.628807796664203,0.312449825450659,0.0424830859715169,1.35802813747237,1.86067301459249,1.85468847599709,-16.0606179533254,-14.7165971577277,-17.7013835942957,-0.184426969959655,-2.28428766129765,-2.56604461180757,-2.6009981000335,1.43645964051515,9.73376397603436,1.50634783224043,20.8373742033143,18.7782996312662,-9.34543322867142,-4.22719252724441,9.06494409586262,-0.369043496721247,7.46783204238662,3.93009813291773,-46.6377122432303,-2.39741468429565,9.25914573669434,1.9088306427002,-20.8950004577637,5.07499980926514,-45.6399993896484,1061,0.250729739665985,-0.16260589659214,-46.5832526779175,-0.451440494141472,-1.69162371486252,-0.0366748554956898,-1.12293632208548,-0.475615323261224,-0.457522156048545,-31.3650045317929,-2.95864956602317,1.17796867211204,-0.0425566140629822,-0.377804021819377,-0.319645077670617,-0.154915278755671,7.58449686276362,5.25763976034346,0.436236023965657,22.1591134780894,8.13633946569425,-16.8342457032995,0.521975043638258,8.83583856206067,0.652248431381824,6.27326135715687,21.2089102988601,-16.1049298264313,-7.11224142270206,5.10167433118103,-1.04015270616613,16.8507396964615,8.52626333946934,-46.1274752731384,0,0,0
63.67,-1.63118362426758,-0.451338918156521,0.223234271625899,0.0391214690643581,1.32852552557902,1.81935802690768,1.81464403139547,-16.1903675852543,-13.2968463065821,-17.3033794401071,-0.180812701498254,-2.27683598845116,-2.54647435448319,-2.58251742955077,1.39935769212624,9.73129051280843,1.48903358965893,21.4878034219843,17.5934802094636,-10.4813941176162,-4.28160871821484,9.07483794876632,-0.31710076897676,7.97168566248311,1.82612756172695,-45.4803757461602,-2.39741468429565,9.25914573669434,1.9088306427002,-20.8950004577637,5.07499980926514,-45.6399993896484,1061,0.250729739665985,-0.16260589659214,-46.5832526779175,0.0809661413815728,-1.59984692289794,-0.0366820018908909,-1.18015262509176,-0.512581372245441,-0.491136458803155,-31.3704110809737,-3.13611842241637,0.0655855485815041,-0.0453581149772362,-0.359186639121702,-0.343564281067084,-0.172517757828559,7.67354153889704,5.23290512808419,0.438709487191583,22.4034061423787,7.4950712219351,-17.219006649555,0.836104873331134,8.68743076850499,0.696770769448533,5.98011016000981,21.3799151638626,-18.2913491718197,-7.17740543715239,5.10463625678264,-0.595853250971626,17.1623961195415,2.44030686095339,-54.3171121651549,0,0,0
63.675,-1.62847487905183,-0.358745723962784,0.103954280910951,0.037353903094584,1.2990687662713,1.75204586585014,1.74871286123324,-16.3284871771401,-11.4002186931959,-16.5730713123759,-0.176355247703873,-2.27125598860831,-2.51447496905993,-2.55164197742806,1.33662679632764,9.75602392220343,1.51717703171917,22.0489987489415,16.5515210787569,-11.5804772633351,-4.41781339198557,9.05769378096849,-0.307349281468961,8.2850552282606,0.20057300645636,-44.4007384006313,-2.45707128174003,9.17782287073029,1.93405855072163,-19.9841631333712,5.20945674537674,-46.1040925365781,1060.87607656094,0.252517779635152,-0.160231861121958,-46.5805448781625,0.0920036897056074,-1.46840058582694,-0.0357905158539834,-1.23307331953143,-0.584161124346948,-0.559589842721199,-31.4409465238444,-5.27373393788129,-1.2230516365728,-0.0453732948672319,-0.338671128423872,-0.349507344052407,-0.173871205144986,7.77080861001621,5.21876076560938,0.425129187312333,22.4895563845096,7.09317739112581,-17.765514780598,0.771980872122481,8.81199520567412,0.64688517095234,6.1652725930014,22.8766612831946,-21.335318002413,-7.21140432357788,5.10618162155151,-0.364042997360229,17.3250007629395,-0.735000014305115,-58.5900001525879,0,0,0
63.68,-1.62281052521151,-0.358745723962784,-0.048138986146917,0.0373253278308519,1.26965909662683,1.65636314110674,1.65450820063789,-16.4757524686411,-8.9831122524042,-15.4801347683886,-0.170977403903785,-2.267717494998,-2.46891176680117,-2.50714564921821,1.24592754142519,9.81044347514489,1.59491925020697,22.5128926452679,15.6653237733608,-12.6394350542596,-4.64326582560022,9.0110484498758,-0.343628983429935,8.390631080528,-0.903174539975524,-43.4057659747174,-2.58182132278137,9.00776572196191,1.98681352998434,-18.0794786815655,5.49062444545975,-47.0745742872421,1060.61693583264,0.25625681385924,-0.155267430781879,-46.5748825014091,-0.465790102541028,-1.29366024049075,-0.0339185005960003,-1.28131262716867,-0.693512809767977,-0.666156498373184,-31.5825469672333,-9.55015315850908,-2.70411683842591,-0.0423484997380291,-0.31608264613482,-0.335838383374778,-0.157593973625731,7.87705630861621,5.21616935832644,0.394032299917207,22.4031761417453,6.9524095881026,-18.4885494052171,0.295161932063917,9.23439459279122,0.493992141259638,6.87231087636791,25.8199880736796,-25.3152077060688,-7.21140432357788,5.10618162155151,-0.364042997360229,17.3250007629395,-0.735000014305115,-58.5900001525879,0,0,0
63.685,-1.61714644146245,-0.358745723962784,-0.20022500099865,0.0372967539296633,1.24025082931259,1.56068497876677,1.56038847484589,-16.6230107381464,-6.56612106559112,-14.3872503384842,-0.165599816533403,-2.26417917011236,-2.42335073711547,-2.46250645644984,1.15523261130124,9.86486043321925,1.67265776174176,22.9767644219159,14.7791687241781,-13.6983423512974,-4.86870750905115,8.96440534295492,-0.379906955479506,8.49620189866167,-2.00686945682766,-42.4108409916999,-2.70656541541334,8.8377166819647,2.03956599375117,-16.1748850501132,5.77177873872892,-48.0450097627893,1060.35780746086,0.259995669796362,-0.150303237158868,-46.5692203946526,-1.02355729771575,-1.11892822723283,-0.0320465746006177,-1.32954963462912,-0.802859281013657,-0.773175410464766,-31.7241406587414,-13.8263684682452,-4.18511141920321,-0.0393238488389964,-0.293495240923885,-0.322170074469068,-0.143516922109051,7.9832989410471,5.2135780746086,0.362936895303285,22.3168000178178,6.81164849725769,-19.2115495536478,-0.181634272016196,9.65677383879698,0.341106401907852,7.57931544629348,28.7631745186186,-29.2949076381385,-7.21140432357788,5.10618162155151,-0.364042997360229,17.3250007629395,-0.735000014305115,-58.5900001525879,0,0,0
63.69,-1.61148208762213,-0.358745723962784,-0.352318268056518,0.0372681786659311,1.21084115966813,1.46500225402337,1.46632429261404,-16.7702760296473,-4.14901462479938,-13.294313794497,-0.160221972733315,-2.26064067650205,-2.37778753485671,-2.41764029706993,1.06453335639879,9.91927998616071,1.75039998022956,23.4406583182424,13.8929714187821,-14.7573001422219,-5.0941599426658,8.91776001186223,-0.416186657440481,8.60177775092906,-3.11061700325955,-41.415868565786,-2.83131545645467,8.66765953319632,2.09232097301387,-14.2702005983075,6.05294643881193,-49.0154915134533,1060.09866673257,0.26373470402045,-0.145338806818788,-46.5635580178991,-1.58135108996238,-0.944187881896647,-0.0301745593426346,-1.37778894226636,-0.912210966434687,-0.880769574101425,-31.8657411021303,-18.102787688873,-5.66617662105633,-0.0362990537097935,-0.270906758634832,-0.30850111379144,-0.131810931981755,8.0895466396471,5.21098666732567,0.33184000790816,22.2304197750535,6.67088069423448,-19.9345841782669,-0.658453212074759,10.0791732259141,0.18821337221515,8.28635372965999,31.7065013091036,-33.2747973417943,-7.21140432357788,5.10618162155151,-0.364042997360229,17.3250007629395,-0.735000014305115,-58.5900001525879,0,0,0
63.695,-1.60932540893555,-0.358745723962784,-0.424543065798534,0.0362763105806577,1.19079799393665,1.42857146263123,1.43154819178474,-16.8263466644287,-3.22871160507202,-11.9129858034219,-0.157338801094969,-2.25044185772046,-2.36043953895569,-2.40069719077873,0.966939736803745,10.0125193026757,1.7863060263196,23.3545328539663,13.5808575130108,-15.7074053690784,-5.18157650657991,8.96621327635602,-0.452071092118686,8.66143835283834,-2.7114700368638,-40.667239197306,-2.87881350517273,8.6029109954834,2.11240720748901,-13.5450000762939,6.15999984741211,-49.3849983215332,1060,0.265158325433731,-0.143448621034622,-46.56140209198,-1.79372870922089,-0.896969545219341,-0.0190755082039853,-1.40320159096907,-0.953846156597137,-0.921322376491051,-31.9196548700333,-19.7310161590576,-7.47737051660113,-0.0315800733189183,-0.265125305535376,-0.303296715021133,-0.13105873108312,8.24666148691303,5.44174646724614,0.430355460593397,21.9036388968324,5.79205087669127,-19.5208847786584,-0.857341572378941,10.6183615791774,-0.0970169475064384,11.9829976385359,29.5320671113821,-43.0152059341752,-7.21140432357788,5.10618162155151,-0.364042997360229,17.3250007629395,-0.735000014305115,-58.5900001525879,0,0,0
63.7,-1.60932540893555,-0.358745723962784,-0.447662865643635,0.0346920441396094,1.1765126820924,1.42857146263123,1.43321140247703,-16.8263466644287,-3.22871160507202,-10.3542215707799,-0.15598936378897,-2.23614686649843,-2.36043953895569,-2.40075831670512,0.86509930558926,10.1296357985723,1.79649006944105,22.9301977239059,13.621719414424,-16.5906510842411,-5.18412251736027,9.07314572913124,-0.487715243043754,8.69287058469466,-1.38817307571254,-40.0700267920359,-2.87881350517273,8.6029109954834,2.11240720748901,-13.5450000762939,6.15999984741211,-49.3849983215332,1060,0.265158325433731,-0.143448621034622,-46.56140209198,-1.79372870922089,-0.92815995802644,-0.00230196295180922,-1.41458024468153,-0.953846156597137,-0.921008818060761,-31.9196548700333,-19.7310161590576,-9.49169769514482,-0.0258189869450734,-0.269677931184251,-0.303296715021133,-0.138056097912386,8.43506628465983,5.81601005195939,0.608576215218752,21.4290121958019,4.45932424598314,-18.4081837709446,-0.885347690962929,11.2294041664643,-0.463642499878603,17.5182136684346,24.2105902581064,-56.2984671166578,-7.21140432357788,5.10618162155151,-0.364042997360229,17.3250007629395,-0.735000014305115,-58.5900001525879,0,0,0
63.705,-1.60932540893555,-0.358745723962784,-0.470781563076003,0.0331078532405429,1.1622280514093,1.42857146263123,1.43485203546744,-16.8263466644287,-3.22871160507202,-8.79553166410749,-0.154639990827684,-2.2218525568991,-2.36043953895569,-2.40044219512971,0.763263730393811,10.2467467100471,1.8066736269606,22.5058828272582,13.6625793674346,-17.4738546839301,-5.18666840674016,9.18007308308647,-0.52335769436216,8.72430131777967,-0.0649392128333151,-39.4728428634205,-2.87881350517273,8.6029109954834,2.11240720748901,-13.5450000762939,6.15999984741211,-49.3849983215332,1060,0.265158325433731,-0.143448621034622,-46.56140209198,-1.79372870922089,-0.959348883592798,0.0144707824937079,-1.42595835582991,-0.953846156597137,-0.921542580716494,-31.9196548700333,-19.7310161590576,-11.5059288252821,-0.0200581752749465,-0.274230339751986,-0.303296715021133,-0.147588331621129,8.62346209877143,6.1902557908027,0.786788471810795,20.9544081262181,3.12666116317843,-17.295535819735,-0.913352474141683,11.8404176176371,-0.83025057058224,23.0531657647061,18.889367146813,-69.5810949183859,-7.21140432357788,5.10618162155151,-0.364042997360229,17.3250007629395,-0.735000014305115,-58.5900001525879,0,0,0
63.71,-1.60932540893555,-0.358745723962784,-0.493901362921105,0.0315235867994946,1.14794273956505,1.42857146263123,1.43643592882504,-16.8263466644287,-3.22871160507202,-7.23676743146552,-0.153290553521686,-2.20755756567707,-2.36043953895569,-2.39973479629304,0.661423299179327,10.3638632059437,1.81685767008206,22.0815476971979,13.7034412688478,-18.3571003990928,-5.18921441752052,9.28700553586169,-0.559001845287228,8.75573354963599,1.25835774831794,-38.8756304581504,-2.87881350517273,8.6029109954834,2.11240720748901,-13.5450000762939,6.15999984741211,-49.3849983215332,1060,0.265158325433731,-0.143448621034622,-46.56140209198,-1.79372870922089,-0.990539296399896,0.0312443277458839,-1.43733700954237,-0.953846156597137,-0.922983442736926,-31.9196548700333,-19.7310161590576,-13.5202560038258,-0.0142970889011017,-0.278782965400861,-0.303296715021133,-0.1595768300792,8.81186689651824,6.56451937551596,0.96500922643615,20.4797814251876,1.7939345324703,-16.1828348120211,-0.941358592725671,12.451460204924,-1.1968761229544,28.5883817946048,13.5678902935374,-82.8643561008685,-7.21140432357788,5.10618162155151,-0.364042997360229,17.3250007629395,-0.735000014305115,-58.5900001525879,0,0,0
63.715,-1.60932540893555,0.165382786374257,-0.392915118595465,0.0293970524758538,1.14150990285851,1.38682852989375,1.39618355635798,-16.8423127272761,-2.7045831056203,-5.96148253437378,-0.153472779726404,-2.17868458131533,-2.34117356999993,-2.37937584653657,0.639131267080586,10.5424477664572,1.8309575204967,21.54478319148,13.8558366812337,-19.1729963867708,-5.09686107577799,9.42409644471871,-0.55721622608717,9.01118718809484,2.6000850793491,-38.3125795383854,-2.90330743141103,8.73500303062307,2.11240720748901,-12.9761221789729,6.42206728925765,-49.7812956750942,1059.81737465839,0.265497539175032,-0.142423830877719,-46.5813600188694,-2.05579295078276,-1.15475365093801,0.0484837636977324,-1.41353839659756,-1.02288255624059,-0.994405814782123,-32.4864664726338,-20.9103051045769,-15.3915561555719,-0.0144433870883179,-0.302123108336501,-0.383571591112786,-0.254150379640317,8.6946796720527,6.70191504099342,0.926861075777977,18.8993862066038,0.976881956912118,-15.8800895820866,-0.43317028323866,12.0555989068423,-1.01049443975669,30.5758708933316,9.63747257116105,-88.9921334253161,-6.29506953795842,5.95209636379321,-0.643098633470967,-26.2740609748744,-0.984283585576205,-39.2417583912609,0,0,0
63.72,-1.60932540893555,0.923364924866641,-0.236554617882561,0.0270286467112022,1.1385813342479,1.32646089714859,1.33717499811609,-16.8654024661887,-1.94660098287,-4.81275367492729,-0.154338461967052,-2.1433079260755,-2.31331158565601,-2.35005998987375,0.652336687530698,10.7484523254789,1.84680402503683,20.9578756159196,14.0579937350378,-19.9588004184934,-4.96216578718688,9.57463823784995,-0.538728637457019,9.36659233107308,3.94997250313801,-37.7647991345291,-2.93872996276358,8.92603137824835,2.11240720748901,-12.1534245453807,6.80106296700008,-50.3544114465256,1059.55326624939,0.26598810198924,-0.140941803818867,-46.610222696257,-2.43478400035134,-1.37831862519349,0.0659302691503407,-1.37404398453585,-1.12272134921506,-1.09758949171172,-33.3061758801323,-22.6157646229884,-17.1989450142126,-0.0172256939362251,-0.333845575867119,-0.499663200416837,-0.386641003229462,8.44113559941061,6.73360805007368,0.792165787186868,16.8256461062904,0.389974381351719,-15.9387803396426,0.314256514237501,11.2104519980353,-0.57735664899312,30.9801850009399,6.3279659645288,-91.9266713031181,-4.96988804776976,7.17543806847224,-1.0466622321799,-89.3259831667021,-1.34479153489874,-11.2607930801246,0,0,0
63.725,-1.60932540893555,1.68138320766013,-0.0801866611350983,0.0246601280093629,1.1356526259888,1.266090385779,1.27799347831197,-16.8884933061332,-1.18858271581935,-3.66397003846208,-0.15520418548767,-2.10792958390346,-2.2854482727162,-2.32042397071267,0.66554273767994,10.954466707807,1.86265128521592,20.3709400537312,14.2601604286805,-20.7446419212012,-4.82746407566465,9.72518720955127,-0.520240167248087,9.72201442150938,5.29992429617129,-37.2169926098199,-2.97415418323593,9.11706883504094,2.11240720748901,-11.3306876815356,7.18007671711281,-50.9275545469242,1059.2891452464,0.266478688195885,-0.139459706089706,-46.6390867499584,-2.81379312206954,-1.60189426012201,0.0833776065377853,-1.33454768918712,-1.22256490299222,-1.2017247384205,-34.1259243753904,-24.3213054660634,-19.0064200580069,-0.0200081334581512,-0.365569556080371,-0.615760345537458,-0.520970421931366,8.18757943654524,6.76530257043186,0.657464075664636,14.7518071198914,-0.196961180836669,-15.9974738958614,1.06171895268441,10.3652647884841,-0.144198204098094,31.3845183882252,3.01830154441095,-94.86134911406,-3.64464336643666,8.39883810807591,-1.45024507477796,-152.38091198302,-1.70531667500613,16.721506500494,0,0,0
63.73,-1.60932540893555,2.43936534615252,0.0761738395778064,0.0222917222447114,1.13272405737819,1.20572275303384,1.21860706022772,-16.9115830450458,-0.430600593069054,-2.51524117901559,-0.156069867728318,-2.07255292866363,-2.25758628837228,-2.29052747993157,0.678748158130052,11.1604712668287,1.87849778975605,19.7840324781708,14.4623174824846,-21.5304459529237,-4.69276878707354,9.8757290026825,-0.501752578617936,10.0774195644876,6.6498117199602,-36.6692122059635,-3.00957671458848,9.30809718266621,2.11240720748901,-10.5079900479435,7.55907239485524,-51.5006703183556,1059.0250368374,0.266969251010093,-0.137977679030854,-46.667949427346,-3.19278417163812,-1.8254592343775,0.100824111990394,-1.29505327712541,-1.32240369596669,-1.30676319278662,-34.9456337828889,-26.0267649844748,-20.8138089166476,-0.0227904403060584,-0.397292023610988,-0.731851954841509,-0.656812066370977,7.93403536390315,6.79699557951212,0.522768787073527,12.678067019578,-0.783868756397068,-16.0561646534175,1.80914575016057,9.52011787967709,0.288939586665476,31.7888324958335,-0.291205062221297,-97.795886991862,-2.319461876248,9.62217981275494,-1.85380867348689,-215.432834174848,-2.06582462432866,44.7024718116303,0,0,0
63.735,-1.60932540893555,2.16255300965139,0.354581901416708,0.0212532937250899,1.10867520009163,1.18931976087408,1.20294227247572,-16.9190829298812,-0.881746527371077,-2.03995503521136,-0.158493104123728,-2.02283582682312,-2.23358446612987,-2.26429836086828,0.699438123152145,11.175140469212,1.82168563054357,19.9113773938705,14.5204777162003,-21.8539142317327,-4.67028093842393,10.033356158247,-0.492710703817953,10.4650769339433,6.71478386015509,-35.8373592562412,-3.03970361449532,9.31049416806156,2.13102913462481,-10.1323539517204,7.79910059720158,-52.94968604917,1056.57023460598,0.268054282943246,-0.136369132184167,-46.7291032004255,-5.32071484767026,-2.44034823538803,0.111397278309764,-1.20815404639204,-1.34895663058731,-1.33935828121954,-35.203904729561,-25.4911038854677,-21.8426084048142,-0.0114789060644747,-0.413712829187156,-0.633918225484488,-0.579792774169927,8.23315879740438,6.95064545442911,0.446826099755532,13.5523780810671,-1.67342565374928,-15.8457492489268,2.23960527831463,10.4313442807592,0.830531671167639,29.8233539713533,-5.02951105700764,-91.8016797050727,-1.44779905052157,11.572986131213,-1.38112783665754,-205.115997523031,-12.5601403198038,51.896230729978,2.42976539401774,0,0
63.74,-1.60932540893555,1.77739182127761,0.645756089649238,0.0203541948089049,1.08241589795517,1.17752159954428,1.19160826165111,-16.9249498538131,-1.45948830193257,-1.63521668980792,-0.161079319576411,-1.97161961569372,-2.20998814347027,-2.23835949239651,0.720910778052244,11.169772305487,1.75726766584325,20.1135119538869,14.563555573253,-22.1289497806075,-4.65954461097387,10.1917169881353,-0.484658458230422,10.8560913287291,6.64519655260847,-34.9758021151877,-3.06927437016416,9.29313759545552,2.15160016464825,-9.80355382117298,8.0245635146085,-54.4903494887667,1053.88615274347,0.269201510387174,-0.134747420946869,-46.7936352680931,-7.63168197791296,-3.09618420627783,0.121250113225679,-1.1162951717328,-1.36783368871499,-1.36502894958667,-35.403368368444,-24.7207813807331,-22.7898200048649,0.00130793604434809,-0.428530383353136,-0.513576971921354,-0.481150714814985,8.5901416851186,7.11705852990492,0.377039971330197,14.7353623093598,-2.59462905841423,-15.6071641944812,2.63684939396655,11.5264496806645,1.38345253484531,27.609814855108,-9.91719099183062,-84.8727720822152,-0.623674507969205,13.5998696118009,-0.816711788228237,-187.116545208312,-24.1151131730778,56.9127793624122,5.1138472565307,0,0
63.745,-1.60932540893555,1.39221226653177,0.936944162493291,0.0194550530192797,1.05615534364656,1.16572287562036,1.17997462782132,-16.9308170575088,-2.03725762605176,-1.23045904449768,-0.163665658352514,-1.92040096232451,-2.18639069562243,-2.21238660063187,0.742384456873707,11.1644038857816,1.69284662937885,20.3156561526692,14.6066354844689,-22.4039984445244,-4.64880777156313,10.3500853694436,-0.476605828672379,11.2471243689966,6.57560592679816,-34.1142038908696,-3.09884653591148,9.27578019520308,2.17217217559915,-9.47473801182479,8.25003718319169,-56.0310863947426,1051.20194289079,0.270348792536525,-0.133125632378435,-46.8581704129659,-9.942759306388,-3.75205145063914,0.131103417973024,-1.02443191679249,-1.38671164699326,-1.39133741923244,-35.6028415187303,-23.9504221432483,-23.7370767726043,0.014095387892435,-0.443348644092677,-0.393229979897795,-0.382893663112786,8.94714159552548,7.28347954077128,0.307250515160434,15.9184029481351,-3.51587639056974,-15.3685677631316,3.03411245216368,12.6216073005593,1.93639976449807,25.3961701864754,-14.8051039951737,-77.9435340551031,0.200489332878067,15.6268497441213,-0.252268825677131,-169.116234591543,-35.670637024056,61.9295672084571,7.79805710921401,0,0
63.75,-1.60831154559726,1.1095170611837,1.20121368781405,0.0186806908106851,1.02308186883074,1.15563623820987,1.1697369482219,-16.9356301116943,-2.37810078292603,-0.895024748934577,-0.166053999747958,-1.87074772621265,-2.16173197128574,-2.18540285990896,0.762783017706298,11.1845833230724,1.64742138055014,20.4728919206595,14.5240120066874,-22.7195336995659,-4.62191038490899,10.4772169822937,-0.48484276110033,11.6223017864402,6.41887961298409,-33.3238023487406,-3.12310552597046,9.26154136657715,2.18904805183411,-9.20499992370605,8.4350004196167,-57.2950019836426,1049,0.271289944648743,-0.131795227527618,-46.9253040280869,-11.8386096954346,-4.49277357706472,0.140435602368215,-0.930662544633822,-1.39567354762493,-1.40823160898263,-35.8151383105379,-23.9175093462676,-24.640458707665,0.0247776566856421,-0.45093356385193,-0.292466666064965,-0.304214353182317,9.28128142931023,7.39680818578079,0.254638362843846,16.9003416366515,-4.46172055113041,-14.7330539920898,3.34515723889971,13.590039278942,2.40901728765975,23.0900693093419,-18.411678093572,-71.9758037521354,0.767264934394696,16.9320484100503,0.214427685650714,-149.127441225929,-44.2538697501335,64.3403999123021,10.6493707981383,0,0
63.755,-1.60266706937464,1.29479585419874,1.34261556724541,0.0184759950607692,0.958884805514524,1.15336607272387,1.16699233630565,-16.9356301116943,-1.63698563395354,-0.876103188904794,-0.167538715288484,-1.82823061573378,-2.13221981996774,-2.15369663034619,0.778276898071753,11.3214459329672,1.68873839485802,20.4250713022476,13.8672755138307,-23.220056172277,-4.52120016253354,10.4617231019283,-0.567476789716084,11.9251657030488,5.8641604394061,-32.8583483295315,-3.12310552597046,9.26154136657715,2.18904805183411,-9.20499992370605,8.4350004196167,-57.2950019836426,1049,0.271289944648743,-0.131795227527618,-47.004322754906,-11.8386096954346,-5.62122708473805,0.147390292111408,-0.828162986651807,-1.35935089984894,-1.38019109854742,-36.0860574080332,-27.2525274358369,-25.3437028037369,0.0258483281846199,-0.425485615730879,-0.281115838634967,-0.314553290953497,9.51110732139779,7.26769251606867,0.280461496786275,16.9641024612007,-5.52015023864704,-12.2846383294007,3.26252321028396,13.9799686014726,2.51489213682369,20.3611060186363,-16.1672970694404,-70.3977233445429,0.158691320662357,14.9411963329127,0.234837164768933,-120.051882263158,-39.264839858726,54.8503986809986,14.2646095500776,0,0
63.76,-1.59702286229547,1.48006581263467,1.48401070426405,0.0182713090712838,0.894690803282772,1.15109601548531,1.16392869513248,-16.9356301116943,-0.89590582329638,-0.857182531104652,-0.169023360033876,-1.78571553258233,-2.10270907586658,-2.12219684304984,0.793770039648329,11.4583020168936,1.73005343906223,20.3772529640483,13.2105703358936,-23.7205547787631,-4.42049474228581,10.4462299603517,-0.650106878124485,12.2280151783111,5.30946771629414,-32.3929165043916,-3.12310552597046,9.26154136657715,2.18904805183411,-9.20499992370605,8.4350004196167,-57.2950019836426,1049,0.271289944648743,-0.131795227527618,-47.0833377139048,-11.8386096954346,-6.74962678478656,0.154344650236742,-0.725668316117721,-1.32302998403212,-1.35233786389266,-36.356963587395,-30.5873865029911,-26.0469133672847,0.0269189486311708,-0.40003888103478,-0.269765552442211,-0.324128745768877,9.74092225478366,7.13858300293055,0.306283399413907,17.0278602454664,-6.57852945745838,-9.83633941359621,3.17989312187556,14.3698793311498,2.62076193759697,17.6322728520626,-13.9230230632862,-68.8197181839657,-0.449853274682908,12.950439184827,0.255245670709625,-90.977709699347,-34.2760478573572,45.3608499578599,17.8796759179452,0,0
63.765,-1.59137838607286,1.66534460564972,1.6254125836954,0.0180666133213678,0.830493739966558,1.14882584999931,1.16056312269673,-16.9356301116943,-0.154790674323893,-0.838260971074869,-0.170508075574403,-1.74319842210346,-2.07319692454858,-2.09096508991441,0.809263920013784,11.5951646267885,1.77137045337012,20.3294323456365,12.5538338430369,-24.2210772514743,-4.31978451991036,10.4307360799862,-0.732740906740239,12.5308790949198,4.75474854271615,-31.9274624851824,-3.12310552597046,9.26154136657715,2.18904805183411,-9.20499992370605,8.4350004196167,-57.2950019836426,1049,0.271289944648743,-0.131795227527618,-47.1623564407238,-11.8386096954346,-7.87808029245989,0.161299339979936,-0.623168758135705,-1.28670733625612,-1.32449668617794,-36.6278826848903,-33.9224045925604,-26.7501574633566,0.0279896201301486,-0.374590932913728,-0.258414725012213,-0.33259742527442,9.97074814687123,7.00946733321843,0.332106533356337,17.0916210700156,-7.63695914497501,-7.38792375090713,3.0972590932598,14.7598086536804,2.72663678676091,14.903309561357,-11.6786420391546,-67.2416377763732,-1.05842688841525,10.9595871076895,0.275655149827844,-61.9021507365768,-29.2870179659497,35.8708487265563,21.4949146698845,0,0
63.77,-1.58924611936659,1.61855007888051,1.69559506960291,0.0175251431950131,0.764813079336467,1.1400980937107,1.15046967012036,-16.9356301116943,0.358745723962784,-0.796847034262172,-0.171524385421247,-1.70946332884787,-2.0377223704268,-2.0540922480946,0.802909198918067,11.6582599408478,1.81790464875251,20.3103627992444,12.0836941789401,-24.5990484910958,-4.25651078136454,10.4444154301171,-0.790813847670588,12.8150922563235,4.11214956625189,-31.3477222176971,-3.20458129610131,9.23795624152242,2.20132787858226,-9.03694037507689,8.75402871268853,-58.9157793836305,1044.27968351071,0.272438647444022,-0.130371889848935,-47.2295616434768,-11.0211093962583,-8.77588041881184,0.167038455651714,-0.5352924955649,-1.24222080375588,-1.28833142229674,-36.9401265097597,-35.7077825227272,-27.5260511224133,0.0314486364702007,-0.343360627379241,-0.288469401002985,-0.381058625902796,10.160112363811,6.92976617204683,0.376856973128766,17.009203942603,-8.30807585731456,-5.51351723741907,2.92768902146164,14.7516640966657,2.76093531181275,11.257047061133,-5.73470787031964,-66.5349769792206,-1.56159785951684,9.61633289594097,0.266797028893085,-39.464833617581,-24.3687364374104,28.2809459532762,25.1393867387952,0,0
63.775,-1.59504012947735,1.04798846442201,1.60505538681923,0.0162235322535421,0.695773928750499,1.11679502490461,1.12557709525689,-16.9356301116943,0.358745723962784,-0.704664246176586,-0.171483721323265,-1.6955428868107,-1.98878592593402,-2.00411585100431,0.747243989989636,11.554881695695,1.87622058191562,20.3561777860168,12.0346066931126,-24.7004959618061,-4.27771657524204,10.5239371571577,-0.793464571905273,13.0572571864061,3.27111730907328,-30.5099624595736,-3.46995011908379,9.16113884089379,2.24132361185798,-8.48956580544637,9.79311263290942,-64.1946959285205,1028.90548294952,0.276180004024639,-0.125736039903701,-47.2701156695679,-8.35848844978752,-9.15326477606363,0.17003506731819,-0.480405494160914,-1.17930251797945,-1.23340326638717,-37.3456834549935,-33.9960979558438,-28.4660260585242,0.0402983790483068,-0.299075430054476,-0.411975673574999,-0.521293800960324,10.2581891604944,6.96157486286308,0.464330872873447,16.5968690616516,-8.10518091589404,-4.93428490465405,2.56188907707477,13.8451164084026,2.63370054854774,5.53999121175155,8.55956800266146,-67.7948891154609,-1.82696668249932,9.73441568149372,0.19188429977525,-32.0056952773725,-19.6093610942525,24.9781437995367,28.8504006673576,0,0
63.78,-1.60083386331451,0.477454055838693,1.51452002120524,0.0149219833762968,0.626738070132422,1.09349306725001,1.10052342918301,-16.9356301116943,0.358745723962784,-0.612485853608266,-0.171443059164253,-1.68162310853675,-1.93985181485936,-1.95452056652066,0.691581435324458,11.4515083798883,1.934533734422,20.4019905882103,11.9855215479052,-24.8019385952347,-4.29892135797163,10.6034550923937,-0.79611516974647,13.2994105694292,2.43012515451994,-29.6722426480341,-3.73530628858434,9.08432510312043,2.28131743803217,-7.94221733607188,10.832147006882,-69.4733607608154,1013.53201547056,0.279921182207555,-0.12110041100796,-47.3106677619367,-5.69599446407141,-9.53063113863883,0.173031536098358,-0.425521109913204,-1.11638723231202,-1.17798422921368,-37.7512210622078,-32.2844950065728,-29.4059561741633,0.0491476996474611,-0.254792344364145,-0.535476057043801,-0.659628274417172,10.3562612806188,6.99338203695747,0.551800601633017,16.1845538419095,-7.90229564903682,-4.35508019120682,2.19610657498928,12.9386119467125,2.50647185217018,-0.176792033402823,22.8531622870543,-69.054741175784,-2.09232285199987,9.85249283654935,0.116975142692945,-24.5469126084561,-14.8502126906017,21.6754991320719,32.5612376450365,0,0
63.785,-1.60662787342527,-0.0931075586198105,1.42398033842156,0.0136203724348257,0.557698919546454,1.07018999844392,1.07538273573068,-16.9356301116943,0.358745723962784,-0.52030306552268,-0.171402395066271,-1.66770266649958,-1.89091537036658,-1.90530450761787,0.635916226396027,11.3481301347355,1.99284966758511,20.4478055749827,11.9364340620776,-24.903386065945,-4.32012715184912,10.6829768194343,-0.798765893981155,13.5415754995118,1.58909289734133,-28.8344828899107,-4.00067511156682,9.0075077024918,2.32131317130789,-7.39484276644137,11.8712309271029,-74.7522773057054,998.157814909376,0.283662538788172,-0.116464561062726,-47.3512217880278,-3.03337351760065,-9.90801549589062,0.176028147764835,-0.370634108509218,-1.0534689465356,-1.12191854725034,-38.1567780074415,-30.5728104396893,-30.3459311102742,0.0579974422255673,-0.210507147039381,-0.658982329615815,-0.795908039287111,10.4543380773023,7.02519072777373,0.639274501377698,15.7722189609581,-7.69940070761631,-3.77584785844179,1.83030663060242,12.0320642584494,2.37923708890518,-5.89384788278423,37.1474381600354,-70.3146533120243,-2.35769167498235,9.97057562210209,0.0420624135751097,-17.0877742682475,-10.0908373474439,18.3726969783325,36.2722515735989,0,0
63.79,-1.61558393629116,-0.769615497724201,1.17564006217061,0.0112028859874383,0.508606051245031,1.02410085621455,1.02745987118983,-16.9325008480165,0.461463168469777,-0.363133551016776,-0.170027816156929,-1.67084930828625,-1.84799481847144,-1.86247058759273,0.624316190184215,11.3529699036816,2.01570514294472,20.2570440960364,12.4119957570304,-24.7685719025959,-4.40014933190259,10.7529272374237,-0.775662476686859,13.6525535567674,1.14627536847629,-28.166957795195,-4.14788214397316,8.9762010095323,2.37216443428426,-6.1829625736629,12.5604377485973,-79.1591480722255,988.566247668685,0.286318408611366,-0.112142722423152,-47.354457427353,-0.766554272684066,-9.35662072768569,0.184906298416872,-0.32730402704119,-0.973833230005416,-1.04835924501684,-38.442595869729,-27.2079600407774,-30.498805534781,0.0689631664442318,-0.16140770490572,-0.696346475862037,-0.843873179052162,10.3439535269922,7.04143161901844,0.63275657239213,16.0150349117672,-5.96829727029946,-4.81230426495409,0.991433918397611,11.0745744871107,2.07232990981323,-8.36820788154002,45.3913895031606,-68.9977115026679,-2.48124027252197,10.0255517959595,0.00718505866825581,-13.6149997711182,-7.875,16.8350009918213,38,0,0
63.795,-1.62729570890666,-1.53848860340141,0.789795249925143,0.00781298712582634,0.476886825074239,0.958155435761982,0.959786098325511,-16.9266449617088,0.653681446885113,-0.149330899517699,-0.167490953068321,-1.68886577724322,-1.81031173019471,-1.82520720220173,0.651106512352776,11.4520940957053,2.00766804629416,19.8601504342798,13.3446958621584,-24.4279048429215,-4.53142191052859,10.8145449784114,-0.730118929000286,13.6492461095861,1.05035940021844,-27.6476885877302,-4.19215489279307,8.98454232611936,2.43247801931472,-4.39202957597595,12.9448787286405,-82.8066498631732,984.011892900028,0.288028794644996,-0.108094077729309,-47.3251800397536,1.15562849550101,-7.9959861293989,0.19890948028205,-0.294038943893251,-0.879625493345298,-0.959339944364012,-38.6241176145875,-22.4025032320927,-29.9659392150317,0.0817733994933265,-0.108109513262271,-0.6586633875853,-0.814561485536464,10.0519390153548,7.04411065123529,0.544348509235853,16.8286669183682,-2.90560118041108,-7.25650773193844,-0.259674126874614,10.0726164380062,1.60885733629696,-8.0176184803217,48.3647845191538,-65.4355908884025,-2.48124027252197,10.0255517959595,0.00718505866825581,-13.6149997711182,-7.875,16.8350009918213,38,0,0
63.8,-1.63900692307411,-2.30732504719106,0.403968835772953,0.0044232499034887,0.445169111359397,0.892213159760135,0.892331327615521,-16.9207893546251,0.845890559828466,0.0644615573098405,-0.164954210944003,-1.70688138712767,-1.77263043874652,-1.78822851363844,0.677895557088465,11.5512135612274,1.99963133287346,19.4632756974547,14.2773514936975,-24.0872540271465,-4.66268822973352,10.8761597813035,-0.684577552949593,13.6459388201125,0.954448005485693,-27.1284441403839,-4.23642553057212,8.99288324497056,2.49278872843515,-2.60118197467455,13.3293013775289,-86.4539777316629,979.457755294959,0.289739099122931,-0.10404562608547,-47.2959040481769,3.07771960896703,-6.63541640974066,0.212911994438765,-0.26077544691178,-0.785422248757308,-0.86934884569862,-38.8056307040129,-17.5972755602002,-29.4330983037471,0.0945830217168895,-0.0548138630164774,-0.62098209613711,-0.783018992631648,9.75993842773564,7.04678955570886,0.45594466160805,17.6422601288598,0.156948872089833,-9.70059465288679,-1.51072251603177,9.07070616489104,1.14540686236936,-7.66704579612614,51.338037755869,-61.8736401253966,-2.48124027252197,10.0255517959595,0.00718505866825581,-13.6149997711182,-7.875,16.8350009918213,38,0,0
63.805,-1.65071869568961,-3.07619815286827,0.0181240235274841,0.00103335104187671,0.413449885188605,0.826267739307569,0.825205432628713,-16.9149334683173,1.0381088382438,0.278264208808918,-0.162417347855396,-1.72489785608464,-1.73494735046978,-1.75146522536754,0.704685879257026,11.6503377532511,1.99159423622289,19.0663820356981,15.2100515988255,-23.7465869674721,-4.79396080835951,10.9377775222912,-0.63903400526302,13.6426313729312,0.858532037227849,-26.609174932919,-4.28069827939203,9.00122456155762,2.55310231346562,-0.810248976987602,13.7137423575721,-90.1014795226107,974.903400526302,0.29144948515656,-0.0999969813916272,-47.2666266605776,4.99990237715211,-5.27478181145387,0.226915176303943,-0.227510363763841,-0.69121451209719,-0.778313966479114,-38.9871524488715,-12.7918187515155,-28.9002319839978,0.107393254765984,-0.00151567137302814,-0.583299007860374,-0.749290900219311,9.46792391609823,7.04946858792572,0.367536598451773,18.4558921354609,3.21964496197821,-12.1447981198711,-2.76183056130399,8.06874811578652,0.681934288853097,-7.31645639490783,54.3114327718621,-58.3115195111312,-2.48124027252197,10.0255517959595,0.00718505866825581,-13.6149997711182,-7.875,16.8350009918213,38,0,0
63.81,-1.705890157725,-4.017277651351,-0.651040897520469,-0.00237786227422532,0.402427960441475,0.762944090281258,0.761151173623833,-16.899358642463,1.39166365164662,0.504988004626619,-0.159870336250494,-1.75418278236426,-1.71201324093474,-1.72958888376447,0.751764275160481,11.6875849579623,1.96801880254711,18.9143836628113,15.5633128693925,-23.692580986082,-4.89473607133985,11.0379247898116,-0.605820682801807,13.4682967114833,1.06745933161027,-26.0258429692392,-4.33159656905235,9.08132065045637,2.62560827452545,1.53759546340791,15.4210050392572,-97.8798625390742,959.052785732031,0.294187135733446,-0.0944506106574145,-47.1695349853702,7.43145785455613,-3.0539396474628,0.246829413258175,-0.112898727419073,-0.626149577150382,-0.715345850228646,-39.0567902562119,-8.21120565195934,-26.1038015855008,0.120003136368228,0.0625926748277859,-0.529446286211051,-0.697306107047653,9.10006511591419,7.11814171210399,0.334613161782985,19.2604375057205,4.50016505781704,-16.4288489424758,-3.41665215287856,7.25672459106421,0.352603067508706,-4.02843207665013,47.6582943207681,-58.1449701596452,-2.48124027252197,10.0255517959595,0.00718505866825581,-13.6149997711182,-7.875,16.8350009918213,38,0,0
63.815,-1.7718193069562,-5.00102681098235,-1.39035517420101,-0.00579455291731532,0.396527072634306,0.700265450206476,0.698306788182512,-16.8813778703033,1.78516335472651,0.734922714974169,-0.157320661815338,-1.78625790954736,-1.69272750552712,-1.7114086074337,0.80386589782814,11.7095224832961,1.94059689587991,18.822977307254,15.7732089451167,-23.709508088963,-4.9879705540083,11.1476124164803,-0.575656585467895,13.2516297946067,1.35183466001076,-25.4266235272525,-4.38413742299711,9.17917772614387,2.70113563765794,4.02339121223885,17.4557107963996,-106.680923818649,940.405889198342,0.29717915298397,-0.0885332871721061,-47.0556564130047,9.98920582650706,-0.620100974311438,0.268207566898352,0.021849502402296,-0.568292362755142,-0.658498980275262,-39.0987457399387,-3.68595922998785,-22.7470700152717,0.132564189695099,0.129379883160825,-0.471589071815811,-0.639369196515973,8.71341623190681,7.20314962277228,0.315417827115938,20.062782182279,5.33974936071372,-21.1684377491505,-3.92395742622158,6.49165339504962,0.0564464755030621,-0.0133232732813711,38.6226068029003,-58.8186688543083,-2.48124027252197,10.0255517959595,0.00718505866825581,-13.6149997711182,-7.875,16.8350009918213,38,0,0
63.82,-1.83774531251253,-5.98472906287198,-2.12963419843654,-0.00921108064362853,0.390626466196954,0.637589798813751,0.636137510195432,-16.8633979555141,2.17864429470784,0.964846461431278,-0.154771108955352,-1.81833150730421,-1.67344268971397,-1.69317849059308,0.855965036153693,11.731458962591,1.91317629676119,18.7315753101917,15.9830950124451,-23.7264343847153,-5.08120059101193,11.2572948129552,-0.545493926437308,13.0349732089774,1.63619642864927,-24.8274326576214,-4.43667577165607,9.27703013574917,2.77665939944754,6.50906843180463,19.4903195334316,-115.481565440524,921.759881797618,0.300171027567258,-0.0826162458403111,-46.9417832706685,12.546831838322,1.8136216470245,0.289584701172057,0.156591307074427,-0.510437907143728,-0.600583553616707,-39.1406992231179,0.839071416357939,-19.3904985028134,0.145124644077982,0.196163906904491,-0.413734616204397,-0.579663176182867,8.32678578433296,7.28815348004029,0.296223407732826,20.8650886009376,6.1792936300274,-25.9078005597922,-4.43123850991776,5.72661867963754,-0.239695994979027,4.00159407916219,29.5873501303271,-59.4923354252495,-2.48124027252197,10.0255517959595,0.00718505866825581,-13.6149997711182,-7.875,16.8350009918213,38,0,0
63.825,-1.90322752174538,-6.64140017753325,-2.8385794224549,-0.0121658206514069,0.383880780477415,0.575692959944259,0.575513593763113,-16.8419898621863,2.68598882431306,1.22635236163913,-0.152232911190154,-1.84845158414285,-1.66106875479557,-1.68170504970942,0.903653742763885,11.75,1.8733551718533,18.6232466321863,16.0121388397646,-23.7106687838362,-5.14700891461724,11.3552776284368,-0.522841799927464,12.8323050798639,1.94220031578489,-24.2833977081903,-4.48108196258545,9.35973644256592,2.84049320220947,8.60999965667725,21.2100009918213,-122.919998168945,906,0.30269980430603,-0.0776150748133659,-46.8171416673331,14.9124719946438,4.23084950380822,0.311715293386905,0.307603838463862,-0.45368670939727,-0.542739436229302,-39.1726095594658,4.57631008277244,-15.9674138273929,0.156576931103763,0.264101417429798,-0.352700642404879,-0.515210568718378,7.96630437228842,7.34822682887187,0.254423800652628,21.5106319232299,6.59368251194229,-30.7510842467061,-4.85431640014505,5.11937922756653,-0.480256685962925,7.576495868386,21.4669599770686,-59.8913206392691,-2.48124027252197,10.0255517959595,0.00718505866825581,-13.6149997711182,-7.875,16.8350009918213,38,0,0
63.83,-1.96626693084183,-5.51264364252188,-3.38171757715595,-0.0125988045609292,0.372523981548437,0.518066631950398,0.520003320232221,-16.8018743292217,3.81474535932443,1.66018107346745,-0.149757481288492,-1.86789833842149,-1.68642433567464,-1.70770187758997,0.927251722284029,11.75,1.76585326515047,18.4225505100671,15.0539767083571,-23.5164467301725,-5.06310498743453,11.3893635988548,-0.541195783998679,12.7060607449825,2.36625179961723,-24.0406201411107,-4.48108196258545,9.35973644256592,2.84049320220947,8.60999965667725,21.2100009918213,-122.919998168945,906,0.30269980430603,-0.0776150748133659,-46.6337546591299,16.2293548584581,6.55728988614024,0.337952110244358,0.547389889573906,-0.402975547639134,-0.489965080152165,-39.149685683334,4.0119318465234,-12.1822956660378,0.161976332791802,0.338314756625892,-0.274328841099866,-0.43207908825947,7.74867856115828,7.27218889486254,0.0892379440116769,21.3002246984276,4.68706935181057,-36.1601684412393,-4.81760843200262,5.37371300683912,-0.417328740575893,8.74830225882349,18.3432219473113,-58.7907290018416,-2.48124027252197,10.0255517959595,0.00718505866825581,-13.6149997711182,-7.875,16.8350009918213,38,0,0
63.835,-2.02930934596608,-4.38383328287005,-3.92488163134461,-0.0130318091172452,0.361166641071658,0.460437556050953,0.465387448072708,-16.7617568833519,4.94355571897626,2.09403047237372,-0.147281933346206,-1.88734602001662,-1.711781125632,-1.73333754346058,0.950850827071425,11.75,1.65834623223016,18.2218448177739,14.095768887086,-23.32221541505,-4.97919705930158,11.4234511946588,-0.559550643277756,12.5798103901529,2.79032350430141,-23.7978309972075,-4.48108196258545,9.35973644256592,2.84049320220947,8.60999965667725,21.2100009918213,-122.919998168945,906,0.30269980430603,-0.0776150748133659,-46.4503589061359,17.5463005176976,8.88384120454504,0.364190178201751,0.787187374857386,-0.352261967724413,-0.436299761169605,-39.1267607140795,3.44752669795563,-8.39699701170849,0.167375991949761,0.412531634677511,-0.195953302643488,-0.347842046119922,7.53104237256349,7.19614733499206,-0.075955789500031,21.0898074403782,2.78036527502442,-41.5695105674017,-4.78089871344446,5.62805891399207,-0.354397794476192,9.92016452672941,15.2193349624239,-57.690084882814,-2.48124027252197,10.0255517959595,0.00718505866825581,-13.6149997711182,-7.875,16.8350009918213,38,0,0
63.84,-2.09235176109033,-3.25502292321823,-4.46804568553327,-0.0134648136735611,0.34980930059488,0.402808480151508,0.411696016578355,-16.7216394374821,6.07236607862809,2.52787987128,-0.144806385403921,-1.90679370161175,-1.73713791558936,-1.75851316673569,0.97444993185882,11.75,1.55083919930985,18.0211391254806,13.1375610658149,-23.1279840999274,-4.89528913116864,11.4575387904628,-0.577905502556833,12.4535600353232,3.21439520898559,-23.5550418533043,-4.48108196258545,9.35973644256592,2.84049320220947,8.60999965667725,21.2100009918213,-122.919998168945,906,0.30269980430603,-0.0776150748133659,-46.2669631531419,18.8632461769371,11.2103925229498,0.390428246159145,1.02698486014087,-0.301548387809692,-0.381845243748302,-39.1038357448251,2.88312154938786,-4.61169835737922,0.17277565110772,0.486748512729129,-0.117577764187108,-0.262747703620023,7.31340618396871,7.12010577512159,-0.241149523011739,20.8793901823288,0.873661198238273,-46.9788526935641,-4.74418899488631,5.88240482114503,-0.291466848376491,11.0920267946353,12.0954479775366,-56.5894407637863,-2.48124027252197,10.0255517959595,0.00718505866825581,-13.6149997711182,-7.875,16.8350009918213,38,0,0
63.845,-2.13389205932617,-2.5112202167511,-4.7896362380837,-0.0129308815763049,0.336488507191626,0.364835172891617,0.378581997683781,-16.6952050018311,6.81616878509521,3.01924465996694,-0.143021261599288,-1.91754156654534,-1.75384616851807,-1.77449144199462,1.03797853309482,11.7979785330948,1.45811505507958,17.8036768526365,12.4937027854205,-22.9293363601809,-4.76929479333394,11.4623236983335,-0.63545334714243,12.3038634152465,3.64035029600105,-22.9596490065686,-4.48108196258545,9.35973644256592,2.84049320220947,8.60999965667725,21.2100009918213,-122.919998168945,906,0.30269980430603,-0.0776150748133659,-46.146118888855,19.7310161590576,13.2488739043181,0.416232283271099,1.26104089094727,-0.268131881952286,-0.344013073376414,-39.0887298822403,2.5112202167511,-1.54418208907305,0.182060942022088,0.569680492349031,-0.06593406945467,-0.203770280340361,7.17420864325395,7.13565483476132,-0.371043216269677,21.1522525255696,-0.825402969425836,-51.6572013748676,-4.52976932492235,6.3614396007909,-0.190237265794183,11.8891376390356,9.86869130687978,-55.8517274767785,-2.44777539445119,9.94148641709677,0.0192807986159093,-13.2762040212861,-7.59807127710229,16.7466193871605,44.4813106110536,-0.00443538146039297,0.0157733450596104
63.85,-2.13389205932617,-2.5112202167511,-4.68315036046268,-0.0105285725847796,0.319372093432616,0.364835172891617,0.384327689648145,-16.6952050018311,6.81616878509521,3.62180862876681,-0.142569916602597,-1.9114812633328,-1.75384616851807,-1.77313604764685,1.1786672629696,11.9386672629696,1.39394124847003,17.5538073302251,12.4571365138481,-22.7221274879374,-4.56196403351848,11.4104910083796,-0.768737407023802,12.1088433001938,4.07000398697665,-21.6828766908326,-4.48108196258545,9.35973644256592,2.84049320220947,8.60999965667725,21.2100009918213,-122.919998168945,906,0.30269980430603,-0.0776150748133659,-46.146118888855,19.7310161590576,14.7310353781743,0.441201299659338,1.48403608515023,-0.268131881952286,-0.339049827738415,-39.0887298822403,2.5112202167511,0.136873430325855,0.198855297608259,0.669463271822363,-0.06593406945467,-0.196055109174493,7.18654975990963,7.32817625458997,-0.432748799548088,22.3589394874585,-2.12350561024573,-54.9237883020013,-3.9719508520855,7.27468223331137,-0.0149934092835017,11.9622701821804,9.37504664065249,-55.8151612052061,-2.3496454415848,9.69497926867555,0.0547494588762826,-12.282744224659,-6.78602581057393,16.4874556549255,63.4866302608041,-0.0174413685950912,0.0620259446946985
63.855,-2.13389205932617,-2.5112202167511,-4.57666956036779,-0.00812637814165178,0.302256495829135,0.364835172891617,0.390890915526515,-16.6952050018311,6.81616878509521,4.22434386573524,-0.14211859312722,-1.90542124909142,-1.75384616851807,-1.7710937514902,1.3193492844365,12.0793492844365,1.32977050183601,17.3039497222484,12.4205719858515,-22.5149284959567,-4.35464315977779,11.3586607899444,-0.902015111571402,11.9138324842119,4.49963719093667,-20.4061652549515,-4.48108196258545,9.35973644256592,2.84049320220947,8.60999965667725,21.2100009918213,-122.919998168945,906,0.30269980430603,-0.0776150748133659,-46.146118888855,19.7310161590576,16.2131261786816,0.466169125459345,1.70702064635709,-0.268131881952286,-0.333676443137619,-39.0887298822403,2.5112202167511,1.81784879258574,0.21564885239548,0.769241293390894,-0.06593406945467,-0.188177243814997,7.19889028810849,7.52068849449205,-0.494451440542345,23.5655689113461,-3.4215463541249,-58.1902194696972,-3.41415897749741,8.18788132002637,0.160242091140182,12.0353992381736,8.88142551269843,-55.7785966772095,-2.25152016781209,9.44848387436211,0.0902164278978489,-11.2893317988022,-5.97401906450458,16.2283042802973,82.4910436870351,-0.0304467355701892,0.108276338884448
63.86,-2.13389205932617,-2.5112202167511,-4.47018368274678,-0.00572406915012651,0.285140082070125,0.364835172891617,0.398169267364829,-16.6952050018311,6.81616878509521,4.82690783453511,-0.14166724813053,-1.89936094587888,-1.75384616851807,-1.76832073326824,1.46003801431127,12.2200380143113,1.26559669522646,17.054080199837,12.3840057142791,-22.3077196237131,-4.14731239996233,11.3068280999906,-1.03529917145277,11.7188123691592,4.92929088191227,-19.1293929392155,-4.48108196258545,9.35973644256592,2.84049320220947,8.60999965667725,21.2100009918213,-122.919998168945,906,0.30269980430603,-0.0776150748133659,-46.146118888855,19.7310161590576,17.6952876525378,0.491138141847584,1.93001584056005,-0.268131881952286,-0.328038320195128,-39.0887298822403,2.5112202167511,3.49890431198464,0.232443207981651,0.869024072864226,-0.06593406945467,-0.180335895492185,7.21123140476417,7.7132099143207,-0.556157023820755,24.7722558732351,-4.7196489949448,-61.4568063968309,-2.85634050466057,9.10112395254684,0.335485947650863,12.1085317813184,8.38778084647115,-55.7420304056371,-2.1533902149457,9.20197672594089,0.125685088158222,-10.295872002175,-5.16197359797623,15.9691405480622,101.496363336786,-0.0434527227048874,0.154528938519536
63.865,-2.14523770605987,-2.45801491169456,-4.27874540780565,-0.00280597638054998,0.269440244228652,0.364835172891617,0.406028211814451,-16.6692722162444,6.81616878509521,5.37671752978753,-0.140868257998639,-1.88653203887982,-1.75580189445808,-1.76674858779234,1.52069805512119,12.3474372068022,1.21110144644256,16.7923182173573,12.0687301518354,-22.1550008928658,-3.97404588545739,11.2900217455043,-1.22121017396403,11.4740501838821,5.55315809032907,-17.8322238872962,-4.44271996838679,9.51265154905949,2.80355204814831,8.67228954289461,21.7783960267564,-124.251444380762,902.66304241595,0.303061067474754,-0.0769689684683505,-46.0618372649789,20.1566585287906,18.9726378965497,0.515003680733425,2.12692502888133,-0.230321177130345,-0.284475732922497,-39.053072478857,3.1496838243901,4.80142536929831,0.249313607494805,0.977881858985415,-0.0470287170436996,-0.153801677437684,7.2682004984363,7.9782874804535,-0.5681135164191,25.759629074605,-6.0447904902557,-63.6065813255919,-2.18711102423766,10.178613663018,0.537862343627815,11.8968329810133,8.94703315186438,-54.5698570932152,-2.05365234225161,9.02416476796063,0.0102256496857045,-9.55106893834236,-4.48118357290459,16.2314106514903,121.748069781079,-0.0573951413506712,0.184026989849551
63.87,-2.18443719589496,-2.27418926793083,-3.87872935514755,0.00137877407757863,0.257215315433207,0.364835172891617,0.41430380861099,-16.5796738011992,6.81616878509521,5.79711344902097,-0.139215716112259,-1.85708504391867,-1.76255897591014,-1.76921991540503,1.38490886434714,12.4422334343237,1.18035672400315,16.5013187868609,11.069210368826,-22.1360226691377,-3.88437377834245,11.359197370993,-1.53634357896795,11.1071378584735,6.65389506655472,-16.4847700026062,-4.31017833044046,10.0409770207866,2.67591944798839,8.88750263906439,23.7422149184628,-128.851623944886,891.133771501173,0.304309240650121,-0.0747366550799381,-45.7706421717449,21.6272634345633,19.7474156882275,0.536164268593839,2.25982916539787,-0.0996842576038643,-0.148127201957127,-38.9298752690126,5.355591366302,5.17491191285998,0.266373463508039,1.10903544936457,0.0182897427195408,-0.0812169402906904,7.43473441164975,8.42152389562159,-0.457944927677894,26.2087803695016,-7.43652689697777,-63.0150933527351,-1.24427286942922,11.659484460516,0.806878664972618,10.985878242068,12.0910922161411,-50.6097344086333,-1.94995082026177,9.01496058935482,-0.475760157593614,-9.4165606310677,-4.12249512001115,17.773771011149,145.062817630962,-0.0736386651637257,0.172399830925435
63.875,-2.2236348165955,-2.09037238945624,-3.47873237630467,0.00556332499582272,0.24499096955445,0.364835172891617,0.422806661775834,-16.4900796584416,6.81616878509521,6.21748932267367,-0.137563253023413,-1.82763945306753,-1.76931573516683,-1.77095184694016,1.24912614835808,12.5370251417123,1.1496134675528,16.210333231981,10.0697382455429,-22.1170453503412,-3.79470594702892,11.4283696980063,-1.85146195758406,10.7402430284076,7.7545795567525,-15.1373803680538,-4.17764301242728,10.5692773005686,2.54829293368581,9.10270547330892,25.7059401701306,-133.451584160375,879.605050332291,0.305557354309314,-0.0725044481340866,-45.4794609634572,23.0977982180346,20.5221565364668,0.557323847461888,2.39272696469639,0.0309464328114433,-0.0119794929341994,-38.8066839335345,7.561393724753,5.54838064760305,0.283432506062566,1.24018278599632,0.0836050879271946,-0.0091205829165735,7.60126038408915,8.86473917611415,-0.347781592064131,26.6579102476858,-8.82819694205543,-62.423633583577,-0.301479671618428,13.140284646208,1.0758821589132,10.0749669398353,15.2350013634301,-46.6498005530941,-1.84625424303266,9.00575684962839,-0.961722791794195,-9.28205873750214,-3.7638237703245,19.3160578270178,168.376453772478,-0.0898814144429344,0.160773226414771
63.88,-2.26283430643059,-1.90654674569251,-3.07871632364657,0.00974807545395134,0.232766040759004,0.364835172891617,0.431326980420252,-16.4004812433964,6.81616878509521,6.6378852419071,-0.135910711137034,-1.79819245810638,-1.77607281661889,-1.77198570101626,1.11333695758403,12.6318213692338,1.11886874511339,15.9193338014846,9.07021846253344,-22.0980671266132,-3.70503383991398,11.4975453234949,-2.16659536258797,10.3733307029991,8.85531653297814,-13.7899264833638,-4.04510137448095,11.0976027722956,2.42066033352589,9.3179185694787,27.669759061837,-138.051763724498,868.075779417514,0.306805527484681,-0.0702721347456741,-45.1882658702233,24.5684031238073,21.2969343281446,0.578484435322302,2.52563110121293,0.161583352337924,0.123828273056774,-38.6834867236901,9.76730126666489,5.92186719116471,0.3004923620758,1.37133637637548,0.148923547690435,0.0623989772406858,7.76779429730259,9.30797559128224,-0.237613003322926,27.1070615425825,-10.2199333487775,-61.8321456107202,0.641358483190018,14.621155443706,1.344898480258,9.16401220088999,18.3790604277068,-42.6896778685122,-1.74255272104282,8.99655267102258,-1.44770859907351,-9.14755043022748,-3.40513531743105,20.8584181866765,191.691201622361,-0.106124938255989,0.149146067490656
63.885,-2.30358784225218,-2.40270890770538,-2.86082512290159,0.0135630985015934,0.219837033507552,0.370058329543414,0.444863738682172,-16.3287964012312,6.63347472049084,6.88881972153954,-0.132478087103524,-1.76812828347957,-1.78693528044344,-1.77648840366361,0.972284115557489,12.6390742196096,0.995602150199638,15.8298084636458,8.12042848754471,-21.6746125165959,-3.58634277451194,11.533209895948,-2.44572506365724,10.1963495040733,10.4005843153099,-12.8707516733671,-4.07759452962646,11.1976300248227,2.34395549634676,8.93310316582334,29.7097583391932,-144.828963035662,851.918235830373,0.308134687443965,-0.0673667427602906,-44.9353474813807,24.8010690017609,21.8457038399903,0.601326435057319,2.62856930921355,0.335775070835118,0.302699112936158,-38.5485134941177,12.3999760440885,6.57558755107139,0.317467961460855,1.49565058519364,0.200203472450537,0.119233207304583,7.987129294898,9.52992298261606,-0.157268554902405,27.3470889602207,-11.9029278248731,-60.7199190745029,0.992531514256102,15.2100163465468,1.43276256640784,7.7153088981178,22.2503183346393,-39.1150009838199,-1.61528194565231,9.17243321075108,-1.61383703313828,-9.00261552854499,-3.17608792959233,21.118775411177,239.526138757034,-0.122403687874631,0.137269822561334
63.89,-2.34681580763277,-3.97944134259635,-2.93230566015326,0.0167910911199361,0.205787640723443,0.383581791432485,0.466262251146449,-16.2855675975469,6.16045497692506,6.87050886109486,-0.126216466781157,-1.73707969111804,-1.80432258858653,-1.78696113748597,0.822849852776281,12.507220458332,0.725301939580665,16.0604168938638,7.24954253342758,-20.6083876568824,-3.42152557291501,11.5156293944443,-2.6676788951411,10.3211493604265,12.652407810379,-12.6320041220827,-4.37233401996213,10.6170984684522,2.34816603354894,7.59478756011206,31.8710610416081,-155.066310292934,828.404315069211,0.309592700496552,-0.0633914618843391,-44.7432200238755,23.0666632054943,22.0354111542798,0.626843039019219,2.68390399527335,0.579197407760773,0.550172772488926,-38.3948113604528,15.711114249049,7.6746836110443,0.334311771776538,1.60911227970777,0.229182322630314,0.153079420372765,8.29039294583635,9.40026678402648,-0.124305114583011,27.2548455881335,-14.0489427460776,-58.7800952203168,0.403584713883064,14.3815352131862,1.23278436180357,5.41193763629401,27.2775821133901,-36.1523609156084,-1.45054362318828,9.64243736655623,-1.27172866199187,-8.84109474642732,-3.15301351717724,19.342045969579,326.329864931418,-0.138740421455413,0.124996310691525
63.895,-2.39004171179052,-5.55609859474677,-3.00378278902533,0.020018929819119,0.191738917851254,0.397104608487402,0.486989320677933,-16.2423408551255,5.68745778818206,6.85219887376005,-0.119955145029281,-1.70603257923487,-1.82170906765714,-1.79697786917545,0.673422715412906,12.3753729841878,0.455014617585125,16.2910143280665,6.37869810543834,-19.5422136375685,-3.2567162302348,11.498049731225,-2.88962214328378,10.445943265995,14.9041239325942,-12.3932679549081,-4.66705945634538,10.0365945933499,2.35237636998165,6.25653576880121,34.0322606874379,-165.303169406621,804.891515513502,0.31105064402725,-0.0594163705602128,-44.5511017275116,21.3323401102481,22.2251094228266,0.652358426282476,2.7392360428301,0.822608137670554,0.796883934679083,-38.2411165557089,19.02209457025,8.77372726323255,0.35115477893514,1.72256856407053,0.258159791022461,0.186222226559281,8.59364213636793,9.27061676778473,-0.0913432460469629,27.1626066144524,-16.1948553396585,-56.840363862023,-0.18533400396087,13.5530935839804,1.03281569268493,3.10867620525706,32.3046061790102,-33.1898621138507,-1.28581315587982,10.1124191113297,-0.929636603470442,-8.67958166604445,-3.12994020501069,17.5654012471037,413.129452076326,-0.155076376057864,0.112723384054974
63.9,-2.43326967717111,-7.13283102963774,-3.07526332627701,0.0232469224374617,0.177689525067144,0.410628070376474,0.506821049055115,-16.1991120514413,5.21443804461628,6.83388801331536,-0.113693524706914,-1.67498398687333,-1.83909637580023,-1.80665536236891,0.523988452631699,12.2435192229103,0.184714406966153,16.5216227582844,5.50781215132121,-18.475988777855,-3.09189902863787,11.4804692297214,-3.11157597476765,10.5707431223483,17.1559474276634,-12.1545204036236,-4.96179894668105,9.45606303697945,2.35658690718383,4.91822016308993,36.1935633898528,-175.540516663893,781.377594752339,0.312508657079838,-0.0554410896842613,-44.3589742700063,19.5979343139815,22.4148167371161,0.677875030244376,2.79457072888991,1.06603047459621,1.04274912313153,-38.087414422044,22.3332327752105,9.87282332320546,0.367998589250823,1.83603025858466,0.287138641202239,0.218672176742853,8.89690578730628,9.14096056919514,-0.058379805727569,27.0703632423653,-18.340870260863,-54.9005400078369,-0.774280804333908,12.7246124506198,0.832837488080657,0.805304943433259,37.3318699577611,-30.2272220456391,-1.1210748334158,10.5824232671349,-0.587528232324034,-8.51806088392679,-3.1068657925956,15.7886718055058,499.93317825071,-0.171413109638646,0.100449872185166
63.905,-2.47649558132887,-8.70948828178816,-3.14674045514907,0.0264747611366446,0.163640802194955,0.424150887431391,0.525545443276526,-16.1558853090199,4.74144085587328,6.81557802598055,-0.107432202955038,-1.64393687499017,-1.85648285487084,-1.81611964536069,0.374561315268324,12.1116717487661,-0.0855729150293871,16.7522201924872,4.63696772333198,-17.4098147585411,-2.92708968595766,11.4628895665021,-3.33351922291032,10.6955370279168,19.4076635498785,-11.915784236449,-5.25652438306429,8.87555916187715,2.36079724361654,3.57996837177908,38.3547630356826,-185.77737577758,757.86479519663,0.313966600610536,-0.0514659983601349,-44.1668559736425,17.8636112187352,22.6045150056629,0.703390417507632,2.84990277644666,1.30944120450599,1.2876580406655,-37.9337196173002,25.6442130964114,10.9718669753937,0.384841596409425,1.94948654294742,0.316116109594386,0.25045456980403,9.20015497783785,9.01131055295339,-0.0254179371915206,26.9781242686842,-20.4867828544439,-52.9608086495432,-1.36319952217784,11.896170821414,0.632868818962016,-1.49795648760369,42.3588940233811,-27.2647232438814,-0.956344366107335,11.0524050119084,-0.245436173802608,-8.35654780354391,-3.08379248042906,14.0120270830305,586.732765395618,-0.187749064241096,0.088176945548615
63.91,-2.59988249117177,-10.665143741394,-4.03727213472252,0.0273120855901422,0.128470784746295,0.414248047800584,0.519548367248223,-16.1358600113233,3.39131899051485,6.35684979987621,-0.0989324175938534,-1.61969470448398,-1.86280511999933,-1.81444437759585,0.170692931269061,11.910692931269,-0.00783474438110114,18.6632267388799,3.96595259917762,-14.709527372911,-2.76995311498632,11.1250307507224,-3.44684588659898,10.6065823077887,20.8505551120655,-11.8424867865658,-5.77169377149646,9.03450476708968,2.30910656710351,0.111783592888147,36.3445252277313,-192.232333552927,722.276441686062,0.314059077565177,-0.0484746468613047,-43.9759290629929,18.5681660618996,22.4162855429277,0.724993899336419,2.96754201132542,1.49495758376451,1.47366334631384,-37.7404952040037,24.0678127243805,12.5691844771264,0.390135335667914,2.08678575167963,0.44733164545507,0.38385431973283,8.77710223631397,8.72990622997269,-0.150046885013647,27.3789378476868,-18.0639076730156,-53.7147526429298,-2.11811605446306,11.1018839455369,0.282764416860636,-2.04682532643017,43.0149030686316,-25.987182236636,-1.18315868578948,10.6350874945585,-0.241117362178397,-7.44036103207947,-2.56966443730701,12.6165720765963,603.167448083561,-0.187368081133923,0.0847752247384299
63.915,-2.73902926404959,-12.695232933704,-5.08885320114837,0.0276791709606538,0.0891484173753715,0.39973817046615,0.507487386587274,-16.1203993587202,1.8687521243902,5.81152169127188,-0.0899928328445995,-1.59679238419731,-1.86695079923774,-1.81066012077422,-0.0438718926029497,11.696128107397,0.13835227847675,20.9046446520727,3.33428027818692,-11.6879795886328,-2.61433467129894,10.724195365467,-3.53880223968698,10.4755903518229,22.1342762805305,-11.8017337335987,-6.33019298208694,9.33888394793929,2.24642364517265,-3.77514074796625,33.5139202491451,-197.943059153037,684.314972847168,0.313882975018269,-0.0456769582742746,-43.7852473810718,19.7523846824595,22.1537320482231,0.745826714031714,3.09742976177989,1.66907611177772,1.64722188244242,-37.539506720164,21.530201233993,14.2644165375968,0.39315714224789,2.22876680127306,0.598648944683982,0.536794955103852,8.21121698654165,8.41866934259791,-0.305665328701042,27.8767072803569,-14.7425338561935,-54.9984738113947,-2.90563969372954,10.3143603062704,-0.0968502715282997,-2.25059059126589,42.8111378037959,-25.0411292213273,-1.48697318044662,10.0432705056524,-0.303235566295488,-6.37578943742605,-1.95897995883202,11.2961730705159,605.761088811684,-0.183699057895397,0.0831185794320561
63.92,-2.8781826721271,-14.7254189306104,-6.14048441211031,0.0280462738355939,0.0498241749213636,0.385227601229692,0.493841509971914,-16.1049379688776,0.346112654819545,5.2661675787522,-0.0810528218121568,-1.57388897181582,-1.87109667616244,-1.807088860916,-0.258446947976743,11.4815530520232,0.284546272247902,23.1461694470506,2.7025778359659,-8.66628772215622,-2.45870880696192,10.3233408664171,-3.63076297770432,10.344592149519,23.4180586631088,-11.7609787373264,-6.88871882465541,9.64327764307916,2.18373773421304,-7.66225043641212,30.6831802934486,-203.654057068515,646.351693819498,0.31370686407393,-0.0428791362797489,-43.5945566065142,20.9366597723638,21.8911660336817,0.766660522137657,3.22732370591851,1.84320294261522,1.81972703638752,-37.338508652209,18.99246873786,15.9597294350355,0.396179092922404,2.37075462121838,0.749973459462903,0.689253038830529,7.64530475258881,8.10741761392385,-0.46129119303808,28.3745004491117,-11.421001659999,-56.282256193973,-3.69320088598059,9.52679911401941,-0.476483061805003,-2.45436557262751,42.6073628224342,-24.0950310935769,-1.79080216246702,9.45142529601344,-0.365356732512818,-5.31116707878453,-1.34826635992984,9.97571110134322,608.354853217301,-0.180029859699872,0.0814618551287196
63.925,-3.01732944500492,-16.7555081229204,-7.19206547853615,0.0284133592061055,0.0105018075504405,0.370717723895258,0.478523098225088,-16.0894773162745,-1.17645421130511,4.72083947014787,-0.0721132370629029,-1.55098665152915,-1.87524235540085,-1.80387399492579,-0.473011771848754,11.2669882281513,0.430733295105753,25.3875873602434,2.0709055149752,-5.64473993787808,-2.30309036327454,9.92250548116166,-3.72271933079232,10.2136001935532,24.7017798315737,-11.7202256843592,-7.44721803524588,9.94765682392878,2.12105481228217,-11.5491747772665,27.8525753148624,-209.364782668625,608.390224980605,0.313530761527023,-0.0400814476927187,-43.4038749245931,22.1208783929238,21.6286125389771,0.787493336832952,3.35721145637298,2.01732147062843,1.99117770326426,-37.1375201683694,16.4548572474726,17.6549614955059,0.39920089950238,2.51273567081181,0.901290758691815,0.841293473621604,7.07941950281649,7.79618072654908,-0.616909636725474,28.8722698817818,-8.09962784317691,-57.5659773624379,-4.48072452524708,8.73927547475294,-0.856097750193938,-2.65813083746322,42.4035975575985,-23.1489780782683,-2.09461665712416,8.85960830710737,-0.427474936629908,-4.24659548413111,-0.73758188145484,8.65531209526277,610.948493945424,-0.176360836461346,0.0798052098223458
63.93,-3.25650850225424,-18.5196615816863,-8.8554249601246,0.026933513239552,-0.0386575226446112,0.354745309376464,0.460021616348722,-16.0939603174491,-2.14664902114812,3.80876874171934,-0.0647684827376805,-1.52942753707775,-1.85097772093436,-1.77274414525624,-0.591152455459866,11.016039708106,0.473603970810603,27.097879945556,2.46660758012194,-1.83889663993973,-2.52365130497667,9.68293866280981,-3.76491880875682,9.77589561160663,25.3092628710055,-11.3859041255881,-7.67364311218262,10.0710573196411,2.09564208984375,-13.125,26.7049999237061,-211.68000793457,593,0.313459366559982,-0.0389472171664238,-43.1473866182618,22.8362611881352,21.5037523136435,0.803713643180623,3.60372268879321,2.16718958171975,2.13737628013253,-36.8804362504567,16.7201075097778,18.8020660695437,0.397169328840469,2.69321284808423,1.04047346461118,0.980873489972319,6.72047136940374,7.68803563210835,-0.69967523502729,29.3777042442482,-7.36844356463928,-59.4588281222734,-4.52290710669911,8.50853855762278,-0.896867398593115,-1.57480088727214,38.1349397081872,-23.3524504277687,-2.10705015842876,8.78853155118177,-0.47111505636778,-4.36016799649515,-0.558863334868616,8.30937397891456,617.902570508185,-0.171185717363814,0.0782911260716701
63.935,-3.56387002162621,-20.1023595665108,-10.9357593195182,0.0241945549729374,-0.0945197155983274,0.337777023267702,0.438800261601096,-16.1120404686971,-2.74016079832742,2.64672738915153,-0.058511666906399,-1.50878594428842,-1.80734498522611,-1.72287169458523,-0.643542041943332,10.7403050424035,0.446030504240352,28.4459160889902,3.56273797958107,2.50137124611739,-3.00067227664192,9.55334336992966,-3.7731908487279,9.12911059329224,25.455640533045,-10.8514554525599,-7.67364311218262,10.0710573196411,2.09564208984375,-13.125,26.7049999237061,-211.68000793457,593,0.313459366559982,-0.0389472171664238,-42.8460521665872,23.2319360787829,21.4727808642858,0.816787857605452,3.92972761266818,2.30051182971716,2.2661008919823,-36.5851272887132,18.8963173046517,19.5753673561537,0.391692547132861,2.89992207029245,1.17137168817098,1.111930290071,6.5026409834988,7.71836644533561,-0.732763394911586,29.888323995549,-8.40329959394232,-61.7668293981532,-4.05691552166197,8.6574352771021,-0.706610479258423,0.385978957723083,31.0951954035863,-24.339648613617,-1.92082017625423,9.07249926498801,-0.502153386730201,-5.27698570736358,-0.674671899065465,8.62784744417179,627.829018473473,-0.16498416267092,0.0768743616818841
63.94,-3.87124619750094,-21.6851330221275,-13.016192879444,0.0214554660993767,-0.150384572335027,0.320807928027944,0.415895277450579,-16.1301214820953,-3.3337008770554,1.48463062476012,-0.0522545527194915,-1.48814336720683,-1.7637101688953,-1.67374097354353,-0.695934126618895,10.4645572283216,0.418455722832154,29.7940165133906,4.6589206479067,6.84184609740679,-3.47771599500364,9.42374189731117,-3.78146328315036,8.48229473310009,25.6020251750885,-10.3169812944011,-7.67364311218262,10.0710573196411,2.09564208984375,-13.125,26.7049999237061,-211.68000793457,593,0.313459366559982,-0.0389472171664238,-42.54470334581,23.6276298371475,21.4418079380576,0.829862695472865,4.25574808205476,2.4338404351724,2.39400568910458,-36.2898042451919,21.0726308718681,20.3487055175569,0.386215504265474,3.10664114940889,1.30227615359925,1.24284156951559,6.28480021037408,7.74869870488461,-0.765853132601417,30.3989680957007,-9.43820497024976,-64.0749407308389,-3.59090171586353,8.80633909670632,-0.516344487541903,2.34685230230559,24.0551154094949,-25.3268938739103,-1.73458131372196,9.35648051976578,-0.533193197152246,-6.19384713659123,-0.790485985581907,8.94633609580379,637.755939780422,-0.158782312257521,0.0754575297338324
63.945,-4.17860771687291,-23.267831006952,-15.0965272388377,0.0187165078327622,-0.206246765288744,0.303839641919182,0.391393643969901,-16.1482016333433,-3.92721265423471,0.322589272192305,-0.04599773688821,-1.4675017744175,-1.72007743318706,-1.62545961504432,-0.74832371310236,10.1888225626192,0.390882256261902,31.1420526568248,5.75505104736582,11.1821139834639,-3.95473696666889,9.29414660443103,-3.78973532312145,7.8355097147857,25.7484028371281,-9.78253262137292,-7.67364311218262,10.0710573196411,2.09564208984375,-13.125,26.7049999237061,-211.68000793457,593,0.313459366559982,-0.0389472171664238,-42.2433688941355,24.0233047277952,21.4108364886999,0.842936909897694,4.58175300592973,2.56716268316982,2.52120674078795,-35.9944952834484,23.248840666742,21.122006804167,0.380738722557866,3.31335037161711,1.43317437715905,1.37367929934817,6.06696982446914,7.77902951811187,-0.798941292485713,30.9095878470016,-10.4730609995528,-66.3829420067187,-3.12491013082639,8.95523581618563,-0.326087568207212,4.30763214730082,17.015371104894,-26.3140920597586,-1.54835133154743,9.64044823357202,-0.564231527514668,-7.11066484745967,-0.906294549778755,9.26480956106102,647.68238774571,-0.152580757564627,0.0740407653440464
63.95,-4.36223328535893,-23.6642272274159,-16.7714439254955,0.0163899226300341,-0.219852461566661,0.269405249742738,0.347956307896078,-16.2067098750596,-5.50210060693837,-0.845042535952669,-0.0407267982330605,-1.42617399350383,-1.66148949385071,-1.56315639084593,-0.959623998575753,10.175181057504,0.25266013886415,29.4063409798737,7.24473017317359,12.7517971238107,-4.22058500979172,9.41288303364787,-3.61410859889622,7.27045279211918,28.3291383960068,-10.3514393035252,-7.73423571558595,10.0070021996915,1.74074215760366,-17.0970134993858,23.2642750459059,-210.16204031302,566.254869147232,0.311992626823054,-0.0372340508782929,-42.081002867673,23.1715773580591,21.638926390935,0.84899442782987,4.9716110239915,2.64132967710028,2.58870844904484,-35.8112562745666,22.9727170492929,21.2660230063707,0.392616248012105,3.49596371816559,1.57292851765045,1.5133853997535,5.83591917393627,7.77518105750398,-0.932520918639857,30.3458680328896,-10.2206058767806,-66.5400804875851,-2.73171301406446,9.22986077977566,-0.0477297489763162,3.69512348975883,18.6344100910596,-24.4181020139479,-1.43736531737862,9.53065720983135,-0.708338761962095,-7.35926182818026,-0.960598917263819,9.32559852392962,668.480505607976,-0.147999932601165,0.0721813307708643
63.955,-4.54176001888051,-24.0213936128911,-18.4328780164638,0.0140770820167879,-0.232060802297279,0.234395254257135,0.302641328301835,-16.2665514865835,-7.10934797670641,-2.01280160698539,-0.0354887049807896,-1.38416451688795,-1.6024101327275,-1.50136162627908,-1.17616628093288,10.1702030740016,0.110787609043963,27.568789045014,8.74734371187993,14.2298280279369,-4.47944015191978,9.53982161296067,-3.43241220105633,6.70812502610023,30.9902085892986,-10.9567866800593,-7.79682807487717,9.9408330493805,1.37412935631274,-21.2001165532067,19.7099948916108,-208.593974750164,538.627060708563,0.310477479834081,-0.0354643444486396,-41.9232381012147,22.2786621064774,21.8755676983725,0.854819727602128,5.36356034633292,2.71353778513976,2.65388182147348,-35.63173049052,22.6155511385552,21.3892326321576,0.405066792656538,3.67777163907423,1.71296848475731,1.65346291435441,5.60444294107175,7.77020307400153,-1.06941546495759,29.7466663150005,-9.92561426181985,-66.6261197086153,-2.34094130912114,9.50862785591358,0.233526318912829,2.99759123354954,20.5395642710144,-22.4269086129628,-1.32887177592279,9.40785686034957,-0.856176114502551,-7.5857601582477,-1.01286773869888,9.37786736020023,689.636935493442,-0.143472902547973,0.0703073564085838
63.96,-4.72129531311611,-24.378577029809,-20.0943913327476,0.0117641311159726,-0.244269725181382,0.199383589323462,0.256226045035219,-16.3263959516485,-8.71667198790166,-3.18061636249052,-0.0302503619505753,-1.34215303705445,-1.54332795441098,-1.44060940878047,-1.3927188890867,10.1652248531245,-0.0310916859533645,25.7311494866774,10.2500289025599,15.7079294118164,-4.73830763752893,9.6667662453267,-3.2507071390422,6.145770445539,33.6514056754517,-11.5621629225213,-7.85942341887868,9.87466074380031,1.00749907312772,-25.303415263079,16.1555452518283,-207.025834414262,510.997934840662,0.308962260595479,-0.0336945536307154,-41.7654658117595,21.3857042763228,22.1122202900268,0.860645305153212,5.75552835873788,2.78574933641552,2.71888121391059,-35.4521961458047,22.2583681963974,21.512448133183,0.417517931003926,3.85958822947508,1.85301512965575,1.79369755158465,5.37295567028663,7.76522485312443,-1.20631653907782,29.1474360242386,-9.63060858021397,-66.712163032417,-1.95015097026885,9.78740822503114,0.514795798468937,2.30002571558562,22.4448092980524,-20.4356202621231,-1.22037306096347,9.28505065514563,-1.00402051665211,-7.81226928886494,-1.06513905256737,9.43013868890497,710.794374221114,-0.138945656623814,0.0684332926860266
63.965,-4.90083060735171,-24.735760446727,-21.7559046490314,0.0094511802151572,-0.256478648065484,0.164371924389789,0.2089465738154,-16.3862404167135,-10.3239959990969,-4.34843111799566,-0.025012018920361,-1.30014155722095,-1.48424577609445,-1.38092603051173,-1.60927149724052,10.1602466322474,-0.172970980950692,23.8935099283407,11.7527140932399,17.1860307956959,-4.99717512313808,9.79371087769273,-3.06900207702807,5.58341586497778,36.3126027616048,-12.1675391649834,-7.92201876288019,9.80848843822012,0.640868789942694,-29.4067139729513,12.6010956120458,-205.457694078359,483.368808972761,0.307447041356877,-0.0319247628127911,-41.6076935223043,20.4927464461682,22.348872881681,0.866470882704296,6.14749637114284,2.85796088769127,2.78390797542009,-35.2726618010894,21.9011852542397,21.6356636342084,0.429969069351313,4.04140481987593,1.99306177455419,1.93413791286242,5.14146839950151,7.76024663224733,-1.34321761319805,28.5482057334767,-9.33560289860809,-66.7982063562188,-1.55936063141655,10.0661885941487,0.796065278025045,1.60246019762171,24.3500543250904,-18.4443319112834,-1.11187434600416,9.16224444994169,-1.15186491880167,-8.03877841948218,-1.11741036643586,9.48241001760972,731.951812948786,-0.134418410699655,0.0665592289634695
63.97,-5.13896583729476,-24.2284415679262,-22.542025611872,0.0118634746923477,-0.21594864759857,0.124040304468023,0.155742736957664,-16.5171533415637,-11.8036646933168,-5.66445870109178,-0.020011885273891,-1.22206237449176,-1.47703015002832,-1.37417919501036,-1.41267480848772,10.0990220024964,-0.204391199001442,22.62807807277,13.5526119787441,18.6083033521786,-4.99536528059912,9.52925769108398,-2.79657505078441,5.5947019243233,40.0639779258933,-13.9169598308425,-7.81646350727881,9.07090342532941,1.68064427626413,-38.4030285947324,10.4615086245961,-194.98203555752,437.364105827357,0.307033130124136,-0.0290409004862187,-41.4026235044133,20.2735026147695,22.203630444887,0.866701013223914,6.54341024916901,3.00306096299051,2.92206306132981,-35.0078710750895,23.2835276275133,22.0212321277362,0.44184760825031,4.15928571098613,2.12865686618522,2.07037726697538,5.17878239800288,7.91122543380894,-1.32560880099857,27.8861540999626,-9.72750763767841,-66.254419973054,-1.88635502582052,10.0604870407988,0.756339362196819,0.664523493773678,27.4436585438813,-16.728632856324,-1.10299404015108,9.24495463209176,-0.934866655653784,-7.29021428136061,-0.710227859799518,9.72403352784995,755.195991091314,-0.131055355372897,0.064689854876262
63.975,-5.38016766709884,-23.6760331243988,-23.2825542340412,0.0145222041606192,-0.17266747959392,0.0834293465544578,0.101933720353269,-16.6517774365243,-13.2767533049738,-6.98827823459178,-0.0150239179637679,-1.14209916494683,-1.47251782178289,-1.37118479375284,-1.19453192687045,10.0348623314325,-0.230055067426995,21.3924103337615,15.3680930414412,20.0277370626294,-4.97996695954379,9.24438875156025,-2.51940527178836,5.63589084895692,43.8723692650938,-15.7261041359037,-7.70213773049325,8.29828252101243,2.79378396938888,-47.6548539453463,8.39556716738849,-184.041527194585,390.399226608581,0.306676606263804,-0.0260988200099467,-41.1950776983494,20.0893666300936,22.0384735902226,0.866639480120456,6.93954967747908,3.15196779508966,3.06447933942457,-34.7386228851683,24.7566159944206,22.4204957009201,0.453696895077865,4.27383972518122,2.26402671354808,2.20667589739101,5.230110134854,8.07034141804742,-1.29994493257301,27.2207945481888,-10.1552387781044,-65.6777750281833,-2.25078195746347,10.0399559460584,0.699878851660578,-0.28599015161747,30.5993638465799,-15.0272134310739,-1.09930612074973,9.33838196438447,-0.698839267104169,-6.49078471626945,-0.279074868414469,9.9755395656903,778.550111358575,-0.127752817353753,0.062820631459185
63.98,-5.62135799576665,-23.1236510211557,-24.0230475458621,0.0171808068536919,-0.129388375348949,0.0428203250779473,0.0480908847355713,-16.7863951122548,-14.7497716758998,-8.31203464490213,-0.0100361884930167,-1.06213976825759,-1.46800570869712,-1.36919780557055,-0.976399446878276,9.97070571967011,-0.255717712131947,20.1568015146337,17.1834875372366,21.4471030907557,-4.96456937272081,8.95953339533518,-2.24224870897478,5.67707780959451,47.6805790102004,-17.5351621762164,-7.58781740506078,7.52569845728787,3.90687058509168,-56.9062381446465,6.32972421969152,-173.101540503801,343.436586798502,0.306320099403465,-0.0231568798197932,-40.9875417886142,19.9052394255046,21.8733246106704,0.866577949951056,7.33567021682155,3.30086752692025,3.20755425012185,-34.4693875337074,26.2296341206085,22.819740236169,0.465545616900326,4.38838827714028,2.39939010612135,2.34327585353937,5.28143542426392,8.22944981521818,-1.27428228786804,26.5554667225046,-10.5829495231871,-65.101157579257,-2.61519151227391,10.0194258302944,0.643421033309656,-1.23645847402343,33.7549186769677,-13.3258751339672,-1.09561837719804,9.43180484181678,-0.462823132959883,-5.69139327007802,0.152057564464411,10.2270336110627,801.903118040089,-0.124450436808289,0.0609514971715863
63.985,-5.87618690799264,-22.670470154636,-24.7291405395432,0.0198283740145548,-0.0844542858003034,0.00123313958915841,-0.00647213286803332,-16.9328235978239,-16.1931937925722,-9.63955318178407,-0.00532440373816034,-0.981424352708909,-1.46033056437969,-1.36499341408544,-0.76557254901959,9.90598762254904,-0.280830147058796,18.9430723493101,18.8335929557008,22.8488828370855,-4.93823958333332,8.67381213235294,-1.95813946078433,5.64960345557976,51.36474476519,-19.3466678770274,-7.45254016118307,6.8154806068189,4.95418748198187,-66.0537008245319,4.6950908732648,-162.207152994006,297.81012254902,0.305983358179676,-0.0204047471930401,-40.7585088780347,19.979192558153,21.7414853095458,0.866174608301233,7.72967568408713,3.47861303733844,3.38034316592015,-34.1834859544389,27.6929101376907,23.2439883459267,0.476729121747967,4.49801238291508,2.54802852051515,2.49347179539798,5.33442745098038,8.38470416666666,-1.24903149509804,25.8938132413459,-11.054954308884,-64.5859601186153,-2.97162205882351,9.99031495098039,0.582943749999975,-2.10625196683611,36.614339748245,-11.675737714839,-1.09226153911767,9.52354947950326,-0.240661762228016,-4.90158652418969,0.575011828067694,10.4495040757399,824.691789215686,-0.121100023812706,0.0592324021213469
63.99,-6.3704981803894,-23.9612249135971,-24.8299973898737,0.0222796385777199,-0.0104724200857958,-0.0575091577775311,-0.0776431429885173,-17.2867059993744,-17.1151616175969,-11.032018006552,-0.00546672242197046,-0.887492846095231,-1.39706963300705,-1.30606953461516,-0.683333333333317,9.83145833333335,-0.296249999999973,18.1149691358025,17.5771604938271,23.940329218107,-4.71979166666666,8.37312499999999,-1.55208333333334,4.41538065843621,52.8654835390946,-21.1995884773663,-6.94904958208402,7.20202359557152,4.84462586045265,-73.3665645917257,10.6407292286555,-152.123854001363,275.708333333333,0.305994310726722,-0.0209910588649412,-40.1518533325195,24.5890307029088,22.1952047226278,0.859764037364946,8.08615822780178,4.16318674882253,4.06101694047645,-33.6049164772034,28.9836653868357,24.1073167753213,0.476211046492685,4.52098865012486,2.92985348900159,2.87717941738842,5.41666666666665,8.47208333333334,-1.23104166666667,25.2973251028807,-12.3050411522634,-65.150720164609,-3.18749999999999,9.81041666666667,0.451874999999977,-1.55735596707819,34.2664609053498,-10.9269547325103,-1.09472357978423,9.58571656545003,-0.262204759754241,-4.28093745311101,0.8538541632394,10.161666850249,837.541666666667,-0.116908373000721,0.0601518789771944
63.995,-6.86483302396887,-25.2520412220674,-24.9308590495529,0.0247310200291861,0.0635129734464466,-0.11625425626469,-0.147993654856678,-17.6406052757712,-18.0371734065636,-12.4245492308634,-0.00560904789223253,-0.793556860367223,-1.33380568504333,-1.24791399113753,-0.601090196078417,9.75692549019609,-0.311670588235268,17.2868264342774,16.3206681190995,25.0318276446381,-4.50133333333334,8.07242352941175,-1.14600784313725,3.18109900750423,54.3662938755749,-23.0525974340354,-6.44553499408797,7.5885850165872,4.73505901448867,-80.6797770720837,16.5866511012059,-142.040074187634,253.605490196078,0.30600526379604,-0.0215773984950547,-39.5451688586964,29.1990886673273,22.6489457712739,0.853353160741238,8.44265777035023,4.84779310413435,4.74294940158155,-33.0263194109412,30.2744821855134,24.9706863724443,0.475692946533038,4.5439660129556,3.31169666477278,3.26122682596869,5.49890980392155,8.55946666666668,-1.21305098039216,24.7008085209393,-13.5551876059066,-65.715507141128,-3.40338823529411,9.63050980392157,0.32079999999998,-1.00843379327039,31.918470104091,-10.1781360445413,-1.09718573785296,9.64788661582797,-0.283748784556108,-3.66025878644457,1.13270979497947,9.87381589926925,850.392156862745,-0.112716522310294,0.0610713996782022
64,-7.35914429636563,-26.5427959810285,-25.0317158998834,0.0271822845923511,0.137494839160954,-0.17499655363138,-0.21726296221515,-17.9944876773217,-18.9591412315883,-13.8170140556314,-0.00575136657604265,-0.699625353753544,-1.27054475367069,-1.19042448466801,-0.518850980392144,9.6823962009804,-0.327090441176445,16.4587232207698,15.0642356572259,26.1232740256596,-4.28288541666668,7.77173639705881,-0.739951715686261,1.94687621036068,55.8670326494795,-24.9055180343743,-5.94204441498892,7.97512800533982,4.62549739295945,-87.9926408392775,22.5322894565966,-131.956775194991,231.503700980392,0.306016216343086,-0.0221637101669558,-38.9385133131813,33.8089268120831,23.1026651843559,0.846942589804952,8.79914031406487,5.53236681561844,5.42622089343506,-32.4477499337056,31.5652374346583,25.8340148018389,0.475174871277756,4.56694228016538,3.69352163325922,3.64556769948503,5.58114901960782,8.64684583333335,-1.19506115196079,24.104320382474,-14.8052744492859,-66.2802671871217,-3.61926617647059,9.45061151960785,0.189731249999982,-0.459537793512466,29.5705912611959,-9.42935306221255,-1.09964777851952,9.71005370177475,-0.305291782082332,-3.0396097153659,1.41155213015117,9.58597867377833,863.242034313726,-0.10852487149831,0.0619908765340498
64.005,-7.77298355102539,-27.623420715332,-25.1594641907819,0.0293140789491252,0.210215404105153,-0.224175825715065,-0.275664311012856,-18.2907593536377,-19.7310161590576,-15.1566378376019,-0.00649856052418316,-0.607019780246346,-1.21758246421814,-1.14377706507075,-0.438459838835445,9.60224590590071,-0.347101637639695,15.6689901061273,13.9630287509587,27.1192319171264,-4.13328892643621,7.5271016376397,-0.399112295295013,0.692750002406867,57.0741398620698,-26.4008976049961,-5.52052021026611,8.29874324798584,4.53377199172974,-94.1149978637695,27.5100002288818,-123.514999389648,213,0.306025385856628,-0.0226545725017786,-38.4306190109253,37.6683006286621,23.8059157378719,0.840963663063515,9.15619726080488,6.10549449920654,5.99953544275412,-31.9633693933487,32.6458625793457,26.7418162704993,0.473311078503586,4.58830488746671,4.01318693161011,3.96804544647819,5.63268975825316,8.71644918118016,-1.18443852352483,23.586307432118,-15.9850075575966,-67.0133702067026,-3.77381271120355,9.31864179880428,0.0777807382375713,-0.0432893035137199,27.239445038141,-8.62876395588034,-1.12956052893845,9.78112852855382,-0.332150851290413,-2.48737683238412,1.64189301742217,9.32635846483822,875.375942292696,-0.104676116384277,0.0627501571625045
