time,hip_angle_l,hip_angle_l_velocity,hip_angle_l_velocity_filt,hip_angle_l_torque_estimated,hip_angle_l_torque_desired,hip_angle_l_torque_measured,hip_angle_l_torque_interaction,knee_angle_l,knee_angle_l_velocity,knee_angle_l_velocity_filt,knee_angle_l_torque_estimated,knee_angle_l_torque_desired,knee_angle_l_torque_measured,knee_angle_l_torque_interaction,thigh_imu_l_accel_x,thigh_imu_l_accel_y,thigh_imu_l_accel_z,thigh_imu_l_gyro_x,thigh_imu_l_gyro_y,thigh_imu_l_gyro_z,shank_imu_l_accel_x,shank_imu_l_accel_y,shank_imu_l_accel_z,shank_imu_l_gyro_x,shank_imu_l_gyro_y,shank_imu_l_gyro_z,foot_imu_l_accel_x,foot_imu_l_accel_y,foot_imu_l_accel_z,foot_imu_l_gyro_x,foot_imu_l_gyro_y,foot_imu_l_gyro_z,insole_l_force_y,insole_l_cop_x,insole_l_cop_z,hip_angle_r,hip_angle_r_velocity,hip_angle_r_velocity_filt,hip_angle_r_torque_estimated,hip_angle_r_torque_desired,hip_angle_r_torque_measured,hip_angle_r_torque_interaction,knee_angle_r,knee_angle_r_velocity,knee_angle_r_velocity_filt,knee_angle_r_torque_estimated,knee_angle_r_torque_desired,knee_angle_r_torque_measured,knee_angle_r_torque_interaction,thigh_imu_r_accel_x,thigh_imu_r_accel_y,thigh_imu_r_accel_z,thigh_imu_r_gyro_x,thigh_imu_r_gyro_y,thigh_imu_r_gyro_z,shank_imu_r_accel_x,shank_imu_r_accel_y,shank_imu_r_accel_z,shank_imu_r_gyro_x,shank_imu_r_gyro_y,shank_imu_r_gyro_z,foot_imu_r_accel_x,foot_imu_r_accel_y,foot_imu_r_accel_z,foot_imu_r_gyro_x,foot_imu_r_gyro_y,foot_imu_r_gyro_z,insole_r_force_y,insole_r_cop_x,insole_r_cop_z
78.83,-48.1191808749694,-23.5612479812892,-32.3715127866603,0.101841324935148,-1.39253811633817,-1.58019992545814,-1.56943558853898,-55.4185016817596,62.9148967031962,60.1179519205395,-0.129168394279256,-0.749155815352264,-0.733189479727784,-0.765392123503916,6.61096683389424,4.66063442218913,0.0205135679523502,-19.4859947877884,-22.58386469441,59.4706265944501,-4.7974924622487,4.51788517596428,-0.538761306626977,20.2779468279045,-20.5950182958728,184.458729141539,-9.01659770298907,7.40537915094557,-2.93023769389973,7.44992800872452,-77.4572198673104,131.990395436347,6.18731155621724,0,0,-2.17490934237865,10.4664883873627,12.2252972412622,0.129524985050252,3.70416935427238,5.24828505525895,5.24265302124763,-5.1489989592368,-1.86526142030686,0.069116189290577,-0.198768630618844,-1.8289036688222,-1.69427314197879,-1.68850875786936,1.83474321602382,8.78235653250929,-2.41888216086377,-6.13095353384269,-15.9561750095877,-36.5449252449374,0.329999999999984,10.0125075377513,-0.0354984924497418,-1.17451796001211,9.26582356294649,-36.6012460438486,-1.22145998477936,9.51301765441895,-0.344882816076279,-5.70499992370605,-0.699999988079071,1.36500000953674,914,-0.113259732723236,0.0459966585040092
78.835,-48.6582461460668,-19.23143450334,-31.3671195891635,0.108595533294742,-1.33397968328751,-1.71859620708602,-1.7091705156765,-54.1740618946949,63.8561600675825,61.171233416859,-0.136557502929642,-0.759296877321977,-0.7147366421774,-0.740525247592793,6.84185797750561,4.59504034729954,-0.0739418998886663,-20.2957981814871,-22.1077002989152,55.5382213146493,-4.84996772216037,4.44704357508352,-0.460048416759463,24.4727284072636,-25.1947015720812,182.77757729622,-9.38106739275989,7.76419345862251,-2.57582215575221,21.4358967367543,-77.2276406051968,121.879723772015,7.49919305400908,0,0,-1.93405009332651,9.90173011850943,11.4736025163157,0.125710030378836,3.56717636734433,4.94611977781603,4.94005254646618,-5.17767268978795,-3.37128346015645,0.260596342167113,-0.201344285155329,-1.85513588315338,-1.78192412034312,-1.77420936612634,1.88197094994431,8.91092091929287,-2.36903066394768,-5.5090245274821,-17.0153978485456,-35.3464162222633,0.329999999999984,9.96003227783963,-0.045993544432082,-1.3073257165787,8.68924354663302,-37.5956846113106,-1.22145998477936,9.51301765441895,-0.344882816076279,-5.70499992370605,-0.699999988079071,1.36500000953674,914,-0.113259732723236,0.0459966585040092
78.84,-48.9264461733436,-15.7573257546406,-29.4804127640333,0.113971204929649,-1.24426541724265,-1.75050845663098,-1.74929304937861,-53.3314481588252,63.6463551532386,61.8073733799608,-0.143583424316837,-0.782137532423885,-0.697929598518499,-0.702291352281773,6.98235262449529,4.60490174966352,-0.154420408662679,-20.6852397158364,-22.0258130882626,51.2832850714412,-4.90807463599658,4.48345772666097,-0.47283396549615,27.5919672272297,-27.9710331972333,179.814894873666,-9.82264786786437,7.58884573807758,-2.07424722023989,29.2403321419616,-76.6735847113752,116.448631299317,7.52406705004282,0,0,-1.81783021449167,9.23083141674162,10.898334877586,0.122873150565811,3.47602307518445,4.67735478695116,4.6718275899623,-5.21289115607571,-4.62915869288909,-0.0837799361083408,-0.203115695904303,-1.8910819587874,-1.78749112182654,-1.77730046223376,1.81433206900769,8.86322696684203,-2.2960609323382,-5.55951499441853,-16.5618986334105,-34.226891616932,0.249091398507266,9.95269154533219,-0.00240670500429196,-1.5401718697367,8.63169726274255,-38.3121829933853,-1.22145998477936,9.51301765441895,-0.344882816076279,-5.70499992370605,-0.699999988079071,1.36500000953674,914,-0.113259732723236,0.0459966585040092
78.845,-49.0273926486033,-12.811721809074,-27.0490275785613,0.118495468089308,-1.13531883288859,-1.71667257716719,-1.72937333059541,-52.7369747066463,62.7258543025962,62.1859266418629,-0.150384767393084,-0.812818228655067,-0.682139521435397,-0.657685989817002,7.0670269179004,4.66135127860027,-0.226265263673072,-20.8151179810668,-22.187368979159,46.829410902807,-4.96965594029121,4.58609323381868,-0.542112932827602,30.0469832163417,-29.6214374944299,176.061096232249,-10.3118179235758,7.08369785758312,-1.48183533752197,33.2277213405486,-75.9192131073286,113.907117908925,6.75430074635997,0,0,-1.77857216432572,8.49443024682339,10.4320263289854,0.120640300357,3.41317700598706,4.4292250042167,4.42542974133374,-5.25214886977625,-5.73376026423984,-0.758994492536899,-0.204390456651354,-1.93302396543996,-1.74237661587482,-1.73100606885869,1.67577413434479,8.70670781842652,-2.20882075125414,-6.02517609170817,-15.1744186292414,-33.1561878694225,0.118231126881182,9.97321864676373,0.0745699253639968,-1.83477378843014,8.89462155577004,-38.8570381548399,-1.22145998477936,9.51301765441895,-0.344882816076279,-5.70499992370605,-0.699999988079071,1.36500000953674,914,-0.113259732723236,0.0459966585040092
78.85,-49.1283439374854,-9.86597740268322,-24.6175264527342,0.123019946987994,-1.02636705342774,-1.68283508424293,-1.70967764841166,-52.1424729070613,61.8053095579643,62.5644979550387,-0.157186434790682,-0.843500387892124,-0.666348691404077,-0.615743450792257,7.15170524899058,4.71780349932706,-0.298113544598062,-20.9450024395291,-22.3489325738316,42.3753243516366,-5.03124018108407,4.6887336351401,-0.611395203719559,32.5021162726412,-31.2719204909874,172.307118591327,-10.8010113053116,6.57852588916341,-0.889395205703722,37.2153006773836,-75.1648055311488,111.365483326727,5.98449773644928,0,0,-1.73931224214364,7.75799396169035,9.96569554450918,0.118407343674954,3.35032793998127,4.18108338943882,4.1785679844951,-5.29140845547687,-6.83841450840406,-1.43424124650284,-0.20566527818524,-1.97496797209284,-1.69725995864247,-1.68447870751853,1.53720959256087,8.55018120641136,-2.12157641013092,-6.49085939399982,-13.7868724632296,-32.0854330655138,-0.0126353848036315,9.99374672702801,0.151550226355068,-2.12938975518608,9.15755838631567,-39.4019192976573,-1.22145998477936,9.51301765441895,-0.344882816076279,-5.70499992370605,-0.699999988079071,1.36500000953674,914,-0.113259732723236,0.0459966585040092
78.855,-49.2292904127451,-6.92037345711668,-22.1861412672622,0.127544210147652,-0.91742046907368,-1.64899920477914,-1.68997296126097,-51.5479994548824,60.8848087073218,62.9430512169408,-0.163987777866929,-0.874181084123306,-0.650558614320976,-0.576880845635459,7.23637954239569,4.77425302826381,-0.369958399608455,-21.0748807047596,-22.510488464728,37.9214501830024,-5.0928214853787,4.79136914229781,-0.680674171051012,34.9571322617532,-32.9223247881839,168.55331994991,-11.290181361023,6.07337800866896,-0.296983322985794,41.2026898759706,-74.4104339271022,108.823969936336,5.21473143276643,0,0,-1.70005419197768,7.02159279177213,9.49938699590861,0.116174493466143,3.28748187078389,3.93295360670436,3.93124654003157,-5.33066616917742,-7.94301607975481,-2.1094558029314,-0.206940038932291,-2.0169099787454,-1.65214545269075,-1.63778214071926,1.39865165789797,8.39366205799586,-2.03433622904685,-6.95652049128946,-12.3993924590605,-31.0147293180043,-0.143495656429715,10.0142738284595,0.228526856723357,-2.42399167387952,9.42048267934315,-39.9467744591119,-1.22145998477936,9.51301765441895,-0.344882816076279,-5.70499992370605,-0.699999988079071,1.36500000953674,914,-0.113259732723236,0.0459966585040092
78.86,-49.2613465838912,-4.82011220786135,-19.3239390593536,0.129556466549089,-0.787626247461884,-1.57846353192277,-1.63333175705385,-50.9225700923786,60.1166029366182,62.821563522079,-0.167586235061743,-0.92340463154725,-0.657119982728075,-0.563718876751759,7.26890996936129,4.76683407966064,-0.400691963233548,-21.0759112321529,-22.4455559338111,35.070817875775,-5.08683407966063,4.81109003063869,-0.744549846806493,36.1831734476247,-33.5257155576505,165.825378619251,-11.4266386032104,5.93246364593506,-0.131726086139679,42.314998626709,-74.1999969482422,108.11499786377,5,0,0,-1.62288992647795,7.58330802449971,9.20270220209103,0.108776117128434,3.24060209765156,3.77914040463448,3.77777204248668,-5.42341012211024,-8.37900852182691,-3.04075206999548,-0.201821297062298,-2.05004325887729,-1.6912578626087,-1.67521114193812,1.29406622672639,8.50859745463118,-2.11157365071882,-7.16561948074244,-11.9903457546635,-29.9504520153746,-0.265535705868499,10.0110900306387,0.267819938722606,-2.61177247638086,9.21882810613269,-40.4375642670717,-1.22145998477936,9.51301765441895,-0.344882816076279,-5.70499992370605,-0.699999988079071,1.36500000953674,914,-0.113259732723236,0.0459966585040092
78.865,-49.2667501736833,-3.0470137039221,-16.2952630133914,0.130596811047868,-0.649775625655924,-1.49373507665177,-1.56204879137407,-50.2852066837143,59.4073638649895,62.5066412213864,-0.169945406390695,-0.979798292443634,-0.672327654186971,-0.562669998850977,7.28126620315814,4.73470787178885,-0.415519443789759,-21.0270964813505,-22.2930098375538,32.8405939484932,-5.05470787178884,4.79873379684185,-0.806331015790703,36.9337002412106,-33.724025482785,163.494474268439,-11.4266386032104,5.93246364593506,-0.131726086139679,42.314998626709,-74.1999969482422,108.11499786377,5,0,0,-1.53106660824465,8.64716710329562,8.97165658631037,0.0993799277053057,3.19990204358772,3.66182408195157,3.6603477635773,-5.5368392857001,-8.55631828973407,-4.07105288083359,-0.194229544243499,-2.07976666045964,-1.76295117091492,-1.74519784067146,1.20263009662975,8.72853841621496,-2.25243471600282,-7.27545267004771,-11.959836535412,-28.8887311854238,-0.384155550318186,9.99873379684186,0.292532406316295,-2.75821672878788,8.83746286548942,-40.9074062435442,-1.22145998477936,9.51301765441895,-0.344882816076279,-5.70499992370605,-0.699999988079071,1.36500000953674,914,-0.113259732723236,0.0459966585040092
78.87,-49.2721540211451,-1.2738306499612,-13.2664425453204,0.131637205155369,-0.511918430457098,-1.40900258111302,-1.49011656170763,-49.6478128824407,58.6980909733679,62.1917039036559,-0.172304690216492,-1.036194642466,-0.687536050822132,-0.565054346271623,7.29362302616073,4.70258013198211,-0.43034763139287,-20.9782794028218,-22.1404564671514,30.6102636732105,-5.0225801319821,4.78637697383925,-0.868115130803665,37.6842628235903,-33.9223448643081,161.163458768691,-11.4266386032104,5.93246364593506,-0.131726086139679,42.314998626709,-74.1999969482422,108.11499786377,5,0,0,-1.43923891142576,9.71107691210338,8.74059995314304,0.0899832902258415,3.15920004874595,3.54450216505175,3.54251399959797,-5.65027385814809,-8.73363651263947,-5.10140282146098,-0.18663742941274,-2.10949147939938,-1.83464789790925,-1.81524824645487,1.11118960641057,8.9484898656611,-2.39330249823237,-7.38529109673742,-11.9293258613315,-27.8269597274232,-0.502781051143078,9.98637697383928,0.317246052321486,-2.90466796437416,8.45607943948349,-41.3772706243835,-1.22145998477936,9.51301765441895,-0.344882816076279,-5.70499992370605,-0.699999988079071,1.36500000953674,914,-0.113259732723236,0.0459966585040092
78.875,-49.2775576109373,0.499267853978049,-10.2377664993582,0.132677549654148,-0.374067808651138,-1.32427412584203,-1.41736368647871,-49.0104494737764,57.9888519017392,61.8767816029633,-0.174663861545444,-1.09258830336238,-0.702743722281028,-0.570692126016731,7.30597925995758,4.67045392411032,-0.445175111949081,-20.9294646520194,-21.9879103708941,28.3800397459287,-4.99045392411032,4.77402074004241,-0.929896299787874,38.4347896171763,-34.1206547894426,158.832554417879,-11.4266386032104,5.93246364593506,-0.131726086139679,42.314998626709,-74.1999969482422,108.11499786377,5,0,0,-1.34741559319245,10.7749359908993,8.50955433736237,0.0805871008027133,3.11849999468211,3.42718584236884,3.42434223685829,-5.76370302173795,-8.91094628054664,-6.13170363229909,-0.179045676593942,-2.13921488098173,-1.90634120621547,-1.88544122788519,1.01975347631394,9.16843082724488,-2.53416356351636,-7.49512428604268,-11.8988166420801,-26.7652388974724,-0.621400895592765,9.97402074004245,0.341958519915175,-3.05111221678118,8.07471419884023,-41.847112600856,-1.22145998477936,9.51301765441895,-0.344882816076279,-5.70499992370605,-0.699999988079071,1.36500000953674,914,-0.113259732723236,0.0459966585040092
78.88,-49.2793159484863,1.07623720169067,-7.99577777055359,0.133095560393216,-0.238286273453445,-1.29670333862305,-1.40078075074454,-48.8030503082275,57.7580642700195,61.3968365881483,-0.177301472910257,-1.15714058030023,-0.707692325115204,-0.569017313369375,7.32150898885545,4.67582485967626,-0.451438623606918,-21.0325775082276,-22.3076959385699,25.3134494889694,-4.87785772390793,4.9670914341495,-0.975895224924744,39.0093629517149,-35.5509895725059,153.484687160112,-11.7143405497554,5.50315037793259,0.324462326228216,41.8165155249558,-75.02576768888,102.752529247001,4.71227527861384,0,0,-1.3175361251831,11.1211175918579,8.57001952085031,0.0728321475671623,3.06038162825507,3.38901090621948,3.38504296606479,-5.8006130695343,-8.96864318847656,-6.834910175228,-0.176956344132356,-2.16181904284925,-1.9296703338623,-1.90750055613402,1.15256446758319,9.28747457902872,-2.5569820222891,-7.93581010170399,-13.4340772074442,-26.4144248508385,-0.641297893109917,9.92971853900596,0.324104775075268,-3.11830229589661,7.50837373070895,-42.9146804414436,-1.22145998477936,9.51301765441895,-0.344882816076279,-5.70499992370605,-0.699999988079071,1.36500000953674,914,-0.113259732723236,0.0459966585040092
78.885,-49.2793159484863,1.07623720169067,-6.13339013314088,0.133213371557291,-0.103512317316398,-1.29670333862305,-1.41063308745954,-48.8030503082275,57.7580642700195,60.837330147255,-0.180073197732333,-1.22562343707904,-0.707692325115204,-0.564924166065787,7.33856829089726,4.69928139998374,-0.453571036362143,-21.2089622669933,-22.8552784732453,21.8436716971317,-4.72645641828684,5.25923198161554,-1.01427865451882,39.4990281029151,-37.5754653858012,146.682027210106,-12.1407893425879,4.86679693269088,1.00065169545123,41.0776344727318,-76.2497737817494,94.8039620034157,4.28579272756854,0,0,-1.3175361251831,11.1211175918579,8.77108473466235,0.0658693593512086,2.99386600107032,3.38901090621948,3.38373501837871,-5.8006130695343,-8.96864318847656,-7.38029974821379,-0.177521139876176,-2.1809877865675,-1.9296703338623,-1.90654107809409,1.39352710892379,9.3578441999512,-2.52286341820548,-8.53604480317516,-15.7244464630579,-26.4065270258192,-0.613576527291961,9.87001098185961,0.285721345481188,-3.14726098763426,6.85285425410227,-44.2704737364334,-1.22145998477936,9.51301765441895,-0.344882816076279,-5.70499992370605,-0.699999988079071,1.36500000953674,914,-0.113259732723236,0.0459966585040092
78.89,-49.2793159484863,1.07623720169067,-4.27091368796328,0.133331188339179,0.0312680655030269,-1.29670333862305,-1.41921579553292,-48.8030503082275,57.7580642700195,60.277797026354,-0.182845054723826,-1.2941095594559,-0.707692325115204,-0.562862307992029,7.35562840641015,4.72273905881396,-0.455703550801252,-21.3853554366482,-23.4028871193382,18.3737284492932,-4.5750478931099,5.55138645977384,-1.05266391442283,39.9887166037482,-39.6000377360196,139.879042875952,-12.5672584705877,4.23041314299991,1.67687330869546,40.33871818704,-77.4738382412246,86.8550157332104,3.8592898397462,0,0,-1.3175361251831,11.1211175918579,8.97215953624865,0.0589062391154076,2.92734720209466,3.38901090621948,3.38233502873413,-5.8006130695343,-8.96864318847656,-7.92571532804585,-0.178085962552223,-2.20015744434533,-1.9296703338623,-1.90596335155085,1.63450124054341,9.42821717644188,-2.4887431871797,-9.13630812677696,-18.0149249346964,-26.3986288241928,-0.585853839583498,9.81030057756448,0.247336085577177,-3.17622106026417,6.19730351911609,-45.6263316822883,-1.22145998477936,9.51301765441895,-0.344882816076279,-5.70499992370605,-0.699999988079071,1.36500000953674,914,-0.113259732723236,0.0459966585040092
78.895,-49.2793159484863,1.07623720169067,-2.40852605055057,0.133448999503253,0.166042021640074,-1.29670333862305,-1.4264068129943,-48.8030503082275,57.7580642700195,59.7182905854607,-0.185616779545902,-1.36259241623471,-0.707692325115204,-0.56227922350019,7.37268770845195,4.74619559912144,-0.457835963556477,-21.5617401954138,-23.9504696540137,14.9039506574554,-4.4236465874888,5.84352700723988,-1.09104734401691,40.4783817549483,-41.6245135493149,133.076382925945,-12.9937072634202,3.5940596977582,2.35306267791847,39.599837134816,-78.697844334094,78.9064484896249,3.43280728870089,0,0,-1.3175361251831,11.1211175918579,9.17322475006069,0.0519434508994538,2.86083157490991,3.38901090621948,3.38093633846391,-5.8006130695343,-8.96864318847656,-8.47110490103164,-0.178650758296043,-2.21932618806358,-1.9296703338623,-1.90582691454534,1.875463881884,9.49858679736435,-2.45462458309608,-9.73654282824813,-20.3052941903101,-26.3907309991735,-0.558132473765542,9.75059302041813,0.208952655983097,-3.20517975200181,5.5417840425094,-46.982124977278,-1.22145998477936,9.51301765441895,-0.344882816076279,-5.70499992370605,-0.699999988079071,1.36500000953674,914,-0.113259732723236,0.0459966585040092
78.9,-49.2793159484863,1.07623720169067,-0.546049605372969,0.133566816285141,0.300822404459499,-1.29670333862305,-1.43209483215166,-48.8030503082275,57.7580642700195,59.1587574645596,-0.188388636537394,-1.43107853861157,-0.707692325115204,-0.562599884430705,7.38974782396484,4.76965325795166,-0.459968477995587,-21.7381333650688,-24.4980783001066,11.4340074096169,-4.27223806231187,6.13568148539818,-1.12943260392093,40.9680702557814,-43.6490858995333,126.273398591791,-13.42017639142,2.95767590806723,3.02928429116271,38.8609208491242,-79.9219087935693,70.9575022194196,3.00630440087855,0,0,-1.3175361251831,11.1211175918579,9.37429955164698,0.0449803306636529,2.79431277593425,3.38901090621948,3.37962958649719,-5.8006130695343,-8.96864318847656,-9.01652048086369,-0.17921558097209,-2.23849584584141,-1.9296703338623,-1.9061761642162,2.11643801350362,9.56895977385503,-2.4205043520703,-10.3368061518499,-22.5957726619485,-26.3828327975472,-0.530409786057079,9.69088261612299,0.170567396079085,-3.23413982463172,4.88623330752322,-48.337982923133,-1.22145998477936,9.51301765441895,-0.344882816076279,-5.70499992370605,-0.699999988079071,1.36500000953674,914,-0.113259732723236,0.0459966585040092
78.905,-49.2674213639042,1.07623720169067,0.0312218685580951,0.131390665808256,0.428972892980724,-1.21698074294431,-1.3564560348711,-48.3669911843857,55.4157125464199,58.4508140980127,-0.187633818929943,-1.49612156938339,-0.720447938694133,-0.576013398684561,7.16147519685384,4.84073386764046,-0.499901156104868,-21.8638924571139,-24.6964982193555,8.91296435557317,-4.34980231220975,6.14181368891384,-1.02661973191007,39.1056416752201,-44.4313573766128,118.338151222728,-13.4264802932739,2.94826912879944,3.03927993774414,38.8499984741211,-79.9400024414062,70.8400039672852,3,0,0,-1.21050354436386,11.7717708099763,9.75518007555973,0.0448627936517098,2.70076720223676,3.35393296887743,3.34342061804614,-5.89178894648933,-9.09877393588035,-9.14123291826849,-0.178609329234399,-2.23995140604847,-1.9344536889544,-1.91182093969322,2.04745244344568,9.55549048868913,-2.36921671041198,-10.7711122143618,-23.050584587414,-26.6738019244464,-0.734946847265974,9.7117642669663,0.287889779400804,-3.6107404167015,4.71756553964947,-48.7073277414344,-1.23405707423705,9.39790648373967,-0.315779221419626,-5.55265011375069,-0.903133158106467,1.00951697550184,914.181368891386,-0.104167853037119,0.0427974493928058
78.91,-49.2553477359163,1.07623720169067,0.589237920698709,0.129179991058553,0.557030108342668,-1.13605812174618,-1.27792204467361,-47.9243682743033,53.038102539773,57.7406097024973,-0.186826050161209,-1.56111608772276,-0.733395556330129,-0.589427499560086,6.92951052081778,4.91253245784211,-0.540402924936566,-21.9888979164709,-24.8896884747255,6.40603668883031,-4.43080584987313,6.14365467840619,-0.92168333084614,37.2078315195263,-45.1950270919579,110.385531181084,-13.4264802932739,2.94826912879944,3.03927993774414,38.8499984741211,-79.9400024414062,70.8400039672852,3,0,0,-1.10185985408066,12.4322179950292,10.1387768597912,0.0448479628622334,2.60681158808926,3.31832702037844,3.30693269678639,-5.98433724964507,-9.2308634782332,-9.25963911387884,-0.177985477219857,-2.24114125236527,-1.9393090455679,-1.91805635202661,1.97381286375169,9.54076257275034,-2.31766900462618,-11.2029492557772,-23.4778759757619,-26.9692693738359,-0.942978659901499,9.7338561408745,0.407554096403529,-3.99257527437403,4.55619485575215,-49.0618886807018,-1.24684378156518,9.28106260050626,-0.286237544485338,-5.39800705608726,-1.10932399310064,0.648683027978478,914.365467840621,-0.0949391177011113,0.0395500841403902
78.915,-49.2432746836307,1.07623720169067,1.14722736516947,0.126969421719624,0.685081217600503,-1.05513935915101,-1.19761726627284,-47.481766469643,50.6606059038111,57.0304391713914,-0.186018319909009,-1.62610750695292,-0.746342556589736,-0.60218485338672,6.69755690546625,4.98432762449854,-0.580902762537632,-22.1138974152396,-25.0828695182772,3.89922855897791,-4.51180552507526,6.14549558011533,-0.816751933425212,35.3101118564014,-45.9586603935267,102.433290341235,-13.4264802932739,2.94826912879944,3.03927993774414,38.8499984741211,-79.9400024414062,70.8400039672852,3,0,0,-0.993221344213744,13.0926336882271,10.5223553531213,0.0448331327799281,2.51286045399203,3.28272276966452,3.2707555987128,-6.07688113985482,-9.36294672221001,-9.37803966357104,-0.177361654952217,-2.24233104194707,-1.94416417066525,-1.92479533273604,1.90017679538613,9.52603535907723,-2.26612375677028,-11.6347657060691,-23.9051469897349,-27.2647227345619,-1.15100055303423,9.75594696138417,0.527212707497567,-4.37439192515844,4.39483186643254,-49.416432713573,-1.25962987918956,9.16422428869584,-0.256697276175737,-5.24337137221068,-1.31550499637466,0.28786628596473,914.549558011535,-0.0857108224154249,0.0363028737308724
78.92,-49.2312010556429,1.07623720169067,1.70524341731008,0.124758746969921,0.813138432962447,-0.974216737952884,-1.11546820527474,-47.0391435595606,48.2829958971641,56.3202347758761,-0.185210551140275,-1.69110202529229,-0.759290174225732,-0.613907577570704,6.46559222943019,5.05612621470019,-0.62140453136933,-22.2389028745967,-25.2760597736472,1.39230089223505,-4.59280906273864,6.14733656960768,-0.711815532361281,33.4123017007076,-46.7223301088718,94.4806702995911,-13.4264802932739,2.94826912879944,3.03927993774414,38.8499984741211,-79.9400024414062,70.8400039672852,3,0,0,-0.884577653930545,13.75308087328,10.9059521373527,0.0448183019904517,2.41890483984454,3.24711682116553,3.23493079601429,-6.16942944301056,-9.49503626456286,-9.49644585918139,-0.176737802937675,-2.24352088826387,-1.94901952727875,-1.93200186744324,1.82653721569215,9.51130744313843,-2.21457605098448,-12.0666027474844,-24.3324383780827,-27.5601901839513,-1.35903236566975,9.77803883529236,0.646877024500293,-4.75622678283097,4.23346118253522,-49.7709936528404,-1.27241658651769,9.04738040546242,-0.22715559924145,-5.08872831454725,-1.52169583136883,-0.0729676615586279,914.73365696077,-0.0764820870794174,0.0330555084784569
78.925,-49.2191280033573,1.07623720169067,2.26323286178085,0.122548177630992,0.941189542220282,-0.893297975357713,-1.03143372473947,-46.5965417549003,45.9054992612023,55.6100642447702,-0.184402820888075,-1.75609344452245,-0.772237174485339,-0.624317262915237,6.23363861407867,5.12792138135662,-0.661904368970395,-22.3639023733654,-25.4692408171988,-1.11450723761735,-4.67380873794076,6.14917747131681,-0.606884134940353,31.5145820375827,-47.4859634104406,86.528429459742,-13.4264802932739,2.94826912879944,3.03927993774414,38.8499984741211,-79.9400024414062,70.8400039672852,3,0,0,-0.775939144063628,14.4134965664778,11.2895306306828,0.0448034719081463,2.32495370574731,3.21151257045161,3.19949038155643,-6.26197333322032,-9.62711950853967,-9.61484640887358,-0.176113980670035,-2.24471067784567,-1.95387465237611,-1.9396180264783,1.75290114732659,9.49658022946532,-2.16303080312858,-12.4984191977763,-24.7597093920558,-27.8556435446774,-1.56705425880248,9.80012965580203,0.766535635594331,-5.13804343361537,4.07209819321562,-50.1255376857116,-1.28520268414207,8.93054209365201,-0.197615330931849,-4.93409263067067,-1.72787683464285,-0.433784403572376,914.917747131684,-0.067253791793731,0.0298082980689391
78.93,-49.1573014010467,2.16593836985869,2.65112673078275,0.120898699954487,1.0933052232569,-0.774361812374429,-0.907464687654682,-46.1299004314177,41.9010229983483,53.8618795666395,-0.183487186465704,-1.82542513558213,-0.811401446396893,-0.659467133711338,6.18771308138393,5.09773062271736,-0.663293581704656,-22.2510013864667,-23.9149140282345,-3.72145787970952,-4.79656962207588,6.07861803091985,-0.529624694008461,29.845408393562,-47.4390315839352,80.2340310271829,-13.8273298094864,2.80277022656455,3.44740437010025,30.3077032088709,-82.0928515583213,48.3972084865467,3,0,0,-0.641090360472368,14.0547545623015,11.667361476325,0.043619618193976,2.20256988649524,3.17824700766594,3.16678384885965,-6.39627020532018,-9.90407542429831,-9.71032892968153,-0.175778397235181,-2.22348936069742,-1.98675305739641,-1.97559050732155,1.71240617350214,9.46721852050635,-2.16278147949365,-12.8394845168723,-24.2756104841386,-27.9295287354483,-1.69341283659072,9.83126271419408,0.835187652995768,-5.59176982745206,3.62499622232663,-50.6252040549667,-1.29091560840607,8.87833786010742,-0.184416517615318,-4.86500024795532,-1.82000005245209,-0.595000028610229,915,-0.0631305202841759,0.028357420116663
78.935,-49.0552981966735,4.13560939189381,2.90161468390703,0.119702512948091,1.26484280757623,-0.624732311563732,-0.750882901518759,-45.6438845475111,36.5829116184699,51.2755252304376,-0.182484485465149,-1.8982561384287,-0.871735919231291,-0.714262629919793,6.29203139113246,4.98517665693604,-0.63309617625113,-21.9459770889564,-20.9494000246619,-6.4090608566616,-4.95304708669867,5.949592753073,-0.474720320456605,28.3609568123451,-46.7374756996615,75.2790807720708,-14.5518786118044,2.53977613254906,4.18510282475806,14.8672210499706,-85.9841977771479,7.83111091487231,3,0,0,-0.485085274863049,12.8729519752609,12.0405178443184,0.041491740382507,2.05723382831183,3.14687308179206,3.13636130595654,-6.56427601927819,-10.2980094454422,-9.78729417647067,-0.175675629991212,-2.18417022862558,-2.04226077240406,-2.03443174333788,1.69868008011417,9.42604024034244,-2.20395975965755,-13.1072280669092,-23.0555132940973,-27.8244648107503,-1.75380764749775,9.86969577568038,0.862639839771704,-6.10353281549716,2.94716445008147,-51.2420309677098,-1.29091560840607,8.87833786010742,-0.184416517615318,-4.86500024795532,-1.82000005245209,-0.595000028610229,915,-0.0631305202841759,0.028357420116663
78.94,-48.9532901282878,6.10537433749109,3.15211458152385,0.118506268901639,1.43638857164782,-0.475095675685522,-0.59240286964905,-45.1578454879865,31.2645466449918,48.6890475641924,-0.181481736650898,-1.97109061421422,-0.932073269108884,-0.767605080430746,6.39635467528897,4.87261732403033,-0.602897330837399,-21.6409382463935,-17.983744610856,-9.09679199168801,-5.10953201293344,5.8205613226689,-0.419813328795287,26.8764344452056,-46.0358863617668,70.3238942406602,-15.2764619641582,2.27676949768697,4.92283645649158,-0.573997386749557,-89.8757295544227,-32.7369210470349,3,0,0,-0.329072750167105,11.6910930340842,12.4136920062352,0.0393637611034012,1.91189083979328,3.11549765985571,3.10631302796107,-6.73228984457633,-10.6919622512898,-9.86426309333977,-0.175572857846797,-2.14484922162494,-2.09777113429145,-2.09340805596982,1.68495333219884,9.38485999659644,-2.24514000340355,-13.37498438427,-21.8353579238457,-27.7193958760897,-1.8142053383252,9.9081306698433,0.890093335602371,-6.61532020690824,2.26930035549726,-51.8588872937815,-1.29091560840607,8.87833786010742,-0.184416517615318,-4.86500024795532,-1.82000005245209,-0.595000028610229,915,-0.0631305202841759,0.028357420116663
78.945,-48.8512869239145,8.07504535952621,3.40260253464813,0.117310081895243,1.60792615596715,-0.325466174874825,-0.432102577240535,-44.6718296040798,25.9464352651134,46.1026932279904,-0.180479035650343,-2.04392161706078,-0.992407741943283,-0.819667264913331,6.50067298503749,4.76006335824901,-0.572699925383874,-21.3359139488832,-15.0182306072834,-11.7843949686401,-5.26600947755623,5.69153604482204,-0.364908955243432,25.3919828639887,-45.3343304774931,65.368943985548,-16.0010107664761,2.01377540367148,5.6605349111494,-16.0144795456499,-93.7670757732493,-73.3030186187093,3,0,0,-0.173067664557786,10.5092904470436,12.7868483742286,0.0372358832919322,1.76655478160986,3.08412373398182,3.07661383079595,-6.90029565853433,-11.0858962724337,-9.94122834012891,-0.175470090602828,-2.1055300895531,-2.15327884929909,-2.15239770949936,1.67122723881087,9.34368171643254,-2.28631828356746,-13.6427279343068,-20.6152607338044,-27.6143319513918,-1.87460014923224,9.9465637313296,0.917545522378306,-7.12708319495334,1.59146858325211,-52.4757142065246,-1.29091560840607,8.87833786010742,-0.184416517615318,-4.86500024795532,-1.82000005245209,-0.595000028610229,915,-0.0631305202841759,0.028357420116663
78.95,-48.7561034237649,9.44069812756526,4.12479972282749,0.109828556759274,1.70253808894553,-0.200952383947516,-0.29519412053841,-44.4924860361978,22.1996957679495,42.5715925643432,-0.17714957707394,-2.07414915888424,-1.03970577080632,-0.85769321825161,6.53279644922896,4.75207240447536,-0.547203550771024,-21.1474549605584,-14.0366996875297,-13.8847383377619,-5.12042485539721,5.97013662655048,-0.399375685031864,21.5263726795666,-41.0577158383718,52.7857293387829,-16.0657920837402,1.99026131629944,5.72649192810059,-17.3950004577637,-94.1149978637695,-76.9300003051758,3,0,0,-0.0821149223623275,10.8497062006222,12.7630854321225,0.0304510537753613,1.68543034875867,3.01390854124692,3.00838373605874,-6.98779118813419,-10.8237312178401,-10.0278938639124,-0.18158539896751,-2.07139281252804,-2.16917311242389,-2.17166844619125,1.59539343888703,9.35865164027823,-2.18845218070735,-13.953221359556,-19.743732674497,-27.8889344404507,-2.00434426852163,9.92927595524639,0.861972674689914,-7.4491601028876,0.678875690993764,-52.6587903997136,-1.1484646056354,9.00540212788058,-0.251919425310427,-4.10339156373234,-1.89978759807208,-1.34935527938186,919.144808950721,-0.0468182280214132,0.0238586922539286
78.955,-48.6615944865791,10.7469750837485,4.89327290297104,0.101730310281324,1.78959227944093,-0.0789110478467383,-0.159181088505406,-44.3432618554505,18.6074344097386,38.9479188126037,-0.173591844894556,-2.10019218392705,-1.08572136627798,-0.893799064830648,6.55782992761723,4.75434817523793,-0.522170072382759,-20.9704505679141,-13.2500134979995,-15.9273128370062,-4.94519050667938,6.28874453331018,-0.44261532952068,17.4271757134078,-36.4303152878142,39.4542080197812,-16.0657920837402,1.99026131629944,5.72649192810059,-17.3950004577637,-94.1149978637695,-76.9300003051758,3,0,0,0.00244602548620781,11.3395600320616,12.7003530213306,0.0232093462351453,1.61061465141204,2.93988347470086,2.93661060488133,-7.06737739801362,-10.4971621415701,-10.1155072514359,-0.188310896181637,-2.03776609294602,-2.1811771772692,-2.1868216754898,1.51346569143453,9.37913357714136,-2.07693941334145,-14.2678958353681,-18.9064738013542,-28.2007993227287,-2.1408905142758,9.9065182476207,0.798251093337967,-7.7525962045635,-0.256718955840296,-52.7992700764154,-0.992034801000972,9.14493528803511,-0.326046433598332,-3.26704576508123,-1.98740474313136,-2.17773586083088,923.69635047586,-0.0289052007897853,0.0189185015428534
78.96,-48.5670810427443,12.0533143296154,5.66178272767995,0.0936316776393148,1.87665062110655,0.0431361077827261,-0.0217776100688364,-44.1940305589634,15.0150017549106,35.3240722663503,-0.170033943065075,-2.12623645082885,-1.13173915599863,-0.929698630804253,6.58286459972436,4.75662405452039,-0.497135400275625,-20.7934377348334,-12.4632897954186,-17.9699847362076,-4.76994780192947,6.60736763285548,-0.485857035887542,13.327783277459,-31.8026940801324,26.1220509885426,-16.0657920837402,1.99026131629944,5.72649192810059,-17.3950004577637,-94.1149978637695,-76.9300003051758,3,0,0,0.0870110056149323,11.8294372221311,12.6376176191501,0.0159672933748426,1.5357953864865,2.86585487827703,2.86505364575404,-7.14696740295336,-10.1705774928869,-10.2031248167947,-0.195036714100415,-2.00413776987731,-2.19318181452712,-2.20163053942364,1.43153403726574,9.39961649068356,-1.9654213285006,-14.5825853164005,-18.0691750036073,-28.5126790762518,-2.27744327122379,9.88375945479605,0.7345264734289,-8.05604677555903,-1.19235821640984,-52.9397564518763,-0.835597537027236,9.28447510181417,-0.40017697662508,-2.43066008536586,-2.07502606620527,-3.00615594352359,928.248109040793,-0.0109913193772777,0.0139780752592871
78.965,-48.4725675989094,13.3596535754823,6.43029255238886,0.0855330449973057,1.96370896277216,0.165183263412191,0.116771950684558,-44.0447992624763,11.4225691000826,31.7002257200969,-0.166476041235594,-2.15228071773066,-1.17775694571928,-0.965866585028817,6.60789927183149,4.75889993380285,-0.472100728168491,-20.6164249017527,-11.6765660928376,-20.0126566354089,-4.59470509717956,6.92599073240077,-0.529098742254404,9.22839084151019,-27.1750728724507,12.789893957304,-16.0657920837402,1.99026131629944,5.72649192810059,-17.3950004577637,-94.1149978637695,-76.9300003051758,3,0,0,0.171575985743657,12.3193144122006,12.5748822169696,0.00872524051453983,1.46097612156096,2.79182628185321,2.79366819204555,-7.22655740789311,-9.84399284420376,-10.2907423821536,-0.201762532019192,-1.97050944680859,-2.20518645178503,-2.21598544976517,1.34960238309694,9.42009940422577,-1.85390324365974,-14.8972747974329,-17.2318762058603,-28.824558829775,-2.41399602817178,9.86100066197139,0.670801853519832,-8.35949734655455,-2.12799747697938,-53.0802428273372,-0.6791602730535,9.42401491559323,-0.474307519651829,-1.59427440565049,-2.16264738927919,-3.83457602621629,932.799867605726,0.00692256203523004,0.00903764897572076
78.97,-48.3028014250421,16.2933403818002,7.80706420862888,0.0766316241955247,2.01938632972397,0.302292665652409,0.271246544672506,-43.9645741940737,8.1808138332513,27.8214082780041,-0.163347106412295,-2.1628054301407,-1.26401245366703,-1.04304460724207,6.64591688879776,4.79085343904494,-0.409400359966265,-20.7015103789153,-10.8026412715771,-21.9598847702873,-4.39769348187638,6.91956211696624,-0.540126899505629,6.22608374517945,-24.3531989830489,2.51071081105482,-15.8713015110557,2.70703886017678,5.47288568412098,-12.565820046628,-94.0113307605332,-78.9990318522044,2.6297587314606,0,0,0.244820580367656,11.6706176550469,12.3334234810085,0.00201789669575831,1.38855684329895,2.69745628516499,2.70206583318979,-7.30818708619169,-9.59758689652148,-10.3023504025978,-0.208556402990107,-1.94801781716019,-2.21641377858116,-2.22901271113519,1.23965415897752,9.43863896293259,-1.8037024126854,-15.4851399292274,-16.2817021640448,-28.8366586196005,-2.41582484678652,9.80803932289889,0.570888296539298,-8.46808217401858,-2.84078706551539,-53.1755734272992,-0.665911988409431,9.451264046331,-0.530238497903075,-0.343381673349511,-1.85080245023758,-4.50712745647514,941.41751532135,0.0217744302932822,0.00681641362772555
78.975,-48.0626081983305,20.7499509380811,9.7530925528777,0.0669782405917859,2.04570674049089,0.45350794783498,0.440365348395363,-43.9489084674678,5.2668760785906,23.7036653431509,-0.16061925240927,-2.15881000232824,-1.38792496781528,-1.15916212669091,6.69608570842731,4.85057822431822,-0.311451712118096,-21.0318400554885,-9.84704470720465,-23.8179892010115,-4.18029526348165,6.60899323354519,-0.521014968218184,4.2500044299648,-23.2206400919408,-4.91285879550524,-15.4948148680486,4.09454658125814,4.98196541933048,-3.21769640048263,-93.8106563568897,-83.0041758068179,1.91306130818126,0,0,0.307479841479862,9.95653666309922,11.9247172009024,-0.00418975742299718,1.31837646530736,2.58404483153778,2.59150255444002,-7.39173275106188,-9.42617864923593,-10.2428399858275,-0.215414575941869,-1.93594433127884,-2.2269148391022,-2.24068311249891,1.10348164855444,9.45536190280911,-1.81086938691819,-16.328660353334,-15.2258269478555,-28.5682657573847,-2.29159729341809,9.72681361492722,0.437104777527154,-8.39434787121206,-3.34512969671195,-53.2286621253199,-0.786639468504167,9.37344917440502,-0.569145933866061,1.29546646644572,-1.16516192840068,-5.0339000443589,953.840270658191,0.03376264934712,0.00713922639478816
78.98,-47.8224264246624,25.2063489914744,11.6990281053878,0.0573253172867122,2.07202589623155,0.604716019676039,0.609655549671942,-43.9332434878448,2.35307726812953,19.5861187530878,-0.157891528477483,-2.15481476502826,-1.51183157348965,-1.27705200752808,6.74625213587587,4.91030016175699,-0.213507734718519,-21.3621539810758,-8.8914937081843,-25.67600503244,-3.96290741120453,6.29843915886358,-0.501903948237781,2.27401933939802,-22.0881352042129,-12.3360744267837,-15.1183461769127,5.48198814232992,4.49106856290661,6.12998150259354,-93.6099915219285,-87.0091287856565,1.196398058916,0,0,0.370136114834052,8.24253740303173,11.5160304089843,-0.0103971155445126,1.24819943370037,2.47063878566632,2.48098575061248,-7.47527443225551,-9.25477857514545,-10.1833324066702,-0.222272421877945,-1.92387142109299,-2.23741539890511,-2.25166116192426,0.967315631194047,9.47208404529196,-1.81803601941083,-17.1721405561729,-14.1700020785676,-28.2998856928451,-2.16737566354544,9.64559178001048,0.303327637664305,-8.32061708425061,-3.84944827952824,-53.2817482919322,-0.907361191995808,9.29563801289637,-0.608051514620389,2.93423646166057,-0.479554099703298,-5.56064751434317,966.262433645456,0.0457502967712108,0.00746202376929083
78.985,-47.5822331979509,29.6629595477553,13.6450564496366,0.0476719336829734,2.09834630699848,0.75593130185861,0.778744743087881,-43.9175777612389,-0.560860486531175,15.4683758182346,-0.155163674474458,-2.1508193372158,-1.6357440876379,-1.39718797419887,6.79642095550542,4.97002494703027,-0.11555908687035,-21.6924836576489,-7.93589714381185,-27.5341094631642,-3.74550919280981,5.98787027544253,-0.482792016950336,0.297940024183376,-20.9555763131048,-19.7596440333437,-14.7418595339056,6.86949586341129,4.00014829811611,15.4781051487389,-93.4093171182851,-91.01427274027,0.479700635636662,0,0,0.432795375946258,6.52845641108402,11.1073241288781,-0.0166047696632681,1.17801905570878,2.35722733203911,2.37047061460774,-7.55882009712571,-9.0833703278599,-10.1238219898999,-0.229130594829706,-1.91179793521164,-2.24791645942615,-2.26190775278426,0.831143120770974,9.48880698516848,-1.82520299364362,-18.0156609802795,-13.1141268623783,-28.0314928306294,-2.04314811017701,9.56436607203882,0.169544118652161,-8.24688278144409,-4.3537909107248,-53.3348369899528,-1.02808867209054,9.2178231409704,-0.646958950583375,4.5730846014558,0.206086422133597,-6.08742010222693,978.685188982298,0.0577385158250486,0.00778483653635344
78.99,-47.2671059300609,31.3947092048024,15.6878574138121,0.0418612459474407,2.1098405813281,0.962919916187526,1.0029953413566,-43.9814141025204,-5.45143031016908,11.1077240098041,-0.152415840414607,-2.13941938211469,-1.71561533413522,-1.4759329906453,6.89975153405088,5.05621039130872,-0.0630784126345532,-22.255879441793,-7.32643584804669,-30.2567686386719,-3.77437883512727,5.98315134292322,-0.458665375716751,-2.06665871853816,-21.1695314081476,-27.4743235087013,-14.4560401632013,7.27446243980559,3.74966385809184,17.954031537661,-86.6956879900514,-91.1804572115864,0,0,0,0.509037030757932,5.5688589980048,10.6077800751874,-0.0208999763035623,1.09764500629451,2.19853662907292,2.21465534676754,-7.64523006871713,-8.78097019892513,-9.98782654581097,-0.235986459477215,-1.90683473203652,-2.22888402858019,-2.24187130802818,0.717330751433467,9.53400387284981,-1.83174378835126,-18.6448316673311,-12.414942295345,-27.7355992951003,-2.04195805250979,9.51174378835126,0.0634340106628955,-8.19430162650998,-4.45670008606331,-53.0377588885536,-1.14648177000541,9.16720179554059,-0.643974482876748,6.10027988855657,0.722980986008365,-6.59563319584263,986.564052912182,0.0680972509927049,0.00811436187618602
78.995,-46.8002387914916,27.610574712313,17.9268568300895,0.0438287686552704,2.09132288812151,1.28284439033077,1.33916119162771,-44.2062014624459,-14.3441453489868,6.25470523999282,-0.149627162989926,-2.11302826037012,-1.70634216142725,-1.46852649255647,7.11071622573181,5.19597449954733,-0.102634292324719,-23.2911691324493,-7.41759343087178,-34.7300014530173,-4.30179056432957,6.59758600744391,-0.424383613318589,-5.21810658191975,-24.1093634542566,-35.7794304296585,-14.3537239194,5.69045799205857,3.98587500327143,6.51842677958977,-66.7964431856998,-83.5751810422091,0,0,0,0.612785507319573,6.13647912158032,9.92427447378083,-0.0213242960029102,0.996623575886627,1.94816096595758,1.96711246266627,-7.73745092629319,-8.21335007534961,-9.69697729094649,-0.242838639988274,-1.91626467497391,-2.1500620605624,-2.16130127701855,0.648767226637172,9.63684916004426,-1.83701790564329,-18.8401693448134,-12.4377316910513,-27.3839914756322,-2.28984156523486,9.51701790564328,0.0133298963886782,-8.18453474263587,-3.74697319121085,-52.0317698495196,-1.26016628275142,9.17162298112913,-0.556184760442971,7.40166844101862,0.898345391626642,-7.06634824966211,985.245523589176,0.0751587974417049,0.00845752348791246
79,-46.3333939143727,23.8266206572874,20.1657494849986,0.0457961975464536,2.07280607788714,1.60275360963547,1.67389060698793,-44.4309781039201,-23.2364363598129,1.401917874853,-0.146838618536705,-2.08663839702349,-1.69706943088848,-1.46437511557598,7.32167085806256,5.33573194346646,-0.142188285886729,-24.3264094577762,-7.50874666706408,-39.2030209718823,-4.82917714515645,7.21199137410723,-0.390103485564828,-8.3694041759964,-27.0490553214583,-44.0841413413212,-14.2514125543058,4.10652907380077,4.22207488528369,-4.91663269883442,-46.898147229565,-75.9702675123592,0,0,0,0.716529036881568,6.70407217953865,9.24080146371521,-0.0217485954695812,0.895606962445674,1.69779724141096,1.71952306203187,-7.82966738653674,-7.64575701739128,-9.4061419045378,-0.249690493769383,-1.92569416826687,-2.07124385098291,-2.08001925613124,0.58020697112968,9.7396895433055,-1.84229177145157,-19.0354977080826,-12.4605200000993,-27.0324004217476,-2.5377132582235,9.52229177145154,-0.0367718287898747,-8.17476832447242,-3.03728013799937,-51.0258287786831,-1.3738453747215,9.17604395590394,-0.468399224053559,8.70299493985905,1.07370143540982,-7.53704085855246,983.927057137109,0.0822200071776376,0.00880066873679263
79.005,-45.8665267758033,20.0424861647979,22.404748901276,0.0477637202542833,2.05428838468056,1.92267808377872,2.00683523829879,-44.6557654638456,-32.1291513986306,-3.45110089495827,-0.144049941112024,-2.06024727527892,-1.68779625818051,-1.4636485357287,7.53263554974348,5.47549605170508,-0.181744165576895,-25.3616991484325,-7.59990424988916,-43.6762537862276,-5.35658887435874,7.82642603862791,-0.355821723166665,-11.520852039378,-29.9888873675674,-52.3892482622783,-14.1490963105044,2.52252462605376,4.45828603046327,-16.3522374569057,-26.9989024252134,-68.3649913429818,0,0,0,0.820277513443208,7.27169230311416,8.55729586230869,-0.0221729151689291,0.794585532037793,1.44742157829562,1.47185292475802,-7.9218882441128,-7.07813689381577,-9.11529264967332,-0.256542674280442,-1.93512411120427,-1.99242188296511,-1.998067739685,0.511643446333384,9.84253483049994,-1.84756588874361,-19.230835385565,-12.4833093958056,-26.6807926022794,-2.78559677094857,9.52756588874356,-0.086875943064092,-8.16500144059831,-2.32755324314691,-50.0198397396491,-1.48752988746751,9.18046514149247,-0.380609501619782,10.0043834923211,1.2490658410281,-8.00775591237194,982.608527814103,0.0892815536266376,0.00914383034851906
79.01,-45.6510581970215,18.2960319519043,23.5360517338449,0.0552022115145271,2.0235616267341,2.0703296661377,2.16536321370266,-44.7595093536377,-36.2333183288574,-8.31161224368461,-0.133095831504461,-2.02827186111164,-1.68351650238037,-1.47141267987603,7.58616356492483,5.64627014563679,-0.241179681434241,-25.9805437118019,-8.12576686671064,-45.4504658058996,-5.05669388043199,9.06510293391056,-0.199192057031243,-18.0247805311056,-27.2851098673354,-63.639812788814,-12.619301677858,3.15760593120315,4.03026698702737,10.0644069890444,-14.3419592761574,-56.3746452872911,1.32837682045973,0,0,0.868159523010256,7.53366041183472,8.04928865985239,-0.0216057648921364,0.714029347779872,1.33186817169189,1.35893059133111,-7.96445002555847,-6.81616878509521,-8.79549117159944,-0.262189076455459,-1.96215408500455,-1.95604395866394,-1.9579643760292,0.367087970260938,9.92719455097286,-1.88852292779335,-19.6440620168279,-13.7779247536049,-26.4840791194696,-2.96641884102296,9.55523915958872,-0.0170136225678339,-8.25725213877424,-2.98562280135345,-49.6801933806851,-1.54540610863142,9.32185471468784,-0.362363195631349,10.5538579579188,1.1951697896212,-8.62019240954617,972.43568689269,0.0971684161818799,0.00927632051434747
79.015,-45.6510581970215,18.2960319519043,23.7179865243591,0.06733083234527,1.98236708058581,2.0703296661377,2.17379977631659,-44.7595093536377,-36.2333183288574,-13.1789763361824,-0.115141706646479,-1.99150700824675,-1.68351650238037,-1.48692351168108,7.50474860598076,5.84363974307696,-0.317660400442311,-26.2424848442071,-9.02428586740282,-44.9113544054842,-4.04764181351906,10.8389621909042,0.062322659576997,-27.4028822366351,-19.7436419157631,-77.4160888570538,-9.86580060523075,5.69484505459463,3.0328614739977,68.9286547550591,-7.89167400687969,-40.6245505798397,3.79549678846199,0,0,0.868159523010256,7.53366041183472,7.69166588851871,-0.0201887204381084,0.651007928072183,1.33186817169189,1.36148529866818,-7.96445002555847,-6.81616878509521,-8.45084481485732,-0.266802439123533,-2.00427241593339,-1.95604395866394,-1.95373014498302,0.15738277298074,9.99627391007693,-1.96006940686541,-20.244089959663,-16.1628073893404,-26.4201167499288,-3.08977483942308,9.60211443898077,0.155684775192321,-8.43695593891268,-4.81616490106871,-49.9116762418804,-1.55545107067365,9.58066001700291,-0.403724796255429,10.4588737826828,0.94475710169303,-9.3541604588571,954.672423123074,0.105763401430611,0.00922824422297774
79.02,-45.6510581970215,18.2960319519043,23.899912639745,0.0794588748515408,1.94117449870159,2.0703296661377,2.17955909437327,-44.7595093536377,-36.2333183288574,-18.0461083399861,-0.0971884378882897,-1.95474390842652,-1.68351650238037,-1.50576799271408,7.4233375291156,6.04099992941674,-0.39413747264898,-26.5044134865716,-9.92276202435093,-44.3722687113154,-3.03863786085688,12.612736865633,0.323824906477216,-36.780536769663,-12.2025335611749,-91.1917080362955,-7.11243082676103,8.23196319576583,2.03550351988054,127.790095719254,-1.44169630413209,-24.8752068782392,6.26249911770934,0,0,0.868159523010256,7.53366041183472,7.33406016957734,-0.0187717435524789,0.587989513391182,1.33186817169189,1.36396442454754,-7.96445002555847,-6.81616878509521,-8.106214891758,-0.271415581814369,-2.04638873854968,-1.95604395866394,-1.94908829518572,-0.0523124250052898,10.0653499752959,-2.03161247441357,-20.844089291591,-18.5475763076129,-26.3561574302816,-3.21312495588544,9.64898748323648,0.328374938239633,-8.61665117030231,-6.64661971573248,-50.1431480653653,-1.56549555374572,9.83945297880195,-0.445084424649839,10.3638941365416,0.69435635409902,-10.0880935106452,936.910006352493,0.114357976847888,0.00918017022401176
79.025,-45.6510581970215,18.2960319519043,24.0818474302592,0.0915874956822838,1.8999799525533,2.0703296661377,2.18247135817386,-44.7595093536377,-36.2333183288574,-22.913472432484,-0.0792343130303074,-1.91797905556162,-1.68351650238037,-1.52771305583886,7.34192257017153,6.23836952685691,-0.47061819165705,-26.7663546189768,-10.8212810250431,-43.8331573109,-2.02958579394395,14.3865961226266,0.585339623085456,-46.1586384751926,-4.66106560960257,-104.967984104535,-4.35892975413373,10.7692023191573,1.03809800685087,186.654343485268,5.0085889651456,-9.12511217078779,8.7296190857116,0,0,0.868159523010256,7.53366041183472,6.97643739824366,-0.0173546990984508,0.524968093683492,1.33186817169189,1.36637040444855,-7.96445002555847,-6.81616878509521,-7.76156853501587,-0.276028944482443,-2.08850706947853,-1.95604395866394,-1.94415043843417,-0.262017622285487,10.1344293343999,-2.10315895348563,-21.4441172344261,-20.9324589433484,-26.2921950607408,-3.33648095428556,9.69586276262854,0.501073335999788,-8.79635497044075,-8.47716181544773,-50.3746309265606,-1.57554051578795,10.098258281117,-0.486446025273919,10.2689099613056,0.443943666170853,-10.8220615599561,919.146742582876,0.122952962096619,0.00913209393264203
79.03,-45.6079741366676,15.9977651497615,23.2710529798546,0.104488831829675,1.85853286058208,2.06924659013098,2.18135784365914,-45.1122634463234,-35.0841849369651,-26.6910538309142,-0.0643723815451732,-1.8804185252896,-1.72359031462867,-1.59250638347944,7.43305589535518,6.56175982559193,-0.417600072670008,-25.4395665816607,-10.0930182205864,-40.8877453080364,-0.892768485435709,15.3172479864349,0.0547205232241494,-47.9106987162378,2.9121353695891,-110.724781298386,-2.94108414649963,12.0756893157959,0.524509310722351,216.964996337891,8.32999992370605,-1.01499998569489,10,0,0,0.908551123323444,6.29613209167515,6.59836917730766,-0.0179139380400043,0.487155972062848,1.26580052793925,1.30263873148751,-8.02099825131036,-6.72777394494737,-7.46369235331648,-0.281432083800409,-2.1483259878102,-1.95387780665052,-1.93686854817659,-0.323184036819481,10.2697919215164,-2.09441603585053,-21.1644646604658,-22.5392194552291,-26.4159208644442,-3.35688003391266,9.77790395446015,0.642975958335832,-9.24175774716966,-9.751328134287,-50.4770963094546,-1.58926984056788,10.1810672638036,-0.462894076978475,10.5347759395713,-0.0428957100409205,-12.4375429628634,908.1520014534,0.134711886527558,0.00932835535310023
79.035,-45.5191460877352,11.2593409092445,21.4062579526577,0.118211781626361,1.81681358128943,2.06701357105777,2.1761341565797,-45.8395500007675,-32.7149728356316,-29.3120499234226,-0.0527917845372216,-1.84200957967647,-1.80621202033761,-1.7022130547347,7.70738230485073,7.01897050808452,-0.227095621631433,-22.4259899981533,-7.63762751831142,-35.3874192648815,0.379801247501974,15.3528088172955,-1.3169115242536,-41.5668220997598,10.5197699081831,-107.968346525334,-2.94108414649963,12.0756893157959,0.524509310722351,216.964996337891,8.32999992370605,-1.01499998569489,10,0,0,0.991828024794953,3.74467279847946,6.19855808589619,-0.0205713330597948,0.476103327233433,1.12958634933322,1.16869359185131,-8.13758588309061,-6.54552693476446,-7.21543996675125,-0.287674212617143,-2.2269424348758,-1.94941176850409,-1.9272294871701,-0.226661781626603,10.4755367286381,-2.00043384000483,-19.950880750146,-23.3200525138069,-26.7389160653821,-3.26797795676133,9.89728674377765,0.752198510264618,-9.96928091821409,-10.4349490450098,-50.4426016763448,-1.60691198116861,10.0770396905831,-0.370425006511361,11.1837609380536,-0.780782927989902,-14.9890328387247,904.341912432629,0.149830930714012,0.00978403470626098
79.04,-45.4303222743572,6.52114260923109,19.5415518437816,0.131934077076786,1.7750962912815,2.06478065846076,2.16801222635414,-46.56680187628,-30.3458737045489,-31.9329210399586,-0.041211739722528,-1.80360246550266,-1.88882978642679,-1.81380269666707,7.98169563374311,7.47615938957184,-0.0366002543450523,-19.4125571098865,-5.18235389550917,-29.8873554917076,1.65231030097499,15.3883679525223,-2.68847816871555,-35.2232479759681,18.1270416947964,-105.212043186326,-2.94108414649963,12.0756893157959,0.524509310722351,216.964996337891,8.32999992370605,-1.01499998569489,10,0,0,1.07510095540524,1.19333516555906,5.79876605852685,-0.0232286013680165,0.46505120942313,0.993378665776716,1.03469053145206,-8.25416795566659,-6.3632886145973,-6.96719941751133,-0.293916043792794,-2.30555513330288,-1.94494594331008,-1.91765242793905,-0.130144128868172,10.6812717253074,-1.90645612547688,-18.737354706692,-24.1008483402153,-27.0618958650611,-3.17908011869436,10.0166638406104,0.861415854175477,-10.6967693990444,-11.1185373588934,-50.4081086880296,-1.62455328054578,9.97301707767035,-0.277960345212207,11.8327149912279,-1.51863496153978,-17.5404010528526,900.532005086901,0.164949253984759,0.0102396923314343
79.045,-45.3414942254248,1.78271836871412,17.6767568165846,0.145657026873472,1.73337701198884,2.06254763938755,2.15713176608407,-47.294088430724,-27.9766616032153,-34.5539171324669,-0.0296311427145764,-1.76519351988953,-1.97145149213573,-1.9267510463434,8.25602204323866,7.93337007206442,0.153904196693523,-16.3989805263791,-2.72696319323419,-24.3870294485527,2.92488003391268,15.4239287833828,-4.0601102161933,-28.8793713594901,25.7346762333904,-102.455608413274,-2.94108414649963,12.0756893157959,0.524509310722351,216.964996337891,8.32999992370605,-1.01499998569489,10,0,0,1.15837785687675,-1.35812412763663,5.39895496711538,-0.025885996387807,0.453998564593714,0.857164487170688,0.900618311042429,-8.37075558744684,-6.18104160441439,-6.7189470309461,-0.300158172609529,-2.38417158036847,-1.94047990516365,-1.9082506895338,-0.0336218736752947,10.887016532429,-1.81247392963118,-17.5237707963722,-24.8816813987932,-27.3848910659989,-3.09017804154303,10.1360466299279,0.970638406104263,-11.4242925700888,-11.8021582696162,-50.3736140549197,-1.64219542114651,9.8689895044499,-0.185491274745093,12.4816999897102,-2.25652217948876,-20.0918909287139,896.72191606613,0.180068298171212,0.010695371684595
79.05,-45.3319698395445,-1.36391771352496,15.1829682922864,0.157134983095011,1.68864549751158,2.03197988602166,2.11537221905717,-47.7820018794183,-27.9111016426703,-35.5831359448654,-0.0122296296888379,-1.72105228627406,-1.98785388654096,-1.9742669051131,8.62656776820215,7.90604081085363,0.270820971025274,-16.7268287705773,-0.429068064289552,-19.9018494665987,3.30806940770628,15.1654131672294,-4.48947036093471,-20.1110464007734,21.1839469603974,-95.8430149780354,-2.62065199023519,11.9532204080608,-0.0750846885781267,196.655378283294,12.5321592499285,1.75048173864685,13.6424783938954,0,0,1.1960136795044,-2.10915141174086,4.72174723307152,-0.0300827149987126,0.440529912647553,0.751266545838928,0.796800745863358,-8.46325244258671,-6.09867763519287,-6.54425756193014,-0.304849482214542,-2.46822230229233,-1.9618620781765,-1.92497761211098,-0.0124152516547458,10.9743961870863,-1.69995233857892,-16.9804973576361,-24.1708811907665,-27.1918681076907,-3.02057998220316,10.2026085790558,0.962560917634712,-11.9122070333515,-11.9900410790253,-50.1695013556816,-1.70150479237569,9.93169439368038,-0.156451361126596,13.8243135545526,-2.28599307796446,-22.5100614334831,887.715043212209,0.191866637077457,0.010765744911457
79.055,-45.3878444438342,-3.19811826734884,12.1702470129155,0.166762545933706,1.64142597323754,1.9780425007599,2.04798064030547,-48.0725525522622,-29.7453023564867,-35.2997439644274,0.00997376652924471,-1.67217993224445,-1.94964823864722,-1.96737658045988,9.07649548374513,7.47912076258274,0.32706193546814,-19.8102980332421,1.73914420126903,-16.2534457126166,2.95784158367566,14.6643573021929,-4.14179894437876,-9.34257442102684,6.60611223752247,-86.0497651089985,-2.03593927978727,11.7297436889255,-1.16920157305821,159.595140761238,20.2001036847616,6.79683018751963,20.2891378280532,0,0,1.1960136795044,-1.3754711734502,3.81571825247726,-0.0355492418159351,0.425067665982478,0.670360460327596,0.717914240137525,-8.53589026317145,-6.09867763519287,-6.43021845775041,-0.308262276794836,-2.5567618528796,-2.00456250817539,-1.96339622239719,-0.0533177712495546,10.9641705571876,-1.57213196484511,-16.9899655334683,-22.2299051451792,-26.5732806199913,-2.96689542523495,10.2256162463279,0.857748211173002,-12.202564425537,-11.7691169762755,-49.8254909671141,-1.79518128457134,10.1319049806398,-0.179717417115476,15.7390626945734,-1.73125268216804,-24.8184970710541,874.421724343894,0.200927496969788,0.0105183715889556
79.06,-45.4437163838761,-5.03223136167655,9.1576693880019,0.176389649704938,1.59420870051436,1.92410768737422,1.97867068719757,-48.3630893708875,-31.5794156107992,-35.0163654968627,0.0321761040311239,-1.62330990857693,-1.91144441249903,-1.96010684954471,9.52640174555382,7.05222107098018,0.383300218194219,-22.8936202680001,3.90725308077642,-12.6052159241005,2.60763045942684,14.1633253288151,-3.7941441057084,1.42538408971439,-7.9710273759341,-76.2569822078174,-1.45125444997593,11.5062776257468,-2.26326628717379,122.53667036857,27.8676824918799,11.8429380132545,26.9354803320453,0,0,1.1960136795044,-0.641825918958797,2.90973247372262,-0.0410155079748123,0.409606156597905,0.589458232630755,0.638971878865783,-8.60852462019427,-6.09867763519287,-6.31618479125447,-0.311674908644127,-2.64529718166873,-2.04726090210572,-2.00226463236125,-0.0942183405048825,10.9539454148738,-1.44431768592219,-16.9994332578329,-20.2890216504236,-25.9547226281667,-2.91321342808731,10.248622816534,0.752940502456211,-12.4929079727199,-11.5482034077668,-49.4814969818647,-1.888853310026,10.3321060210331,-0.202982363717745,17.6537205343301,-1.17653873784958,-27.1268226363555,861.129039335909,0.209987924816539,0.0102710100618635
79.065,-45.4995909881657,-6.86643191550044,6.14494810863099,0.186017212543633,1.54698917624033,1.87017030211246,1.90782798211392,-48.6536400437314,-33.4136163246155,-34.7329735164247,0.0543795002492065,-1.57443755454732,-1.87323876460528,-1.95189100107895,9.97632946109681,6.62530102270929,0.439541182637085,-25.977089530665,6.075465346335,-8.95681217011835,2.25740263539622,13.6622694637786,-3.44647268915245,12.193856069461,-22.5488620988091,-66.4637323387806,-0.866541739528011,11.2828009066116,-3.35738317165387,85.4764328465137,35.535626926713,16.8892864621272,33.5821397662031,0,0,1.1960136795044,0.0918543193318708,2.00370349312835,-0.0464820347920349,0.39414390993283,0.508552147119423,0.559968082770839,-8.681162440779,-6.09867763519287,-6.20214568707475,-0.315087703224421,-2.733836732256,-2.08996133210462,-2.04164862807999,-0.135120860099691,10.9437197849751,-1.31649731218838,-17.0089014336651,-18.3480456048362,-25.3361351404673,-2.85952887111911,10.2716304838061,0.648127795994501,-12.7832653649054,-11.327279305017,-49.1374865932972,-1.98252980222166,10.5323166079926,-0.226248419706624,19.5684696743509,-0.621798342053161,-29.4352582739266,847.835720467594,0.21904878470887,0.0100236367393621
79.07,-45.5377912662944,-6.00804437607294,3.64624837740257,0.191360033131638,1.46270593344925,1.81316362603339,1.83281425261027,-48.9237829082374,-32.7899389562408,-34.0882418435886,0.0702585183276307,-1.49256458293858,-1.85215108437384,-1.95932245537778,10.0156920964558,6.48799193340773,0.211384192911679,-26.6504815694152,2.83973925010568,-8.10416434913703,1.21895391744615,12.632743499528,-2.80804771303526,16.6300703575511,-37.9382387622326,-62.2974648609535,-0.908469217233593,10.8787155558109,-2.99620519754028,58.9712959369099,32.5544969176853,13.5155177823895,40.9068909293744,0.0105071454974272,-0.0154478014676569,1.19243848355289,0.00668048156614126,1.24904154544945,-0.0506046614939431,0.341211623782568,0.474807130354909,0.528071816266706,-8.77908568157614,-7.15487334775912,-6.32548054381487,-0.319013323298375,-2.81374550964428,-2.14863199931117,-2.09755989610331,-0.282486055093087,10.8860241997769,-1.34033210332102,-18.1310360390426,-18.2558414989835,-24.6466728749975,-2.8743482365056,10.28,0.518404702651691,-12.6364768040445,-11.2085469433506,-48.7639721875255,-2.05773891013835,10.3630540286033,-0.261741757414622,21.3813172008698,-0.294056481080516,-33.4464870013567,839.0744872565,0.227458181785972,0.00984140281398212
79.075,-45.5658881690669,-3.60996166718402,1.44128059723453,0.194253224293026,1.35722321593105,1.75439764652745,1.75539294067741,-49.1822767675759,-30.7607919756337,-33.2368466086944,0.0825224260920559,-1.39181561189328,-1.84084993446885,-1.9745947473616,9.82029520295202,6.51627306273064,-0.179409594095954,-25.9458339027835,-3.48621930663752,-8.85007516741834,-0.213099630996312,11.3009594095941,-2.00332103321033,17.4458111247779,-53.7928112614459,-61.3484123730126,-1.30871478239988,10.3713273016729,-1.80285770954681,38.4996140891775,23.4839672637602,5.32684523944925,48.619926199262,0.0270230992803714,-0.0397298650548027,1.18681871069314,-0.546723225789756,0.580875208036137,-0.0539591506337894,0.266849877017806,0.468026440411916,0.523093142989423,-8.89147454926888,-8.81508444684018,-6.58455586545638,-0.323232472926458,-2.88872517146086,-2.2164388987411,-2.16318877218346,-0.490738007380052,10.8011808118081,-1.45088560885607,-19.8894811170334,-19.2207644298665,-23.9166324996583,-2.92833948339482,10.28,0.374428044280455,-12.2397157304906,-11.1482392601704,-48.3735592911485,-2.12239394328691,9.98251277670209,-0.304229355771163,23.1360329209219,-0.096088573061672,-38.4316791309202,832.90405904059,0.235495700552455,0.00969640215398311
79.08,-45.5939837321054,-1.21199330517231,-0.763582044282912,0.197146277499466,1.25174552810566,1.69563446913764,1.67779132624071,-49.4407583012487,-28.73174175008,-32.3854919705595,0.0947857490811728,-1.29107144482332,-1.82954932343235,-1.98751038495816,9.62490762648489,6.54455284353508,-0.570184747030203,-25.2412198356018,-9.81187622507456,-9.59595041871424,-1.64508489536723,9.9692388226208,-1.19863272486545,18.261512995344,-69.646627773033,-60.3994051383851,-1.7089412628072,9.86396324113849,-0.609567123493452,18.0289083849627,14.4138701164941,-2.86143684609342,56.3325936913854,0.043538265539294,-0.0640107708094296,1.1811992057989,-1.10010054540451,-0.0872592694526338,-0.0573134798227898,0.19249167601629,0.461246073790015,0.518078437755235,-9.00385805796546,-10.4752163826989,-6.84361883370663,-0.327451421374415,-2.96370125805038,-2.28424256496011,-2.22940072279962,-0.698980029667385,10.7163414693948,-1.56143384290984,-21.647842347748,-20.1856413506918,-23.1866269345602,-2.9823281558397,10.28,0.230458251094151,-11.842973575546,-11.0879344526188,-47.983165010683,-2.18704589351381,9.60198967000651,-0.346714928207508,24.8906649715232,0.101869895327761,-43.4166335534395,826.733925046892,0.243532836068948,0.00955140840799611
79.085,-45.6220806348778,1.18608940371661,-2.96854982445095,0.200039468660854,1.14626281058746,1.6368684896317,1.60046722011738,-49.6992521605872,-26.7025947694729,-31.5340967356654,0.107049656845598,-1.19032247377802,-1.81824817352736,-1.99772976866262,9.42951073298108,6.57283397285799,-0.960978534037836,-24.5365721689701,-16.1378347818178,-10.3418612369956,-3.07713844380969,8.63745473268687,-0.393906045040514,19.0772537625708,-85.5012002722464,-59.4503526504442,-2.1091868279735,9.3565749870005,0.583780364500017,-2.44277346276967,5.3433404625689,-11.0501093890337,64.045628961273,0.0600542193222383,-0.0882928343965754,1.17557943293914,-1.6535042527604,-0.755425606865943,-0.060667968962636,0.118129929251528,0.454465383847022,0.513041663962742,-9.1162469256582,-12.1354274817799,-7.10269415534814,-0.331670571002498,-3.03868091986695,-2.35204946439004,-2.29618813788869,-0.907231981954351,10.631498081426,-1.6719873484449,-23.4062874257388,-21.1505642815749,-22.4565865592211,-3.03631940272892,10.28,0.0864815927229155,-11.4462125019921,-11.0276267694386,-47.5927521143059,-2.25170092666237,9.22144841810532,-0.38920252656405,26.6453806915753,0.299837803346605,-48.401825683003,820.563496830982,0.25157035483543,0.0094064077479971
79.09,-45.6112445483598,2.53052229769112,-3.34184434810673,0.20245720169139,1.01661720853681,1.59489491008105,1.54066422028421,-49.8679972314507,-21.7676768357394,-29.9230151184601,0.144502180759038,-1.03628319274425,-1.80816245720753,-2.00620989777341,9.22596466375477,6.68885163761329,-0.959363580319784,-24.0131883830559,-19.0845881186827,-12.0699497794379,-4.19374624535999,7.4456173349598,-0.130439669985172,14.623589333025,-77.327540795604,-61.0253382839767,-1.90120427450157,9.14488090086128,0.974697497767309,-7.85283790871032,2.72152586038566,-12.8302789704697,73.393696139771,0.0803865570311186,-0.0808875337610044,1.16517774750756,-2.08844613971233,-1.14140030756971,-0.0638265378930354,0.0224952591596362,0.449136170973224,0.509453886847703,-9.27490529337082,-13.4402531612945,-7.92196373009796,-0.3337776759995,-3.10475771166755,-2.45228569280467,-2.39594508307802,-0.935354346200742,10.7106364196802,-1.81706685554636,-24.5998423735365,-23.2865903018755,-22.2361070830052,-2.91239509962094,10.5223489290258,-0.0218831569144334,-11.3431434512552,-11.1644793444397,-47.6916009255494,-2.2779213858826,9.35473748846065,-0.496378755494091,26.4718049561159,-0.455091348467407,-53.0003789576174,812.633206101864,0.25624658930314,0.00890208075335622
79.095,-45.5871965605993,3.51732127226062,-3.09351885178291,0.204713466517316,0.878777798171511,1.5586220519825,1.48771136667244,-50.006276833644,-15.8468829227408,-28.054200835195,0.190501004403474,-0.864166494650656,-1.79848969504791,-2.01197252476406,9.0196627710227,6.83463830847729,-0.824579677068165,-23.5513438166105,-20.884423561448,-14.1312707487937,-5.20325017379557,6.3013295032726,-0.0506696047954338,8.38189585415197,-60.9999770053854,-63.4568140896748,-1.48682148961562,9.03354458314856,1.0932807796335,-8.1512879906891,2.288291872532,-12.4355545669521,83.2961869909102,0.102013064924401,-0.0627290657057835,1.15315375362727,-2.48316572298197,-1.43159118987163,-0.066918468135024,-0.0803540949325215,0.444299789893417,0.506380476317724,-9.4492582544187,-14.6244119438942,-8.93130346945143,-0.335167930619482,-3.16781004764364,-2.56352245764023,-2.50719445471108,-0.90234604336361,10.8454203229319,-1.97385629402273,-25.6016375728116,-25.819943585466,-22.1885642599888,-2.72809874211362,10.8469305735909,-0.118157373522737,-11.3397475353255,-11.3682343002245,-47.9564823680696,-2.29109732066364,9.66239522785278,-0.625502804859602,25.6438466303262,-1.53336255447795,-57.4675020206312,804.106061202272,0.259781905108971,0.00827583572599393
79.1,-45.5631474261128,4.50416730223877,-2.84518151408309,0.206969838933,0.740931814947959,1.5223474642164,1.4362875374609,-50.1445630296861,-9.9258066772872,-26.185297437711,0.236502021497132,-0.692041589189837,-1.78881647164362,-2.01451248784184,8.81335104080588,6.98043193116385,-0.689789346659841,-23.0894772271539,-22.6843448291832,-16.1926900120301,-6.2128022403232,5.15698710633664,0.0291042642217415,2.13990474076083,-44.6716346369499,-65.8884058400491,-1.07241894492876,8.92220295637486,1.21186971613142,-8.44975230422966,1.85503722595974,-12.0408113410414,93.1991500413174,0.12364060407551,-0.0445697317658621,1.14112918638405,-2.87790412841475,-1.72179590989622,-0.0700105458153915,-0.183208353385658,0.439463178191271,0.503356815534755,-9.62361952946978,-15.8086271929849,-9.94069133906761,-0.336558251533615,-3.23086539026395,-2.67476452678959,-2.61887865576422,-0.869336166528918,10.9802106533402,-2.13065320898751,-26.6034805425887,-28.3534176717499,-22.1410191698977,-2.54379359645326,11.1715276957987,-0.214436180957259,-11.3363514574618,-11.5719989720436,-48.2213764414344,-2.3042738837378,9.97006763787289,-0.75463301149226,24.815848823428,-2.61168517774118,-61.9348380979535,795.578509686643,0.263317389495976,0.00764956083620127
79.105,-45.534438541886,5.57822450621328,-2.42911328290942,0.209968661344401,0.615160130405817,1.47535614864255,1.37600921222398,-50.266125474908,-4.37908324899948,-24.1143843208456,0.281863883664832,-0.516233843854014,-1.76305176788359,-1.99772918700502,8.57538086269585,7.13227484370505,-0.531553009495403,-22.7984293159901,-24.2828204882274,-18.591262725053,-7.09199704412882,4.14122053938109,0.10183080907167,-3.61271418601803,-29.3965265849176,-68.020376070264,-0.704574258714808,8.78123143830691,1.34408124961787,-8.64878588883532,1.58747694840591,-11.5233959682494,103.495160741845,0.143754079144914,-0.0284275772227035,1.11977190515879,-3.53521590743751,-2.06054221334053,-0.0726804641364178,-0.279848776922879,0.428190328241207,0.493978961348362,-9.79925079318699,-17.0143017960074,-10.9967202060199,-0.337630537721726,-3.29252558952554,-2.78060083784807,-2.72551289736083,-0.782939783933639,11.1283775406106,-2.26694865154724,-27.4086907715654,-30.6979855639294,-22.0456493664399,-2.38335648329802,11.475561877109,-0.277114886604422,-11.3879562377343,-11.5888409968645,-48.4496326394319,-2.33754272761728,10.2771157938735,-0.851852860661994,23.4221291990402,-3.84767264680761,-66.9345236820693,785.406353815167,0.26714022548381,0.00628702265211229
79.11,-45.4684912845153,7.34945955765812,-0.672888831934282,0.218900094918503,0.58579436405466,1.34273030062275,1.23223125660691,-50.2541363961952,-1.82063289525485,-20.4287570749837,0.322139073030199,-0.310929065798235,-1.60872350836964,-1.84921884994234,8.08439391561379,7.33250974391169,-0.185942085851051,-23.8719023984442,-24.2726614369739,-23.6843337534785,-6.93016335766042,4.15219231473488,0.118288472102354,-5.45827516373872,-22.529007937546,-67.7596270880906,-0.708515908348186,8.40349057370649,1.58517841285389,-8.05356705496527,2.64351036544623,-10.0257487527874,116.935585550237,0.151780536263279,-0.0283934584456498,1.02384776560585,-6.29047018485239,-2.78722541266139,-0.0719789567304502,-0.32688919414235,0.365494468726358,0.433294468732886,-9.98510309420515,-18.3919288693179,-12.4258099118993,-0.3361625500404,-3.34306661959706,-2.84329669327561,-2.78928044098276,-0.270009286144018,11.3834713175861,-2.23951921316277,-26.6433755771344,-31.5344141171349,-21.568173957525,-2.41352886552094,11.6154520128698,-0.0713940987208777,-11.8789770483205,-10.112392214688,-48.385291981493,-2.53134016064965,10.5793084855539,-0.69418714508898,17.5083422990431,-6.34375157903273,-76.1892156070343,762.091331188365,0.273260310495323,-0.00095800066582953
79.115,-45.4025471716828,9.12061015196719,1.0832518776499,0.227831102618411,0.556429997940311,1.21011077655145,1.09080115247467,-50.2421478891531,0.737695464862375,-16.7433055695017,0.362412341968836,-0.105634077213086,-1.45440260763213,-1.69769218542864,7.59343038007794,7.53273509639278,0.159652358157421,-24.9453242948844,-24.2625028701306,-28.7771619309109,-6.76833738784692,4.16316356692563,0.134745350388473,-7.3037481402684,-15.6618167514869,-67.4988905391131,-0.712457370033365,8.02576772078184,1.82626407994443,-7.45837660269134,3.69949342804172,-8.52817294907522,130.3753694839,0.159806610659104,-0.0283593412954689,0.927928199967639,-9.0455930845123,-3.51387396182016,-0.0712774827741968,-0.373927368351273,0.302801598714633,0.372764001366085,-10.1709465332978,-19.7694902537541,-13.854831475031,-0.334694632356581,-3.39360523973962,-2.90598955920023,-2.85323167472376,0.242896753773308,11.6385529310209,-2.21209108268592,-25.8780968749405,-32.3708027872319,-21.0907213158907,-2.44369980904549,11.7553354783018,0.134316879855596,-12.3699744457459,-8.63601383346428,-48.3209543914855,-2.72512835291179,10.8814867678936,-0.536528947431071,11.594837383926,-8.83971149166353,-85.4434662439998,738.777420283031,0.279380103685121,-0.00820267852204534
79.12,-45.3365999143121,10.891845203412,2.83947632862504,0.236762536192512,0.527064231589154,1.07748492853164,0.951841480757778,-50.2301588104403,3.296145818607,-13.0576783236398,0.402687531334203,0.0996707008426929,-1.30007434811817,-1.54333762161781,7.10244343299587,7.73296999659942,0.505263281801773,-26.0187973773385,-24.2523438188771,-33.8702329593364,-6.60650370137852,4.17413534227943,0.151203013419157,-9.14930911798908,-8.79429810411525,-67.2381415569397,-0.716399019666743,7.64802685618142,2.06736124318046,-6.86315776882128,4.75552684508204,-7.03052573361327,143.815794292291,0.16783306777747,-0.0283252225184152,0.832004060414702,-11.8008473619272,-4.24055716114102,-0.0705759753682291,-0.420967785570745,0.240105739199784,0.312414115634348,-10.356798834316,-21.1471173270647,-15.2839211809104,-0.333226644675255,-3.44414626981114,-2.96868541462777,-2.91728384024472,0.75582725156293,11.8936467079965,-2.18466164430146,-25.1127816805095,-33.2072313404374,-20.6132459069758,-2.47387219126842,11.8952256140626,0.34003766773914,-12.8609952563321,-7.15956505128774,-48.2566137335466,-2.91892578594416,11.1836794595739,-0.378863231858057,5.68105048392893,-11.3357904238887,-94.6981581689649,715.46239765623,0.285500188696634,-0.0154477018399872
79.125,-45.2447659644011,12.8115546246013,4.68806791488408,0.251211474396006,0.57606759779607,0.944819954010566,0.815379927985897,-50.1860279311421,5.54818981461647,-9.39356772566955,0.431919692694702,0.31034073551519,-1.14497149550319,-1.38564493149099,6.88561214953269,7.80794821924726,0.667810305632732,-26.4206148516117,-22.8802232138681,-38.3595497366526,-6.28454268754735,4.51654369790352,0.106991285678226,-10.2529908413086,-6.28925280420606,-65.9253597834595,-0.718505918979645,7.44611597061157,2.19623303413391,-6.54500007629395,5.32000017166138,-6.23000001907349,151,0.17212338745594,-0.0283069852739573,0.702591921147991,-14.3349864206702,-5.42667745221693,-0.0678659872653068,-0.439710817813747,0.159992340748721,0.234857728975478,-10.5423630066971,-21.7950401125005,-16.5732593406995,-0.326169671727863,-3.48965557316953,-3.03471011322356,-2.98467574491476,1.01767239201816,12.0546552159636,-2.03562907299824,-24.082757523879,-32.2845867674528,-19.16331206596,-2.45794821924729,12.02424147512,0.625052033341744,-13.0991059595421,-6.91978598536232,-48.5098664084645,-3.02251482009888,11.3452081680298,-0.294587403535843,2.51999998092651,-12.6700000762939,-99.6449966430664,703,0.288771510124207,-0.0193203277885914
79.13,-45.1231930884245,14.9019757960474,6.64292772961551,0.271998459503884,0.715078850422636,0.812096453410834,0.681381589115516,-50.1049793471577,7.44857278960195,-5.75379249418502,0.448472506470609,0.527194070741738,-0.988963173006514,-1.22478367626481,6.98361214953269,7.7390833543824,0.620134629957055,-26.0511120154422,-19.9438201441317,-42.1559461330489,-5.77865079565546,5.23962477898461,-0.00690060621366795,-10.5047759597604,-8.79402424231084,-63.4042386623384,-0.718505918979645,7.44611597061157,2.19623303413391,-6.54500007629395,5.32000017166138,-6.23000001907349,151,0.17212338745594,-0.0283069852739573,0.534707300687687,-16.6154457885769,-7.14055882503294,-0.0628490860796098,-0.425957697761495,0.0598675986982922,0.137520148142648,-10.7276152891232,-21.6050019160399,-17.7022322209564,-0.312693317384551,-3.52939086288683,-3.10456457891438,-3.0558261621856,0.991185905531686,12.1076281889366,-1.74692637029553,-22.7486233897449,-29.3416438245099,-16.5964118323932,-2.38908335438243,12.1407820156605,1.00116014144986,-13.0467869738898,-8.10023309914275,-49.1278844264826,-3.02251482009888,11.3452081680298,-0.294587403535843,2.51999998092651,-12.6700000762939,-99.6449966430664,703,0.288771510124207,-0.0193203277885914
79.135,-45.0016260093618,16.9922972907259,8.59769433150053,0.292784453433757,0.854083474627848,0.679379281415937,0.549820687535388,-50.0239346277825,9.34886514933972,-2.11419081673595,0.465024530964913,0.744037065832141,-0.832962289396095,-1.06199966333872,7.08160747663549,7.67022177317503,0.572461227582716,-25.6816267981377,-17.0075570898001,-45.9521615073017,-5.27278302601667,5.96267138166205,-0.120787067441253,-10.7565490724369,-11.2986762463398,-60.8832377548889,-0.718505918979645,7.44611597061157,2.19623303413391,-6.54500007629395,5.32000017166138,-6.23000001907349,151,0.17212338745594,-0.0283069852739573,0.366830685406692,-18.895796418196,-8.8543584754871,-0.0578324241129279,-0.412205233494101,-0.040252369141663,0.0404247854997471,-10.9128587382344,-21.4149727810992,-18.8311512688234,-0.299217605629182,-3.56912425792123,-3.17441571376094,-3.12682769531103,0.964700681990396,12.1605986360192,-1.45823743369537,-21.4145528706276,-26.39884120881,-14.0296339953661,-2.32022177317506,12.2573169992423,1.3772503157363,-12.994470482944,-9.28062392610678,-49.7458729757795,-3.02251482009888,11.3452081680298,-0.294587403535843,2.51999998092651,-12.6700000762939,-99.6449966430664,703,0.288771510124207,-0.0193203277885914
79.14,-44.8800531333852,19.082718462172,10.552554146232,0.313571438541635,0.993094727254414,0.546655780816205,0.42052179009695,-49.9428860437981,11.2492481243252,1.52558441474857,0.48157734474082,0.960890401058689,-0.676953966899423,-0.897632242874255,7.17960747663549,7.60135690831016,0.524785551907039,-25.3121239619682,-14.0711540200637,-49.7485579036981,-4.76689113412479,6.68575246274314,-0.234678959333146,-11.0083341908887,-13.8034476844446,-58.3621166337677,-0.718505918979645,7.44611597061157,2.19623303413391,-6.54500007629395,5.32000017166138,-6.23000001907349,151,0.17212338745594,-0.0283069852739573,0.198946064946388,-21.1762557861028,-10.5682398483031,-0.0528155229272309,-0.398452113441849,-0.140377111192092,-0.0564458506419753,-11.0981110206605,-21.2249345846386,-19.9601241490803,-0.28574125128587,-3.60885954763853,-3.24427017945176,-3.19762318060197,0.938214195503919,12.2135716089922,-1.16953473099266,-20.0804187364935,-23.4558982658671,-11.4627337617992,-2.2513569083102,12.3738575397828,1.75335842384441,-12.9421514972917,-10.4610710398872,-50.3638909937975,-3.02251482009888,11.3452081680298,-0.294587403535843,2.51999998092651,-12.6700000762939,-99.6449966430664,703,0.288771510124207,-0.0193203277885914
79.145,-44.683503603429,20.889776929001,12.3820580991685,0.341857342200008,1.18740760409104,0.492716373800672,0.372045431785072,-49.7871428714965,14.040255497171,4.37715262176505,0.498243057554917,1.21834279642979,-0.517827418734465,-0.728935234545101,7.2681406148831,7.64137064904328,0.553605461162327,-26.1326456920501,-12.3230775634119,-52.9098049317113,-4.60353993167966,7.23300341601735,-0.496102391212115,-9.88412926013305,-17.1104403390493,-56.487618074213,-0.718505918979645,7.44611597061157,2.19623303413391,-6.54500007629395,5.32000017166138,-6.23000001907349,151,0.17212338745594,-0.0283069852739573,-0.0049069778913185,-21.7676135625743,-12.2978902304294,-0.0485538139596849,-0.391203768313685,-0.218281818488638,-0.130893267384035,-11.296760225831,-21.6295029516637,-20.6611171188923,-0.272564871736305,-3.64049163971253,-3.28155173713528,-3.2355852490283,0.83148395811472,12.4108819129697,-1.14298566612337,-19.5689681025627,-22.3856958650286,-9.03171110410985,-2.20577474379871,12.427765187881,1.95721092232469,-12.8840551127385,-11.010594532553,-50.503715501133,-3.10180876012513,11.4662765375046,-0.414495323526622,2.14693103985458,-13.8570376917656,-103.799629067317,695.247918015584,0.289298455968335,-0.0216415931559418
79.15,-44.4532328661034,22.5695675467691,14.1553316642457,0.373516526576987,1.40659613425862,0.474192588908913,0.360733115420637,-49.5978081221168,17.2318581621337,6.87455984731107,0.514960678923461,1.49406530582422,-0.357287995315847,-0.557978502550823,7.35242380941748,7.730336243274,0.616817857063102,-27.4882293078465,-11.1091220865793,-55.7857232637313,-4.59417513228695,7.70124338565275,-0.823870369956904,-8.1412360398235,-20.7783201011933,-54.9036952139649,-0.718505918979645,7.44611597061157,2.19623303413391,-6.54500007629395,5.32000017166138,-6.23000001907349,151,0.17212338745594,-0.0283069852739573,-0.224944611327315,-21.5996345454523,-14.0347495215855,-0.0446313258726179,-0.386879305660197,-0.286202340996912,-0.195200590898477,-11.5014460823275,-22.3014194667,-21.1697495201991,-0.259522442534357,-3.66848292405998,-3.30419191014181,-3.25860876305319,0.68867076737592,12.6730962959655,-1.23429246020228,-19.4273399635989,-22.1573566205767,-6.66160755410348,-2.17065674607605,12.4535183862109,2.08363571412625,-12.8233573388969,-11.276508589383,-50.4285658763767,-3.21675674590176,11.6417825750125,-0.588319122382406,1.60611388134482,-15.5778196694854,-109.822367105708,684.010158744335,0.29006233985878,-0.0250066016085632
79.155,-44.2229731086909,24.2492780677121,15.9285206749855,0.405174201360967,1.62577421294184,0.455669687279832,0.350828682047794,-49.4084824007149,20.4233086431052,9.37184798992626,0.531677503151945,1.76977466804578,-0.196756226838267,-0.386537260711996,7.43670298510794,7.81929759539171,0.680027238830942,-28.8437482858583,-9.89522449432992,-58.6615044644174,-4.58481077943245,8.16946102837753,-1.15162271986426,-6.39842592523683,-24.446024969204,-53.3198478793156,-0.718505918979645,7.44611597061157,2.19623303413391,-6.54500007629395,5.32000017166138,-6.23000001907349,151,0.17212338745594,-0.0283069852739573,-0.444971752791471,-21.4316635380108,-15.7715259947324,-0.0407090248200772,-0.382555049208437,-0.354119624876418,-0.259418782700462,-11.7061221788652,-22.9733039429935,-21.6783576685782,-0.246480635229663,-3.69647287370953,-3.32683100360549,-3.28131313065417,0.54586438634486,12.9352981758914,-1.32559490053362,-19.2857185778364,-21.9290282639394,-4.29161701685461,-2.13554042287168,12.4792703565608,2.21005447766194,-12.7626624592844,-11.5424099667329,-50.3534198349518,-3.33169925065675,11.8172802439319,-0.762134632863268,1.06532251041653,-17.2985195958044,-115.844817964142,672.77293531894,0.290826187325236,-0.0283714496087503
79.16,-43.9927023713652,25.9290686854802,17.7017942400627,0.436833385737946,1.84496274310943,0.437145902388073,0.341947842788901,-49.2191476513353,23.614911308068,11.8692552154723,0.548395124520489,2.04549717744021,-0.0362168034196489,-0.214932258998791,7.52098617964231,7.90826318962243,0.743239634731717,-30.1993319016546,-8.68126901749739,-61.5374227964373,-4.57544598003974,8.63770099801293,-1.47939069860904,-4.65553270492727,-28.113904731348,-51.7359250190675,-0.718505918979645,7.44611597061157,2.19623303413391,-6.54500007629395,5.32000017166138,-6.23000001907349,151,0.17212338745594,-0.0283069852739573,-0.665009386227467,-21.2636845208888,-17.5083852858886,-0.0367865367330101,-0.378230586554949,-0.422040147384691,-0.323647804357545,-11.9108080353617,-23.6452204580298,-22.186990069885,-0.233438206027715,-3.72446415805697,-3.34947117661202,-3.30369617212332,0.403051195606059,13.1975125588872,-1.41690169461254,-19.1440904388726,-21.7006890194875,-1.92151346684824,-2.10042242514902,12.5050235548907,2.33647926946351,-12.7019646854428,-11.8083240235629,-50.2782702101955,-3.44664723643338,11.9927862814398,-0.935958431719052,0.524505351906779,-19.0193015735242,-121.867556002532,661.53517604769,0.291590071215681,-0.0317364580613716
79.165,-43.7327408461174,27.2242222791952,19.4754159137647,0.4685258696891,2.06585952023621,0.503397544914727,0.41845484825876,-48.9636001949494,26.8236908231773,14.5088713974191,0.563622143596528,2.3892752667708,0.167316302912646,-0.000487224663770375,7.65317850913778,8.1973360127398,0.750055736710371,-31.4189502942947,-7.41667766702522,-64.0615149412955,-4.68312277242738,9.14400887237433,-1.58793053765073,-2.47542239036387,-31.5832465007158,-48.4611710747678,-0.856893351531927,7.58530024470793,2.01481533189752,-4.28587178080368,5.28118349175697,-3.994161657489,160.759611738834,0.173387578419836,-0.0326800862717912,-0.877810640286627,-21.0864253333044,-18.9060034208001,-0.0333333968713564,-0.396597704852057,-0.450813616405546,-0.348853796472875,-12.1437702124119,-24.4338305936099,-22.6718125816841,-0.221630554064164,-3.74011363848542,-3.3870119346574,-3.34066989547875,0.257893379843779,13.3799442632896,-1.47443618715404,-19.2657382364038,-21.2461407465452,0.611020299640426,-2.1143804504436,12.6020694623493,2.54641275498599,-12.7474490870639,-12.670836036613,-49.8676240255321,-3.60805410425594,12.0050703739211,-1.00171614943231,-0.511989473050192,-20.3809950943468,-128.448161803466,649.23295669978,0.293017795244874,-0.0349798887729918
79.17,-43.4314837298696,27.9849327969264,21.2497235309952,0.500268246983909,2.28915569071814,0.687482505325996,0.612978507150522,-48.6159973856172,30.0567093860247,17.346438582038,0.576779173095321,2.82768009467585,0.43062769869469,0.273305435192772,7.851972776219,8.76456232147822,0.678489800561138,-32.449735382864,-6.08156555230693,-66.096906449518,-4.95348297565783,9.70328341042947,-1.39178686079726,0.31260584919492,-34.7770441084732,-42.8360295914327,-1.18763537266999,7.91794669443428,1.58123219214804,1.11338048278856,5.18841273267374,1.34942832759928,184.08480574303,0.176408958806712,-0.0431316730668422,-1.08057860869042,-20.8962478302616,-19.8322839462045,-0.0305321906640936,-0.446504981370447,-0.425181536610045,-0.319915732108028,-12.4160589954621,-25.3847181088238,-23.1235979892183,-0.211537720966428,-3.73861155297475,-3.44526666146535,-3.39807679196044,0.109460327089803,13.4515101994389,-1.48503854806503,-19.7533159449651,-20.4771423471364,3.36959753666866,-2.19654874750384,12.7982131392027,2.87243535299918,-12.9405167703197,-14.3626325153124,-48.9906386168446,-3.83405059399304,11.7905006137012,-0.91728490214311,-2.23752376408297,-21.2437619910329,-135.804874252578,635.449887515482,0.295368325206397,-0.0380547133651204
79.175,-43.1302409783518,28.7456070419836,23.0239465445818,0.532009110718863,2.51244121385263,0.87155868808323,0.807243730850134,-48.2684111508993,33.2895737900621,20.1838704640064,0.589935575232417,3.26606401828813,0.693926539098334,0.546415699994039,8.05075756426783,9.33176158337758,0.606927276863562,-33.480471320895,-4.74651709923821,-68.1322009049316,-5.22383028740424,10.2625312808069,-1.19565253658908,3.1005011482502,-37.9706894275788,-37.2111563296063,-1.51836162316046,8.25057728270489,1.14766972678059,6.51237529586279,5.09564639714378,6.69276351629309,207.40888754076,0.179430195126241,-0.0535827615028052,-1.28333690858533,-20.7060793953813,-20.7585203041224,-0.0277311180256945,-0.496409878178913,-0.399550679019379,-0.291395516148328,-12.6883347950685,-26.3355602832255,-23.5753618544386,-0.201445369121461,-3.73710953908746,-3.50351861053505,-3.45524506623592,-0.0389656479866618,13.5230727231364,-1.49564040342762,-20.2408704045417,-19.7081806155894,6.12804323749448,-2.27871312656403,12.9943474634109,3.19844240539926,-13.1335752476017,-16.0543483247156,-48.113695025123,-4.06003630762439,11.5759410847306,-0.832857680757367,-3.96297577711217,-22.106487748729,-143.161235914334,621.667475544096,0.297718743088483,-0.0411293913415427
79.18,-42.828983862104,29.5063175597147,24.7982541618123,0.563751488013672,2.73573738433456,1.0556436484945,1.00084449328423,-47.9208083415671,36.5225923529096,23.0214376486252,0.60309260473121,3.70446884619318,0.957237934880378,0.818671034672268,8.24955183134905,9.89898789211599,0.535361340714329,-34.5112564094643,-3.41140498451993,-70.1675924131542,-5.49419049063469,10.821805818862,-0.999508859735606,5.888529387809,-41.1644870353363,-31.5860148462712,-1.84910364429852,8.58322373243124,0.71408658703111,11.911627559455,5.00287563806055,12.0363535013814,230.734081544956,0.182451575513116,-0.0640343482978562,-1.48610487698912,-20.5159018923385,-21.6848008295268,-0.0249299118184317,-0.546317154697303,-0.373918599223877,-0.263458700035739,-12.9606235781187,-27.2864477984395,-24.0271472619728,-0.191352536023725,-3.7356074535768,-3.56177333734301,-3.51223977830728,-0.187398700740637,13.5946386592857,-1.50624276433861,-20.728448113103,-18.9391822161806,8.88662047452271,-2.36088142362426,13.1904911402644,3.52446500341244,-13.3266429308575,-17.746144803415,-47.2367096164354,-4.28603279736149,11.3613713245108,-0.748426433468169,-5.68851006814495,-22.9692546454151,-150.517948363446,607.884406359799,0.300069273050006,-0.0442042159336713
79.185,-42.5055113800422,30.3787781191608,26.2127430883341,0.592961031667812,2.87535355395287,1.26123089401424,1.21487327496031,-47.5405079038929,37.78887761498,25.705597533128,0.631395591921104,4.11094038523062,1.254428848841,1.12378454687852,8.33008316369594,10.2243590189167,0.407487835757895,-34.2250795472168,-1.45484320111118,-71.4760360752988,-5.48244625390991,11.078818454893,-0.921597363586719,5.52174775854916,-40.5224063868247,-28.040698262435,-1.89185052334028,9.11365787711034,0.599476070602123,12.201610479861,3.49953845793343,13.6006169513643,306.725249491088,0.157817552145626,-0.0778114694460533,-1.71957825874111,-21.6542710819711,-22.1894229274545,-0.0215870575283748,-0.613258515670492,-0.357448240221331,-0.245442968509268,-13.2517918677051,-28.2263027621052,-24.660316564158,-0.180042213559418,-3.68528940225074,-3.60014612650683,-3.54924845308724,-0.157654163149802,13.6368052728266,-1.25624038031875,-20.9406543436673,-19.1272556256172,11.254263307877,-2.40848580010922,13.0818641080383,3.65848580010922,-13.2415320754115,-20.6029798562112,-46.7495742974989,-4.21196729208458,11.2092621580952,-0.712066077501977,-6.82936622066487,-22.9279709654468,-158.41866094037,590.227992651805,0.301568429636882,-0.0484974529605003
79.19,-42.1698202650524,31.3126463727192,27.4298202399524,0.620782377517549,2.96904534582919,1.4786366320498,1.4392803856537,-47.1422305791313,37.9756521594115,28.3057453861236,0.668014781234305,4.49991271964992,1.57023928935582,1.44638702827218,8.34570205054366,10.4169919567052,0.248695819472702,-33.2159580512939,0.842997147885193,-72.3855309267197,-5.31584479420087,11.1699286281714,-0.908581624546946,3.42316069855668,-37.7746392562067,-25.636803743485,-1.77651060504246,9.75270333599532,0.659951596421564,9.68696973709842,1.22178418803763,13.0903999710751,411.632106151631,0.118000753482633,-0.093415102776371,-1.96992409085027,-23.5220070925768,-22.4626201926096,-0.0179466279812372,-0.689555387170977,-0.346005832956301,-0.233388829769677,-13.5533452419259,-29.1601710156635,-25.393100186038,-0.168062735965867,-3.6081709538502,-3.6276079039429,-3.57532466283014,-0.0300999205600568,13.6628367509061,-0.863165061317705,-21.0017158354588,-19.8407109507601,13.4074843342093,-2.43712042599672,12.8059304403952,3.68712042599672,-13.0037136336972,-24.0995537019568,-46.4764044658001,-3.97318247131543,11.0914284199969,-0.702090720720114,-7.64935768086815,-22.3904213005923,-166.618576535425,570.444069311355,0.302600350256272,-0.0534598335320313
79.195,-41.834145156696,32.2464700969883,28.6468393581379,0.6486023967725,3.06273267023498,1.6960320036092,1.6619178413233,-46.7439722452779,38.1624177979426,30.9057692572455,0.704632224448454,4.88886650684747,1.8860346712,1.76777882624066,8.36132019264187,10.6096157092498,0.0899113748075879,-32.2068846729324,3.14072792982316,-73.2949824110392,-5.14925127848665,11.2610344570776,-0.89556650613177,1.32467370470285,-35.0270031463369,-23.2330238485345,-1.66117618645464,10.3917183235157,0.720424238609218,7.17244889900598,-1.05586147255673,12.5802073192705,516.533960577926,0.0781858533890969,-0.1090179920845,-2.22025798581313,-25.3896540446277,-22.735804431002,-0.0143063720193345,-0.765848620636391,-0.33456397129528,-0.222434698111207,-13.8548842372904,-30.0939947399327,-26.1258488668717,-0.156083829585248,-3.53105618265968,-3.65506837192935,-3.60146836026714,0.0974482399086412,13.6888669877365,-0.470108485179482,-21.0627744156781,-20.5541322564807,15.560602689312,-2.4657536865101,12.5300099299935,3.7157536865101,-12.7659065317904,-27.5959608218847,-46.2032476595557,-3.73440903643322,10.9736003005205,-0.692115839589442,-8.46931004172658,-21.8528972675166,-174.818101136984,550.661089320292,0.303632221670978,-0.0584219774842332
79.2,-41.4984540417062,33.1803383505467,29.8639165097562,0.676423742622237,3.1564244621113,1.91343774164476,1.88254441439578,-46.3456949205163,38.3491923423742,33.5059171102411,0.741251413761655,5.27783884126677,2.20184511171482,2.08796746164475,8.37693907948959,10.8022486470384,-0.0688806414776051,-31.1977631770095,5.43856827881953,-74.2044772624602,-4.98264981877761,11.352144630356,-0.882550767091997,-0.77391335528963,-32.2792360157188,-20.8291293295845,-1.54583626815682,11.0307637824006,0.780899764428658,4.65780815624337,-3.33361574245253,12.0699903389813,621.440817238469,0.0383690547261036,-0.124621625414818,-2.47060381792228,-27.2573900552334,-23.0090016961571,-0.0106659424721969,-0.842145492136876,-0.323121564030251,-0.212728470794781,-14.1564376115112,-31.027862993491,-26.8586324887518,-0.144104351991698,-3.45393773425915,-3.68253014936542,-3.62777682278039,0.225002482498386,13.714898465816,-0.0770331661784415,-21.1238359074696,-21.2675875816236,17.7138237156442,-2.4943883123976,12.2540762623504,3.7443883123976,-12.5280880900761,-31.0925346676302,-45.9300778278568,-3.49562421566407,10.8557665624221,-0.682140482807578,-9.28930150192986,-21.315347602662,-183.018016732039,530.877165979842,0.304664142290368,-0.0633843580557642
79.205,-41.4326667785645,33.363353729248,30.685825348405,0.695344217332487,3.17838610855559,1.95604395866394,1.92615430623569,-46.267642288208,38.3857955932617,35.1295445853072,0.758406673514321,5.54206336015379,2.26373624801636,2.15303580816693,8.1723602078122,10.6042423192867,0.0903364761721269,-30.2443150567239,6.38288788007645,-75.6644431616531,-5.21387556923866,11.1255906612789,-0.973005323584116,-1.30801736677774,-31.9730537798398,-17.1270042625098,-1.50302960061406,10.9156387763396,0.93002739443512,3.33984808631838,-3.46962175273534,9.75950158827347,675.957757680713,0.0277722150597012,-0.129932293883649,-2.51966548919678,-27.623420715332,-23.5376805479021,-0.00458565691659333,-0.905030322674255,-0.320879131555557,-0.213594542395215,-14.2155347108841,-31.2108783721924,-27.6441086078886,-0.128838950920991,-3.31715593386813,-3.68791198730469,-3.63226440689355,0.25,13.4366582002438,-0.0497470335449978,-21.9128495309497,-21.2685536369114,19.2573136923724,-2.62977487011738,12.2432582900391,3.68511256494131,-11.8245963364429,-33.8525735407654,-45.684284143036,-3.90002558570379,10.9528550806854,-0.84025443300168,-11.1532951858273,-22.4817945374526,-191.248925662241,511.210724135719,0.30499427482351,-0.0661043739406395
79.21,-41.4326667785645,33.363353729248,31.4114575808345,0.712096157560287,3.18286427619795,1.95604395866394,1.92481815994662,-46.267642288208,38.3857955932617,36.5152339116386,0.770818466376882,5.77589529868858,2.26373624801636,2.15506581990694,7.91409428516452,10.3110028862805,0.327080238599167,-29.3043812075818,6.99733226909164,-77.2586772520709,-5.54208851260343,10.8215901481624,-1.08868693477006,-1.46079813377611,-32.262008708728,-13.1082058262483,-1.4779009387611,10.6166720209201,1.10077350945663,2.31351007945565,-3.08356801917146,7.01004554824873,718.194997113719,0.0242973393714925,-0.132734287012213,-2.51966548919678,-27.623420715332,-24.1286663802377,0.0020897231458812,-0.964649593427052,-0.320879131555557,-0.218166475815667,-14.2155347108841,-31.2108783721924,-28.4424755187842,-0.112771675056845,-3.16582261467745,-3.68791198730469,-3.63172222893179,0.25,13.0842328266308,-0.111623244179343,-22.8793539482655,-21.0958449437828,20.652268521488,-2.79119107177219,12.2970636905907,3.60440446411391,-11.0075513651038,-36.4332399746292,-45.4451490294733,-4.46123258088996,11.1023383301131,-1.03935083771339,-13.2718830891107,-24.0636730878932,-199.487877621705,491.571752934385,0.305153360627398,-0.0682779572980092
79.215,-41.4326667785645,33.363353729248,32.137089813264,0.728848097788088,3.18734244384031,1.95604395866394,1.92109820182126,-46.267642288208,38.3857955932617,37.9009232379701,0.783230259239444,6.00972723722337,2.26373624801636,2.15603541939597,7.65582836251685,10.0177634532743,0.563824001026207,-28.3644473584396,7.61177665810683,-78.8529113424887,-5.8703014559682,10.5175896350459,-1.204368545956,-1.61357890077448,-32.5509636376162,-9.08940738998678,-1.45277227690815,10.3177052655005,1.27151962447813,1.28717207259291,-2.69751428560758,4.260589508224,760.432236546726,0.0208224636832837,-0.135536280140777,-2.51966548919678,-27.623420715332,-24.7196522125733,0.00876510320835572,-1.02426886417985,-0.320879131555557,-0.224253711111768,-14.2155347108841,-31.2108783721924,-29.2408424296799,-0.0967043991926993,-3.01448929548676,-3.68791198730469,-3.63161917860723,0.25,12.7318074530178,-0.173499454813688,-23.8458583655813,-20.9231362506542,22.0472233506035,-2.95260727342699,12.3508690911423,3.5236963632865,-10.1905063937647,-39.013906408493,-45.2060139159107,-5.02243957607614,11.2518215795408,-1.2384472424251,-15.3904709923941,-25.6455516383338,-207.726829581169,471.932781733051,0.305312446431286,-0.070451540655379
79.22,-41.3734559829905,33.3472900995641,32.8189147029165,0.745283345334978,3.19695073184447,1.98576422187388,1.94475297448002,-46.1820066057274,38.8355773952233,39.2588409415448,0.793995513398363,6.23551868350194,2.3316401659862,2.22396489034871,7.38440210976691,9.73723849218058,0.786044924756539,-27.4511687230656,8.04901114353266,-80.454306142968,-6.1661939362644,10.2035065653585,-1.28537252876955,-1.80283888688529,-32.6931976729361,-5.2779585550929,-1.43207882522358,10.0395108125455,1.4221232082199,0.381344048466284,-2.34343282739017,1.58544371709531,801.014974918855,0.0177961516660669,-0.138248663230209,-2.58474861471447,-28.0250116282418,-25.3790685327677,0.0151341950942639,-1.07882306842064,-0.331901216592038,-0.242886240231102,-14.2683841323986,-31.2590693039471,-30.0126170427518,-0.0809274242197366,-2.86262714904924,-3.68102318457391,-3.62514460345795,0.235671289465919,12.3891785925052,-0.214104086751271,-24.8594098918433,-20.6634395411444,23.8005461569566,-3.09708948067279,12.3523122602537,3.43388020064915,-9.30900717280673,-41.9530270410078,-44.9586320484938,-5.52770494472034,11.3448313012451,-1.4050181918121,-17.0287994280893,-27.2177272148279,-215.746019631862,451.895470640307,0.305430669617815,-0.0724962667033613
79.225,-40.691540109967,33.162289307839,33.0404272426034,0.758397214742455,3.26051366741392,2.32804503463545,2.27874506582287,-45.1957619418162,44.0156015307195,40.3254524078391,0.787451349149487,6.37687869910496,3.11367254800896,3.00522176135186,6.97443014163471,9.59026740926527,0.855662806137487,-26.8177001179075,6.62291096709642,-82.131883805874,-6.12236045539492,9.78322083702175,-1.0017441231435,-2.3758255649177,-31.2925635710791,-3.64494652270053,-1.45801556644022,9.97960927433188,1.36098661051014,0.742325657163575,-2.32538376424509,-0.30970969590698,824.220935379168,0.0194853629807991,-0.14002017873794,-3.33429463797477,-32.6500333885627,-26.7584756595622,0.0182857968706944,-1.08014197914105,-0.458839803843594,-0.378919862653444,-14.8770376568372,-31.8140721709207,-30.5051655554884,-0.0681946475395736,-2.70512035465818,-3.6016865723444,-3.54680648419729,0.0706511261925877,12.1493836677486,-0.0310348431199057,-26.368274810662,-19.4888168511779,29.3235010813246,-3.06356976000789,11.8031045293597,3.24823251696665,-7.74921010482959,-48.6633376926318,-44.6243898196416,-5.44495445234862,10.8440051930861,-1.2296364237258,-13.6175229896061,-28.6887277361331,-221.458553250424,427.658134159536,0.305119238274281,-0.0731870263874101
79.23,-40.009656752482,32.9772973374372,33.2619292199909,0.771510458846221,3.32407357213578,2.67030952654957,2.61070375729502,-44.2095643046388,49.1953786690702,41.3920130152993,0.780907496943538,6.51823197429145,3.89566764067534,3.78580753901147,6.5644777220419,9.44330333431691,0.925277367955142,-26.184261718195,5.19687879085933,-83.8093814774743,-6.07852906462084,9.36295514901152,-0.718129241664198,-2.94878492144153,-29.8919962551319,-2.01201235660762,-1.48395107092496,9.91971059238077,1.29985292795381,1.10329005331038,-2.30733556172671,-2.2047727430208,847.425789318383,0.0211744937495026,-0.141791609775162,-4.08380492091355,-37.274834615708,-28.1378170126047,0.021437248370481,-1.08146082697232,-0.585772338330165,-0.516346761363378,-15.4856621590783,-32.3690485739011,-30.9976905822191,-0.0554624779916193,-2.54762107060444,-3.52235374309279,-3.469110808842,-0.0943611684862718,11.9096001770434,0.152025671289467,-27.8770677828414,-18.3142501703041,34.8461926567071,-3.03005163765125,11.2539229861316,3.06259368545294,-6.18948741207027,-55.3733283790331,-44.290163528336,-5.36220790573755,10.3432029656303,-1.05426301830249,-10.2064092097363,-30.1596581162728,-227.170814480392,403.421953378578,0.30480782178061,-0.0738777531342244
79.235,-39.3277408794584,32.7922965457121,33.4834417596777,0.784624328253697,3.38763650770523,3.01259033931114,2.94094942890619,-43.2233196407276,54.3754028045663,42.4586244815935,0.774363332694663,6.65959198989447,4.67770002269811,4.56598655239398,6.1545057539097,9.2963322514016,0.994895249336091,-25.550793113037,3.77077861442309,-85.4869591403803,-6.03469558375136,8.94266942067474,-0.434500836038147,-3.52177159947395,-28.4913621532749,-0.379000324215243,-1.50988781214159,9.85980905416711,1.23871633024404,1.46427166200768,-2.28928649858163,-4.09992615602309,870.631749778696,0.0228637050642348,-0.143563125282892,-4.83335094417385,-41.8998563760289,-29.5172241393992,0.0245888501469115,-1.08277973769273,-0.712710925581721,-0.655049480158845,-16.0943156835169,-32.9240514408748,-31.4902390949557,-0.0427297013114563,-2.39011427621338,-3.44301713086328,-3.39209123228351,-0.259381331759604,11.6698052522868,0.335094914920833,-29.3859327016601,-17.1396274803376,40.3691475810751,-2.99653191698635,10.7047152552375,2.87694600177045,-4.62969034409313,-62.0836390306571,-43.9559212994838,-5.27945741336583,9.84237685747129,-0.878881250216192,-6.79513277125309,-31.630658637578,-232.883348098954,379.184616897807,0.304496390437076,-0.0745685128182733
79.24,-38.7309110020823,32.6865902628934,33.6429436220849,0.7968405313224,3.49209532787381,3.28201933398971,3.19697864773319,-42.3359769747556,58.3126446857311,43.7348416766399,0.768007125079964,6.8132453680457,5.35159601614156,5.2377958057782,5.78118294092437,9.17318831733829,1.07100268820696,-24.8867993438768,2.41491921991816,-87.0334614187711,-5.98637663467657,8.66676402218097,-0.185591470462169,-3.94727702608346,-27.0098955580214,1.51065366540953,-1.54387670395682,9.81089963330007,1.17033999393388,2.01026304386505,-2.23526527713404,-5.65761540663462,891.157032842876,0.024433583284343,-0.144970751703292,-5.50852569236719,-45.4792517251898,-31.0832767747938,0.0260679514224488,-1.07000107661334,-0.829654630960701,-0.784857800314441,-16.639359196749,-33.4855367798911,-31.9635574924861,-0.0305148229534423,-2.23450892332675,-3.34728409144116,-3.29938327751224,-0.388297079334559,11.4340211420334,0.447076867135063,-30.6089793198694,-16.2652389845962,45.0126474148915,-2.92515642247707,10.2654588782255,2.66528901471373,-3.02504439862289,-67.544330083019,-43.4537900800081,-5.280709711974,9.6194306202152,-0.743731721745509,-4.08903958031356,-32.4393753110561,-236.932154370591,354.720945937171,0.303934191235684,-0.0755617066542656
79.245,-38.4570805980232,32.8820011481284,33.5669804327921,0.805650409746726,3.75189071705762,3.27483639748931,3.17546569147189,-41.824037150954,57.531001144791,45.8073826681817,0.76236327709,7.01362111446011,5.61497035448937,5.49907980063743,5.54695933924652,9.14050595431347,1.17177330753349,-24.106726481556,1.32550711909092,-88.0825249232714,-5.92101190862693,8.93911704738778,-0.0684796696232387,-3.81278170499368,-25.2211077875273,4.37540400462191,-1.60845349072255,9.80372442394821,1.07445323961799,3.25900167482772,-2.04461814650247,-5.93405382072452,901.506447800735,0.0255506224533099,-0.144996737486935,-5.90141080629754,-45.0884299547197,-33.3585221567902,0.0211956390138057,-1.00368032664412,-0.908666948698549,-0.877632571007403,-16.9429519795954,-34.0717694355962,-32.3639528531774,-0.0202640025385341,-2.08608918554439,-3.18925948843248,-3.1451074764343,-0.380126488578362,11.2134151916159,0.289112112515102,-30.7468370239864,-16.5308672437486,46.3172520294624,-2.70999753256369,10.243670636209,2.35480656597795,-1.24970616023777,-68.2605176678221,-42.3139422337722,-5.60098456436044,10.4517538660869,-0.761343581536255,-4.06044257240614,-30.7330832548944,-234.663453171926,329.392114592938,0.302419507788207,-0.0777036994186722
79.25,-38.1832632509165,33.0774027156596,33.4910208656235,0.814459868092927,4.01167371851546,3.26765380349018,3.15351669286508,-41.3121217377867,56.7493948746664,47.8798248355297,0.756719698213519,7.21398730643307,5.87833213445752,5.76059375848117,5.31274690596471,9.1078251496695,1.27253912185241,-23.3266908151566,0.236146964291755,-89.1315384056706,-5.85565029933898,9.21145708608757,0.0486265470176732,-3.67829279699378,-23.4324053111287,7.24001774501971,-1.67302719829761,9.79654955672916,0.978571057434201,4.50768076265521,-1.85398010642643,-6.21047905350534,911.855369271327,0.0266676083589176,-0.145022722031507,-6.29427718643454,-44.6976268196574,-35.6336590491155,0.0163235589298054,-0.937362739022304,-0.987675498921724,-0.971072968174112,-17.2465302863412,-34.6579741381897,-32.7643291219671,-0.010013670909646,-1.93767652480464,-3.03124242045159,-2.99156675143298,-0.371956287417376,10.9928197602691,0.131154890069212,-30.8846881546863,-16.7964828370483,47.6217944370614,-2.49484890199085,10.221883433113,2.04433892186018,0.525547425360854,-68.9766711029216,-41.1741487384731,-5.92124414520137,11.2840374246018,-0.778954601547305,-4.03184692807912,-29.026872559216,-232.394860150887,304.064490993857,0.300904896564812,-0.0798455900472421
79.255,-37.9094328468574,33.2728136008946,33.4150576763306,0.823269746517253,4.27146910769928,3.26047086698979,3.13167100704331,-40.8001819139851,55.9677513337263,49.9523658270715,0.751075850223554,7.41436305284749,6.14170647280533,6.02262112047798,5.07852330428687,9.07514278664468,1.37330974117893,-22.5466179528359,-0.853265136535486,-90.1806019101709,-5.79028557328934,9.48381011129438,0.165738347856603,-3.543797475904,-21.6436175406346,10.1047680842321,-1.73760398506333,9.78937434737729,0.882684303118316,5.75641939361787,-1.66333297579486,-6.48691746759524,922.204784229186,0.0277846475278844,-0.14504870781515,-6.68716230036489,-44.3068050491874,-37.9089044311118,0.0114512465211624,-0.871041989053077,-1.06668781665957,-1.06494042179629,-17.5501230691877,-35.2442067938947,-33.1647244826585,0.000237149505262177,-1.78925678702227,-2.8732178174429,-2.83873844078813,-0.363785696661179,10.7722138098516,-0.0268098645507494,-31.0225458588033,-17.0621110962007,48.9263990516323,-2.27969001207746,10.2000951910964,1.7338564731244,2.30088566374598,-69.6928586877247,-40.0343008922372,-6.24151899758781,12.1163606704734,-0.796566461338052,-4.0032499201717,-27.3205805030542,-230.126158952221,278.735659649624,0.299390213117335,-0.0819875828116486
79.26,-37.6161175610435,33.2621740362338,33.3336693303472,0.82976656912188,4.62924582636679,3.28689618347865,3.14410715939333,-40.2794174773722,55.6055908203125,51.6885178885488,0.747115877673048,7.6329400844466,6.33688005975341,6.21721312677873,4.90936194474033,8.99513138274545,1.43692224797947,-22.2565650377734,-1.25008442646853,-90.5221659894759,-5.58231639621577,9.74819835849885,0.229871311321372,-3.45536690126627,-19.234012225788,11.461695289676,-1.7053798373589,9.69418383938247,0.828124615255211,7.08521965553375,-1.37757381411223,-6.59525757689769,937.294367520832,0.0274191006475202,-0.140711385228828,-7.09111974374295,-43.923365406452,-39.7369001842502,0.0113080217488338,-0.793956972570855,-1.10825565695561,-1.12153105105816,-17.8726393671041,-35.8193662579978,-33.6125445585494,0.00412763488108958,-1.64445209007767,-2.72685617420072,-2.69827397981446,-0.187957145542269,10.5346220161644,-0.0830777520205722,-30.4962302402229,-17.7631878939483,50.8261473762048,-2.36755491510557,10.2167935593008,1.46590351481734,3.39504842436153,-67.5142097133368,-38.8585312501692,-6.77460144430868,12.1558165303643,-1.01074961913901,-1.66530620815327,-26.0660489254358,-226.834209364368,254.590351481737,0.298040962756991,-0.0847549086767707
79.265,-37.3059524519403,33.0736241409171,33.2475895292448,0.834266815702213,5.07165399654593,3.34234209883132,3.18681832692374,-39.7509873639225,55.6055908203125,53.1343771580077,0.744609455653257,7.86725200721075,6.47318466431619,6.35396436575503,4.79636200739304,8.87424772883906,1.46845711421592,-22.3895824776596,-1.04893610273809,-90.2528867819013,-5.25120030073303,10.0057330994299,0.2482666499593,-3.40670198423471,-16.2881625814776,11.5168488623118,-1.58957235000686,9.52299014608272,0.809242956984589,8.48326531181911,-1.00966702803963,-6.55846680939985,956.478077814673,0.0257734174433395,-0.132606281875354,-7.50467322254724,-43.5462656158185,-41.1788912592421,0.0152480030665439,-0.707570955313509,-1.11749664284772,-1.14570494121681,-18.211523384252,-36.385015943948,-34.1013521746635,0.00252678516811544,-1.50275584764912,-2.59055163229209,-2.56853629711077,0.13264732786166,10.2823430862728,-0.0515428857841196,-29.3964031153096,-18.8403047242468,53.2399272609702,-2.71706634922624,10.2667237641752,1.23464782908337,3.90116356148976,-62.8358890227027,-37.6516413077865,-7.49147494102016,11.5106933131522,-1.39467664453576,2.66679601351141,-25.2014677688611,-222.658467653952,231.464782908339,0.2968344317904,-0.0880624095077286
79.27,-36.9958021323235,32.8850832361542,33.1615138326532,0.838766847698978,5.51404107154243,3.39778537037722,3.23135186580756,-39.2225824474074,55.6055908203125,54.5801674851021,0.742103153146247,8.10155275736749,6.6094827695177,6.49198855962865,4.68336745817933,8.75336983898254,1.49999047678719,-22.5225935749253,-0.847797370287618,-89.9836204142659,-4.92009999373473,10.2632555604285,0.266661111459205,-3.35803938767412,-13.3424534030094,11.5719998050804,-1.47377038465975,9.35180461574755,0.790362199040988,9.88124430561848,-0.641777784728136,-6.52167779618237,975.660873378861,0.024127812709653,-0.12450156499448,-7.91820698203632,-43.1691838062928,-42.6208135763151,0.0191877965156044,-0.621189057168182,-1.12673718810537,-1.16953582119723,-18.5503912425207,-36.9506386582366,-34.5901364831476,0.000926011787856974,-1.36106636166929,-2.45425358974174,-2.43943007236972,0.453236514002887,10.0300761857026,-0.020009523212851,-28.2966284330401,-19.9173701947881,55.6535920503759,-3.06656111772445,10.3166515882463,1.00340317022741,4.40725456571997,-58.1577914066772,-36.4448089130837,-8.20831425532192,10.8656008571082,-1.77858536328434,6.99869166917277,-24.3369278377851,-218.482925053861,208.340317022743,0.295627958354373,-0.0913697526283666
79.275,-36.6856370232203,32.6965333408375,33.0754340315508,0.843267094279311,5.95644924172157,3.45323128572988,3.27825093326151,-38.6941523339576,55.6055908203125,56.026026754561,0.739596731126456,8.33586468013164,6.74578737408048,6.63152697044887,4.57036752083205,8.63248618507614,1.53152534302364,-22.6556110148115,-0.646649046557172,-89.7143412066913,-4.58898389825199,10.5207903013595,0.285056450097133,-3.30937447064257,-10.3966037586989,11.6271533777162,-1.35796289730771,9.1806109224478,0.771480540770366,11.2792899619038,-0.27387099865553,-6.48488702868453,994.844583672702,0.0224821295054724,-0.116396461641006,-8.33176046084061,-42.7920840156593,-44.062804651307,0.0231277778333145,-0.534803039910835,-1.13597817399748,-1.1927823827724,-18.8892752596687,-37.5162883441868,-35.0789440992616,-0.000674837925117161,-1.21937011924074,-2.31794904783311,-2.31088215333051,0.773840987406816,9.77779725581102,0.0115253430236016,-27.1968013081268,-20.9944870250866,58.0673719351413,-3.41607255184511,10.3665817931207,0.772147484493432,4.91336970284821,-53.4794707160432,-35.2379189707009,-8.9251877520334,10.2204776398961,-2.16251238868108,11.3307938908374,-23.4723466812104,-214.307183343445,185.214748449345,0.294421427387782,-0.0946772534593246
79.28,-36.6022834777832,32.6458625793457,33.0064275035717,0.838535121540847,6.47649915499044,3.46813178062439,3.28744972739734,-38.5521424102783,55.6055908203125,56.5366278080822,0.729763607534306,8.49862328710043,6.78241777420044,6.67309183615851,4.51831366347837,8.55662732695672,1.57548673248999,-22.8690350803682,0.251981904939651,-89.3426016394879,-4.36002455517845,10.55451326751,0.327458217628324,-3.46667155516449,-9.54895782940542,11.7442004639629,-1.32684087753296,9.13460445404053,0.766406297683716,11.6549997329712,-0.174999997019768,-6.47499990463257,1000,0.02203986980021,-0.114218302071095,-8.44289852142334,-42.6907424926758,-44.4887158109319,0.0287868418604335,-0.461535649135009,-1.13846158981323,-1.20845935569667,-18.9803467035294,-37.6683006286621,-35.5592400428603,-0.00153703878092437,-1.06622231656756,-2.28131866455078,-2.28249530761438,0.895486732489987,9.71394297027665,0.128431682608233,-25.6234201263899,-19.8089876619394,59.4486629958492,-3.67560475161987,10.1434217834002,0.589739406561749,4.81329128590346,-50.3529622392114,-34.134721920659,-9.11783981323242,10.0471076965332,-2.26568865776062,12.4949998855591,-23.2399997711182,-213.184997558594,179,0.294097185134888,-0.0955661088228226
79.285,-36.6022834777832,32.6458625793457,32.9436913349533,0.830409766340467,7.02511828338594,3.46813178062439,3.28499771254998,-38.5521424102783,55.6055908203125,56.703531130663,0.717237094754976,8.63509485597233,6.78241777420044,6.67987210450367,4.48865563612055,8.49731127224109,1.6240180499846,-23.1120245301011,1.40701394682074,-88.9331810598009,-4.16859546950531,10.5059819500154,0.378685719428179,-3.69967513710015,-9.47239950962656,11.8840026131243,-1.32684087753296,9.13460445404053,0.766406297683716,11.6549997329712,-0.174999997019768,-6.47499990463257,1000,0.02203986980021,-0.114218302071095,-8.44289852142334,-42.6907424926758,-44.5412197001395,0.0350780812520295,-0.393084907296846,-1.13846158981323,-1.22063184226647,-18.9803467035294,-37.6683006286621,-36.0364390519723,-0.00212782374118955,-0.908855789320431,-2.28131866455078,-2.29112777504704,0.944018049984589,9.71933533888717,0.276721819397292,-23.8758932618724,-17.7918423668964,60.4505783981726,-3.90208423326134,9.81987966676952,0.42527216394117,4.49041489379261,-47.7965800831172,-33.0695626889531,-9.11783981323242,10.0471076965332,-2.26568865776062,12.4949998855591,-23.2399997711182,-213.184997558594,179,0.294097185134888,-0.0955661088228226
79.29,-36.6022834777832,32.6458625793457,32.8809581577601,0.822284798578348,7.57371125218157,3.46813178062439,3.2861020874773,-38.5521424102783,55.6055908203125,56.8704264948554,0.704711179272651,8.77155991752167,6.78241777420044,6.68858390239456,4.45899902293532,8.43799804587062,1.67254705337861,-23.3550023934593,2.56199091374276,-88.5237800023617,-3.97717551167337,10.4574529466214,0.429910778566305,-3.93266760881353,-9.39584484034931,12.0237980961523,-1.32684087753296,9.13460445404053,0.766406297683716,11.6549997329712,-0.174999997019768,-6.47499990463257,1000,0.02203986980021,-0.114218302071095,-8.44289852142334,-42.6907424926758,-44.5937210858239,0.0413690206608203,-0.3246374293697,-1.13846158981323,-1.23159472131597,-18.9803467035294,-37.6683006286621,-36.5136153069831,-0.00271858053127734,-0.751496765722324,-2.28131866455078,-2.30002908380544,0.992547053378605,9.72472745037541,0.42500488532345,-22.1284497240221,-15.7747932546349,61.4524460265401,-4.12855291576675,9.49635297747609,0.260812763550356,4.16755389727551,-45.2403198220333,-32.0044542468349,-9.11783981323242,10.0471076965332,-2.26568865776062,12.4949998855591,-23.2399997711182,-213.184997558594,179,0.294097185134888,-0.0955661088228226
79.295,-36.5815439729947,32.8048540990832,32.8469077809476,0.814122283689829,8.120523569162,3.48311697878155,3.30594007004828,-38.5258144142287,55.6504345639496,57.036588513474,0.691788671794225,8.9044785348216,6.79185844954068,6.70868452309454,4.4344886910931,8.37943181125403,1.72210229836008,-23.6029041661304,3.77364017271756,-88.1186868105277,-3.79238639273306,10.4066476863989,0.478238614887539,-4.1132850585146,-9.32884409130221,12.2161202068577,-1.32901819469885,9.13886383221526,0.767018668030788,11.6756818052749,-0.169630613495742,-6.47460217424437,999.846589038591,0.0220475066326037,-0.114170871985701,-8.45469644019409,-42.5480577888063,-44.6120170951601,0.047506023555531,-0.25655156988687,-1.13531469814604,-1.23803470523929,-18.9935107069728,-37.6030733435152,-36.9735736713869,-0.00323935179824228,-0.594679674361632,-2.27517473386176,-2.30291190096247,1.04119319636654,9.72835225263673,0.565795403279881,-20.376893416817,-13.7818459887269,62.3733859283494,-4.35545461196125,9.17624995427666,0.0996022678778497,3.85311449350954,-42.7235547848444,-30.9194018257726,-9.10103364523639,10.0490672827276,-2.25868041802708,12.6855135814,-23.3098017685298,-213.023120640357,178.573858440529,0.294083344666019,-0.095668549332133
79.3,-35.6482217521367,39.95981367079,34.0750967925131,0.804325050219602,8.58780614700175,4.15748305293123,3.98897224024147,-37.3409980941509,57.6684992588301,57.1701236085866,0.661442145078546,8.88105315127246,7.21670909881127,7.14608401861878,4.6364894226666,8.35386209839662,1.81671023593246,-24.0669471031722,7.47651340503054,-87.9040274927125,-3.89977918673414,10.2557863805402,0.398972505029585,-1.98878916307843,-9.6824006147626,14.7194266631443,-1.42700213951824,9.3305449903749,0.794576647748513,12.6064194410711,0.0720031673676545,-6.45670345327676,992.942766567091,0.0223911804783712,-0.112036416361712,-8.98562810230028,-36.1269399243288,-43.125090479163,0.0468559896248735,-0.204524580959061,-0.993697820136091,-1.10448571829343,-19.5859191108635,-34.667705539191,-36.6748839174373,-0.000679342145841947,-0.462046444700016,-1.9986846684552,-2.03540732623824,1.09488959336708,9.65420008535025,0.376579528135088,-18.4481163111536,-12.8537601146433,59.7311822664177,-4.60092385539232,9.00748984941779,0.081703468877654,3.90993607763711,-41.9501498897748,-28.9590571733716,-8.34472002067675,10.1372528665946,-1.94329459087693,21.2590387219126,-26.4510414417492,-205.738311944324,159.396573797476,0.293460493866339,-0.100278592080519
79.305,-34.7148550259037,47.1151144260155,35.3033443701465,0.794527349569295,9.05511100716365,4.83188128415851,4.6757805657209,-36.1561252762275,59.6866601849201,57.3036650713066,0.631094171291831,8.85762665068628,7.64158000704182,7.58525454004411,4.83849978662442,8.32829116625006,1.91132268487472,-24.5310121680542,11.1795632084766,-87.6893579388895,-4.00717710174968,10.1049178808755,0.319702615375253,0.135808038728232,-10.0359739975298,17.2228524893444,-1.52499075669207,9.52223528883104,0.822135941565694,13.5372014589966,0.313648470513291,-6.43880387881046,986.038614887521,0.022734870712191,-0.109901858956423,-9.51658508182873,-29.7055158694997,-41.6380929592216,0.0462059246974143,-0.152495111129582,-0.852074189139729,-0.96929263988884,-20.1783557636886,-31.7321977621519,-36.3761799204972,0.00188078958035804,-0.329406890436346,-1.72218141864801,-1.76765989859156,1.14858855087485,9.58004438212523,0.187354630250552,-16.5192472319502,-11.9256299848793,57.0888526112733,-4.84640480399928,8.8387216972505,0.0638038163750502,3.96676037129613,-41.1767081149715,-26.9986190421355,-7.58837033137893,10.2254426555823,-1.62789372458572,29.8329726900988,-29.5924309046626,-198.453155872931,140.218374687557,0.292837613366082,-0.104888854658325
