time,hip_angle_l,hip_angle_l_velocity,hip_angle_l_velocity_filt,hip_angle_l_torque_estimated,hip_angle_l_torque_desired,hip_angle_l_torque_measured,hip_angle_l_torque_interaction,knee_angle_l,knee_angle_l_velocity,knee_angle_l_velocity_filt,knee_angle_l_torque_estimated,knee_angle_l_torque_desired,knee_angle_l_torque_measured,knee_angle_l_torque_interaction,thigh_imu_l_accel_x,thigh_imu_l_accel_y,thigh_imu_l_accel_z,thigh_imu_l_gyro_x,thigh_imu_l_gyro_y,thigh_imu_l_gyro_z,shank_imu_l_accel_x,shank_imu_l_accel_y,shank_imu_l_accel_z,shank_imu_l_gyro_x,shank_imu_l_gyro_y,shank_imu_l_gyro_z,foot_imu_l_accel_x,foot_imu_l_accel_y,foot_imu_l_accel_z,foot_imu_l_gyro_x,foot_imu_l_gyro_y,foot_imu_l_gyro_z,insole_l_force_y,insole_l_cop_x,insole_l_cop_z,hip_angle_r,hip_angle_r_velocity,hip_angle_r_velocity_filt,hip_angle_r_torque_estimated,hip_angle_r_torque_desired,hip_angle_r_torque_measured,hip_angle_r_torque_interaction,knee_angle_r,knee_angle_r_velocity,knee_angle_r_velocity_filt,knee_angle_r_torque_estimated,knee_angle_r_torque_desired,knee_angle_r_torque_measured,knee_angle_r_torque_interaction,thigh_imu_r_accel_x,thigh_imu_r_accel_y,thigh_imu_r_accel_z,thigh_imu_r_gyro_x,thigh_imu_r_gyro_y,thigh_imu_r_gyro_z,shank_imu_r_accel_x,shank_imu_r_accel_y,shank_imu_r_accel_z,shank_imu_r_gyro_x,shank_imu_r_gyro_y,shank_imu_r_gyro_z,foot_imu_r_accel_x,foot_imu_r_accel_y,foot_imu_r_accel_z,foot_imu_r_gyro_x,foot_imu_r_gyro_y,foot_imu_r_gyro_z,insole_r_force_y,insole_r_cop_x,insole_r_cop_z
135,-24.0251302261529,-10.3104442521869,-12.3815170711244,0.918106916320728,11.8744335868652,12.9418691260228,12.8575505492001,-42.3615531423265,-121.576598623791,-206.45140006539,0.565150212602554,-4.02757662203921,-7.11059239211946,-8.03865817204536,-6.3745579786092,21.8458704683495,3.13980528582071,-17.2807911224227,-8.33719419333891,34.6064127129331,-23.9800390186001,18.9518568560353,7.64603841248597,-2.67736127694288,-223.801211542422,-255.015230801201,-2.98310577215964,11.1638895297579,-12.0201360141146,-11.1387688821739,46.7760920994311,160.892864302969,852.871465912391,0.140938607639053,-0.205663417084614,-30.0003047893659,-171.176688790627,-184.519618423397,-0.469139776238872,-11.0502324730266,-11.8646610007191,-12.1348024427333,-90.53559731253,-200.555638754178,-205.81510801923,0.191679247491387,1.39422094066681,2.17669181884665,1.30750416368677,-0.244402283030045,17.9197666460419,-5.92174017905621,-72.3031079096809,79.1426934323444,295.491454928131,-22.1837664945134,15.3713117320975,-1.65385715909235,15.3197044943959,35.4092516282693,-134.377375135881,8.61531538159668,39.0367690164363,-15.4276615805901,-306.197941050453,55.6469140289007,-235.6297589918,0,0,0
135.005,-23.9788262715888,-0.810542932352162,-11.5644765792208,0.882938529952621,11.753262409854,12.7067423056489,12.5616209576764,-43.293406338156,-110.366714071373,-191.39346913944,0.738899115728056,-3.52774378715729,-6.86848154177338,-7.8988789663597,-3.88270756253708,23.6677547257965,3.62970148876794,-12.3017326166594,8.76422080577328,31.2325529769201,-24.2898652658695,17.4080217948556,4.69342075688508,-4.64871536688069,-186.16567541744,-250.274827102346,-2.62794133123383,10.4053597292802,-4.89147866322435,11.8744359389673,46.2756037077763,136.76746148456,1053.86131349993,0.1345165688962,-0.193780184316335,-31.5283130663445,-169.466709346164,-181.952495005311,-0.453970694689217,-10.5876056635361,-12.0485721905597,-12.3437951226095,-92.18515170245,-187.635770716636,-201.682589471701,0.195257405944427,1.29109597095124,1.90664510115295,1.02327435741047,1.44772568282552,20.1388640410137,-5.48745381536245,-58.5232447436977,60.9656971801816,299.277239399355,-23.5872529137676,15.6069915270289,-1.74124404934779,12.6716169108973,37.485221523975,-124.644835955541,11.0519969713078,36.8988062959605,-15.3445785195702,-277.697902473711,73.8869405767197,-192.022377922736,0,0,0
135.01,-23.9325201090254,8.68981138930985,-10.7473971268245,0.847768466583591,11.6320854548075,12.4716042732766,12.266141278104,-44.2253039693103,-99.1562949767514,-176.334820177587,0.912656304052315,-3.02788711779753,-6.62635914639606,-7.74339976283967,-1.39073832283156,25.4897258596088,4.11962105236574,-7.32243668499818,25.8664512841186,27.8585323587491,-24.5997062871718,15.8641131160583,1.74066230601189,-6.62016346063757,-148.52834464575,-245.534197357822,-2.2727599543278,9.64679375838612,2.23751861696591,34.8887381424375,45.7750914503836,112.640908248774,1254.86074526789,0.128094223919083,-0.181896384897311,-33.0563942062421,-167.756648361505,-179.385249174207,-0.438800889803452,-10.1249567937333,-12.2324921501866,-12.5493918951017,-93.8347847512032,-174.715286596502,-197.549873865447,0.198835735021588,1.187966083732,1.63658550630901,0.735251145254635,3.13993433763087,22.3580672534189,-5.05314674276765,-44.7427244863424,42.787834159803,303.063204395325,-24.9908062581289,15.8426825603273,-1.82863510663821,10.0234030536119,39.5612904120937,-114.911832680061,13.4887947539324,34.7607416269501,-15.261491496743,-249.196504875531,92.1278368983476,-148.412917440145,0,0,0
135.015,-23.8862161544614,18.1897127091446,-9.93035663492089,0.812600080215485,11.5109142777962,12.2364774529027,11.971658292294,-45.1571571651399,-87.9464104243336,-161.276889251637,1.08640520717782,-2.52805428291561,-6.38424829604998,-7.57324988651039,1.10111209324056,27.3116101170558,4.60951725531298,-2.34337817923487,42.9678662832308,24.4846726227362,-24.9095325344412,14.3202780548786,-1.21195534958899,-8.59151755057538,-110.892808520768,-240.793793658967,-1.91759551340199,8.88826395790836,9.36617596785615,57.9019429635787,45.2746030587288,88.5155054303655,1455.85059285543,0.12167218517623,-0.170013152129032,-34.5844024832206,-166.046668917041,-176.818125756121,-0.423631808253796,-9.66232998424277,-12.4164033400271,-12.751576585336,-95.4843391411232,-161.79541855896,-193.417355317918,0.202413893474629,1.08484111401644,1.3665387886153,0.44310151822844,4.83206230348643,24.5771646483906,-4.6188603790739,-30.9628613203593,24.6108379076402,306.848988866549,-26.3942926773831,16.0783623552587,-1.91602199689365,7.3753154701134,41.6372603077994,-105.179293499722,15.9254763436435,32.6227789064742,-15.1784084357231,-220.696466298789,110.367863446167,-104.805536371081,0,0,0
135.02,-23.6880195798935,24.1771078141161,-6.39516441153233,0.772660927495598,11.4069660653417,12.0799741434051,11.7573021301175,-45.8063195796826,-72.7232460749511,-144.079625437035,1.18088673657901,-1.95271219246274,-6.05345303539279,-7.30093383583031,2.46201863883966,26.2079653475093,5.68162131653214,-3.01837243162962,47.4279783535367,13.4975212223008,-23.6251263372055,12.9325977554637,-3.10534015882393,-3.86606643834007,-95.8251369919064,-233.248867887379,-3.00086548710664,8.74605158063349,9.95715033141007,70.5834296127172,44.6501272637285,70.3490734672409,1636.79973748113,0.118050694761763,-0.152408862156396,-36.1236169159177,-162.243153472378,-173.851205545156,-0.410323536570842,-9.26718496139107,-12.2941492227648,-12.6442561676428,-96.8832663337601,-143.493039301145,-186.144030854037,0.201049757929377,1.06607651833234,1.0870039537372,0.137256579159395,6.14112108682813,26.3132088993896,-3.79046649602939,-25.8417322356156,15.5242297623475,311.889514234762,-27.5204567828313,14.3983449497933,-1.89447804685961,4.24984471684828,30.4593464414514,-84.8049442674062,17.7062305665997,30.2038358341234,-14.5062063968486,-184.222964614735,116.270483351871,-66.674262582191,0,0,0
135.025,-23.3931999424855,27.9297806962062,-1.13088094655607,0.729687982096129,11.3139776880481,11.9734932656691,11.5949880905596,-46.2756237514221,-54.9474272703243,-125.521910264239,1.22493811128692,-1.32935105663669,-5.66624971236301,-6.9600406362647,3.10341471418257,23.2432289820831,7.12407429283981,-7.29026808524084,43.8459751563162,-2.33262193960929,-21.3265610028221,11.6443000590668,-4.32481853383214,5.11952791977294,-95.1148536254747,-223.920026543574,-4.99918713134332,8.99592433382913,6.38904848477108,76.6918332512441,43.9467937151278,55.9740932795322,1804.99415895517,0.116210930677758,-0.131165558299055,-37.6699136445647,-157.107914851955,-170.630037799991,-0.398199454444428,-8.91498161181442,-11.9771265438741,-12.3389649447712,-98.1227103347313,-121.767039123323,-176.872849889526,0.196541539334417,1.100979779348,0.801441571095128,-0.17862278472596,7.20644418192559,27.7418980114196,-2.71137953665418,-26.2291595263965,12.2209023356887,317.728111476531,-28.4701634179957,11.4996751329002,-1.8036365426265,0.820773344936025,10.8500879519234,-57.6612445176904,19.0696514157428,27.6062157060043,-13.459246685884,-142.678115082638,114.324273027006,-32.0278643043349,0,0,0
135.03,-23.0983943628515,31.6822746410046,4.13315150356872,0.686717085759477,11.2209937446845,11.8670174652208,11.4352196495785,-46.744905545507,-37.1724560633899,-106.965079972007,1.26898738550966,-0.706019644305591,-5.27906485220387,-6.60834071913479,3.74478020607729,20.2786339830675,8.56645848920393,-11.5619600436559,40.2641427584089,-18.162010278748,-19.0281052700663,10.3560637920851,-5.54423876091096,14.1046938211647,-94.4046041272179,-214.591630023408,-6.9974134903595,9.24578517243611,2.82111677459244,82.7999456250543,43.2434937033165,41.5997985286053,1973.18056047778,0.114371254318533,-0.109923267378193,-39.2161366417255,-151.972921093188,-167.409023648557,-0.386075950426069,-8.56279505621781,-11.6601189814567,-12.0307063112537,-99.3620952357596,-100.042074898208,-167.602110999255,0.192033535703151,1.13588137608458,0.515892804816904,-0.498055849882468,8.27171647962199,29.1705189998031,-1.6323440309772,-26.6165683436275,8.91773242035102,323.566430318661,-29.4198247686552,8.60114353219137,-1.71279936995472,-2.60813451985378,-8.75823551669628,-30.518839050816,20.4330072534016,25.0087194392302,-12.4123368967062,-101.135246518,112.378155502557,2.61688194232342,0,0,0
135.035,-22.8035747254435,35.4349475230947,9.39743496854498,0.643744140360007,11.128005367391,11.7605365874848,11.2785178489665,-47.2142097172465,-19.3966372587631,-88.4073647992113,1.31303876021757,-0.0826585084795501,-4.89186152917409,-6.24709555513348,4.3861762814202,17.3138976176413,10.0089114655116,-15.8338556972671,36.6821395611884,-33.9921534406582,-16.7295399356829,9.06776609568815,-6.76371713591916,23.0902881792777,-93.6943207607861,-205.262788679603,-8.99573513459618,9.49565792563175,-0.746985072046548,88.9083492635812,42.5401601547158,27.2248183408966,2141.37498195183,0.112531490234528,-0.0886799635208521,-40.7624333703725,-146.837682472765,-164.187855903392,-0.373951868299655,-8.21059170664115,-11.343096302566,-11.7197553398805,-100.601539236731,-78.3160747203863,-158.330930034744,0.187525317108192,1.17078463710024,0.230330422174831,-0.820424533648397,9.33703957471945,30.599208111833,-0.553257071601994,-27.0039956344085,5.61440499369223,329.40502756043,-30.3695314038196,5.70247371529827,-1.6219578657216,-6.03720589176604,-28.3674940062243,-3.37513930110023,21.7964281025447,22.4110993111111,-11.3653771857417,-59.5903969859032,110.431945177692,37.2632802201795,0,0,0
135.04,-22.2951652148678,46.0559185726185,16.7891826771221,0.601466229388912,11.1298099986056,11.535173677401,11.0065522857082,-47.095891972943,-4.06575823684899,-71.3950062852341,1.3432721689496,0.769136275276441,-4.35519757184288,-5.72804652145758,4.79797078999777,19.3547045806594,7.69491037840231,-13.940853297053,28.1733257931532,-53.9829143889039,-20.227014826289,8.52450763443242,-5.51595928302723,21.1438972349941,-85.3529186780643,-190.645220864443,-9.03880405426025,9.50104331970215,-0.823886752128601,89.0400009155273,42.5250015258789,26.9150009155273,2145,0.112491838634014,-0.0882221162319183,-41.963332492966,-138.678207755379,-159.589281431604,-0.361301583588968,-8.13089590775859,-10.8901277045334,-11.2705702907887,-100.931821951346,-57.3425562537384,-141.02292383142,0.182669939599012,1.28791456638194,0.177214156969818,-0.912454428764542,9.87549236556762,29.5322416463819,0.447565833148945,-22.9894410158481,-2.58833348359056,323.892202743423,-29.9145718079221,2.52834919229917,-2.25835583093605,-4.82839806687264,-46.6491821909687,34.7119214072817,20.3097328465448,21.5689268173383,-10.337209715572,-21.6196141995326,103.584432927347,68.2330739847932,0,0,0
135.045,-21.7820258913293,56.8287046103353,24.2281551815381,0.55920156846171,11.1337028526614,11.3071810075077,10.7361402365158,-46.9646241129518,11.2120099169544,-54.4158603474678,1.37320266393279,1.62600459105875,-3.8152150867734,-5.19834535889729,5.20472762063443,21.5058749332882,5.29804798042253,-11.9119560226867,19.5555677689761,-74.0663011961278,-23.8523374510238,7.99763469273526,-4.21379144266691,18.9565976817321,-76.8430090139864,-175.91043866589,-9.03880405426025,9.50104331970215,-0.823886752128601,89.0400009155273,42.5250015258789,26.9150009155273,2145,0.112491838634014,-0.0882221162319183,-43.1566815975852,-130.451716409963,-154.960140830136,-0.348639090980586,-8.05719912038316,-10.4341423647469,-10.8165458009694,-101.242093426684,-36.3845915769917,-123.537036005496,0.177806678118551,1.40686152300346,0.129215710801617,-1.00052777050341,10.4023653072648,28.4102479726124,1.44671348424301,-18.8777222870659,-10.8993977337355,318.129056000622,-29.4286475404501,-0.651997839188787,-2.91080470692371,-3.51736643941669,-64.9025171377592,73.0419026387898,18.7601817410989,20.7653829194148,-9.30940609965302,16.2742882619545,96.6286192986428,99.1233874898318,0,0,0
135.05,-21.2689110356205,67.600976973341,31.6667729762218,0.516938922824462,11.1375955210956,11.0791992089033,10.470506061738,-46.8333625121566,26.4890495866765,-37.4375240199407,1.40313173175144,2.48283204911096,-3.27525834948596,-4.66212572991471,5.61146505603789,23.6569427124689,2.90129987113234,-9.88315549146724,10.9382206621184,-94.1487303747607,-27.4774872108613,7.47078687372273,-2.9116856930867,16.7694024246532,-68.3335051247352,-161.176359060422,-9.03880405426025,9.50104331970215,-0.823886752128601,89.0400009155273,42.5250015258789,26.9150009155273,2145,0.112491838634014,-0.0882221162319183,-44.3499738001872,-122.225617325244,-150.331220958241,-0.335977202153084,-7.98350584706397,-9.97817876753801,-10.3612493740766,-101.552350107465,-15.427626231004,-106.051981952594,0.17294364853116,1.52580280792191,0.0812195533252981,-1.08872109219463,10.9292131262773,27.2883077984458,2.44581349335486,-14.7661996158237,-19.2100656905251,312.366184059783,-28.9427464431225,-3.83219322338362,-3.56322247243663,-2.20639732538948,-83.1549817176344,111.370056196198,17.2107045223164,19.9618773365732,-8.28165149210785,54.1663838427216,89.6731373413876,130.012228063652,0,0,0
135.055,-20.6434696096706,77.7375062369974,39.258572197112,0.474557040543189,11.1841492221307,10.9190190911558,10.2780396617846,-46.5164926673123,42.525296163382,-21.1108928371416,1.40980808484922,3.42272177459727,-2.74319144039734,-4.12778918505215,5.78461293212784,24.9007638961613,1.45000442163809,-7.22219262971252,4.07595104364591,-113.89187730141,-29.4284491686157,7.42539195494585,-1.92076692149264,14.190858040565,-56.2201766040756,-147.658039875476,-8.59092495427316,9.64308966564539,-0.855575446153658,85.8926199093423,40.5407244274758,23.9668553267654,2160.61574801317,0.113860338678197,-0.0861708984418583,-45.4546535289719,-115.267730991555,-145.381667474441,-0.321290941423934,-7.94007847234502,-9.56178921649266,-9.94480794827197,-101.652164713417,4.60863534225803,-87.9572622762805,0.167012861325588,1.63866134025011,0.0584955879634336,-1.15067066004598,11.2530760638112,26.1815305849362,3.08846057178762,-12.2887068231277,-25.38082787488,305.306670194783,-27.9061374664014,-6.20846615701469,-4.13692603064893,1.121614009956,-96.3713367238305,146.140749158804,16.1496181488037,19.4116344451904,-7.57784223556519,80.1149978637695,84.9100036621094,151.164993286133,0,0,0
135.06,-19.7741170607733,86.4914847248224,47.1819773267197,0.431922552670846,11.3233679565161,10.906148021798,10.2388552383759,-45.7964760787159,60.2083335651687,-6.20242293321402,1.36597182072429,4.54290454695934,-2.2283439973006,-3.60493519651237,5.450310678256,24.1735954899291,2.05272454358222,-3.18839324308193,1.02725427047925,-132.895018847987,-27.7422969246343,8.42585855412434,-1.60598596711697,10.7625804438618,-36.280133183532,-136.782748026532,-7.17019093433225,10.093680184595,-0.956096335943321,75.9086950748683,34.2463249371398,14.6149326007137,2210.15104548469,0.118201408777509,-0.0796641538834936,-46.3666742929678,-111.065821242931,-139.73635393209,-0.302209382159185,-7.96240393338054,-9.23142889952765,-9.61427458799835,-101.294823298919,22.6418318509781,-68.5409099728083,0.158763493516857,1.7382893070843,0.0906735549750428,-1.15563516277343,11.1359482668342,25.107859112647,2.95669180018849,-13.3611732769294,-26.9021637152448,295.431543690396,-25.6733888365274,-6.83802806576603,-4.53955283275736,8.83071978321043,-98.6458091188313,173.178351470238,16.1496181488037,19.4116344451904,-7.57784223556519,80.1149978637695,84.9100036621094,151.164993286133,0,0,0
135.065,-18.9047230568882,95.2458806452204,55.1057602830944,0.389286031777289,11.4625933295327,10.8932763386846,10.2062454864627,-45.0764251562018,77.8922141807937,8.70675787958312,1.32213346627156,5.66314073512287,-1.71347200375594,-3.07632272856224,5.11599248321521,23.4463924087455,2.65547340617401,0.845598494861736,-2.02158787948266,-151.899066557433,-26.0560642766549,9.42637286045077,-1.29119000244354,7.33413937009039,-16.339138924048,-125.906937590403,-5.74938916683424,10.5442921899076,-1.05662201906138,65.9242941579551,27.9516252990049,5.26256392917901,2259.68870504183,0.122542685880307,-0.073157099051677,-47.2787385465811,-106.863711126668,-134.090771193538,-0.283126912992226,-7.98473045900339,-8.90105282936456,-9.28419959274676,-100.937464844631,40.6758882708378,-49.1236318025533,0.150513732337861,1.83792202466796,0.122853056389733,-1.15742123238891,11.0188148846302,24.0341364424431,2.82491674520891,-14.4336908711848,-28.4235721003542,285.555946291606,-23.4405337382623,-7.46761999511291,-4.94219883408386,16.5401931643888,-100.920389971817,200.217243066985,16.1496181488037,19.4116344451904,-7.57784223556519,80.1149978637695,84.9100036621094,151.164993286133,0,0,0
135.07,-18.0353705079908,103.999859133045,63.029165412702,0.346651543904946,11.6018120639181,10.8804052693268,10.1807926899825,-44.3564085676054,95.5752515825804,23.6152277835107,1.27829720214663,6.78332350748494,-1.1986245606592,-2.54175402718331,4.78169022934337,22.7192240025133,3.25819352811814,4.87939788149232,-5.07028465264932,-170.902208104009,-24.3699120326736,10.4268394596293,-0.976409048067872,3.90586177338717,3.60090449649565,-115.031645741458,-4.32865514689334,10.9948827088572,-1.15714290885104,55.9403693234812,21.6572258086688,-4.08935879687262,2309.22400251335,0.126883755979619,-0.0666503544933122,-48.190759310577,-102.661801378045,-128.445457651187,-0.264045353727478,-8.00705592003891,-8.57069251239955,-8.95517911214293,-100.580123430133,58.7090847795578,-29.7072794990811,0.142264364529129,1.93754999150215,0.155031023401342,-1.15498945613216,10.9016870876532,22.9604649701539,2.69314797360978,-15.5061573249865,-29.944907940719,275.680819787218,-21.2077851083883,-8.09718190386426,-5.34482563619229,24.2492989376433,-103.194862366818,227.254845378419,16.1496181488037,19.4116344451904,-7.57784223556519,80.1149978637695,84.9100036621094,151.164993286133,0,0,0
135.075,-17.3548454284668,110.852432250977,70.9434796179553,0.30420222875222,11.7509602615321,10.8703298568726,10.1658306401386,-43.7927829742432,109.417449951172,38.2884964476288,1.22738813004535,7.94253477342359,-0.795604407787323,-2.11256725850813,4.5765302627987,22.1211695659726,3.81705660471004,7.68599108410175,-6.54672268284533,-189.557628436023,-23.0319103159044,11.4095518276795,-0.716432736928325,1.3897192971814,19.0779725966795,-104.29220323052,-2.99094970158484,11.5282145906128,-1.06320654284491,45.4697735547268,16.0671822432682,-15.4284537423499,2337.08965927985,0.133204856291508,-0.0610245812275594,-48.9046848678589,-99.3725662231445,-122.923886205386,-0.243894903555169,-8.00020799022446,-8.31208801269531,-8.69945840283989,-100.300398254395,72.8253860473633,-10.7619333100716,0.131810924976179,2.02345471104765,0.180219784379005,-1.15436712314399,10.8755751048465,22.0289862768941,2.56286547385659,-16.6450800338352,-30.1196535477168,264.997085528837,-19.2417931855969,-8.52046777675755,-5.59894731617741,29.9677998882985,-101.552785076976,254.176767133662,16.1496181488037,19.4116344451904,-7.57784223556519,80.1149978637695,84.9100036621094,151.164993286133,0,0,0
135.08,-17.3548454284668,110.852432250977,78.8233006431367,0.262429437892818,11.9358531738441,10.8703298568726,10.1691112410793,-43.7927829742432,109.417449951172,52.1110766083722,1.15100576850868,9.24211753613291,-0.795604407787323,-2.07931817369087,4.83673573715163,21.9884647740526,4.21777303521355,6.0701472125027,-2.35773578708952,-206.956058671769,-22.9486445641115,12.3280771521453,-0.653983423083619,2.16069848044933,18.470826489856,-94.0446049195832,-1.95270316466332,12.3595598349545,-0.268630059459953,33.2479224169252,13.0162732053709,-33.9251606411078,2286.87000272973,0.146658936162076,-0.0585743238776941,-48.9046848678589,-99.3725662231445,-117.849389348786,-0.219897490545211,-7.8882451490265,-8.31208801269531,-8.70430398658728,-100.300398254395,72.8253860473633,6.48214384443248,0.113418155240272,2.05989351044155,0.180219784379005,-1.17290289017391,11.1774134550959,21.6100554631858,2.4379668461672,-18.0232053239266,-25.4423798358913,251.402152597213,-18.2374000545946,-8.20041504330346,-5.31792540387623,28.5125766798803,-85.7991104322014,280.675964145234,16.1496181488037,19.4116344451904,-7.57784223556519,80.1149978637695,84.9100036621094,151.164993286133,0,0,0
135.085,-17.3548454284668,110.852432250977,86.7034974167815,0.220654655102136,12.1207549027558,10.8703298568726,10.1809384636654,-43.7927829742432,109.417449951172,65.9343158974434,1.07461976468688,10.541762269314,-0.795604407787323,-2.03823231515001,5.09695361937611,21.8557536541182,4.61850857383924,4.45422628955313,1.83145086007995,-224.355318549891,-22.8653748417997,13.2466462763977,-0.591531131349741,2.93171442778112,17.8636514313322,-83.7965179529647,-0.914407119061375,13.1909447219096,0.525984313223715,21.0254884813963,9.96521868518669,-52.422749553451,2236.64795146041,0.160113657589074,-0.0561239496875564,-48.9046848678589,-99.3725662231445,-112.774650515321,-0.195898933221056,-7.77627696889185,-8.31208801269531,-8.71141663586414,-100.300398254395,72.8253860473633,23.7270432810001,0.0950245084470128,2.0963340474159,0.180219784379005,-1.1846895543807,11.4792661984763,21.1911046728044,2.31306226269945,-19.4013963297822,-20.7648830887451,237.806571392595,-17.2329590292081,-7.88034704816735,-5.03689009107378,27.0572840792915,-70.0446845750549,307.176424768317,16.1496181488037,19.4116344451904,-7.57784223556519,80.1149978637695,84.9100036621094,151.164993286133,0,0,0
135.09,-17.3548454284668,110.852432250977,94.5833184419628,0.178881864242734,12.3056478150678,10.8703298568726,10.201572758813,-43.7927829742432,109.417449951172,79.7568960581868,0.998237403150209,11.8413450320233,-0.795604407787323,-1.98850005116201,5.35715909372904,21.7230488621982,5.01922500434274,2.83838241795407,6.02043775583575,-241.753748785637,-22.7821090900067,14.1651716008636,-0.529081817505036,3.70269361104905,17.2565053245087,-73.5489196420283,0.123839417860153,14.0222899662513,1.32056079660867,8.80363734359466,6.91430964728936,-70.9194564522089,2186.42829491029,0.173567737459642,-0.053673692337691,-48.9046848678589,-99.3725662231445,-107.700153658722,-0.171901520211097,-7.66431412769389,-8.31208801269531,-8.72096834401481,-100.300398254395,72.8253860473633,40.9711204355042,0.076631738711106,2.1327728468098,0.180219784379005,-1.18915849935746,11.7811045487257,20.7721738590962,2.18816363501006,-20.7795216198737,-16.0876093769196,224.211638460971,-16.2285658982058,-7.56029431471326,-4.7558681787726,25.6020608708733,-54.29100993028,333.675621779889,16.1496181488037,19.4116344451904,-7.57784223556519,80.1149978637695,84.9100036621094,151.164993286133,0,0,0
135.095,-16.8472096013829,112.824907466458,101.253572388428,0.139756456119279,12.4251226973565,10.8653295046783,10.2261313207947,-43.106956328543,116.015039215628,92.091443280174,0.909848640592429,12.8201007326354,-0.437249056461683,-1.57096531866381,5.56550279633274,21.5470984574873,5.28990747339557,0.397005732545512,8.59984308981535,-256.684327637175,-22.4939542440238,15.4007385217486,-0.383826808556908,5.4678771805736,21.4432075949182,-61.6000970510817,0.773591339588165,14.5425596237183,1.81781995296478,1.15499997138977,5.00500011444092,-82.495002746582,2155,0.181987524032593,-0.0521402806043625,-49.2962893801174,-97.6041400930666,-103.460969504653,-0.142318372347869,-7.49649912969896,-8.29958722261565,-8.72048251992196,-99.7741145761734,81.1914014418973,56.0356614946974,0.0536920028800066,2.14010536585678,0.239390088013508,-1.1267311030647,11.7889367895926,20.0824633094568,1.95548008745336,-21.8280592751262,-9.35572039923369,209.923397348573,-15.2520932030391,-7.32492492782685,-4.31930689601023,22.8480734510264,-41.1762145216633,354.974556749606,14.4141101300805,19.3407974182571,-7.41459913403078,83.1177087235687,83.8051382811267,181.689787272519,0,0,0
135.1,-15.4907326735316,118.095648769193,105.900249806476,0.105063180569051,12.435185538245,10.8519678347159,10.251208330551,-41.2743275585408,133.644759458353,101.936021231588,0.801393158075613,13.2622212244475,0.520328679604831,-0.544031636347139,5.68709290105933,21.2988519936705,5.34310314421346,-3.42457626271914,8.48725965951295,-267.486082311188,-21.8632055757547,17.1663281674659,-0.100116564194869,8.89541716977988,33.6460005126946,-46.8078852363503,0.773591339588165,14.5425596237183,1.81781995296478,1.15499997138977,5.00500011444092,-82.495002746582,2155,0.181987524032593,-0.0521402806043625,-50.3427137209143,-92.8786476906884,-100.61919654989,-0.103398119353852,-7.23530545040872,-8.26618328928733,-8.70142627949174,-98.3678078717931,103.546614087001,67.4535032348389,0.0231514205533062,2.098763298284,0.397501764557742,-0.957390643949389,11.305109497868,18.9400229504632,1.54258035681932,-22.3253027589618,0.811188820574335,194.477576174586,-14.3224355273171,-7.2311992221001,-3.62269692101415,17.9225483752966,-32.4760172132948,367.574518990949,9.77657971970275,19.1515105564045,-6.97838977084552,91.1413898449817,80.8527769273312,263.25648639185,0,0,0
135.105,-14.1341910622161,123.36664140669,110.547148800863,0.0703682506735102,12.445248858979,10.8386055276035,10.2849442676498,-39.4416113998222,151.275320372493,111.7810686207,0.692932503870155,13.7043627987302,1.4779520776682,0.493726022539208,5.80868880379769,21.0505936922464,5.3963013516615,-7.24634048973216,8.37467086068114,-278.288352065773,-21.2324268302995,18.9320020051457,0.183607208861288,12.3231206008816,45.8493753194089,-32.0149680565044,0.773591339588165,14.5425596237183,1.81781995296478,1.15499997138977,5.00500011444092,-82.495002746582,2155,0.181987524032593,-0.0521402806043625,-51.3891879603493,-88.152929953686,-97.7772880854741,-0.0644760104515326,-6.97409931612448,-8.23277776309585,-8.68441743139378,-96.9614341078208,125.902892738143,78.8718894336014,-0.0073906180979532,2.05741925931893,0.555620980641176,-0.779981358340478,10.8212591348883,17.7975281143175,1.12966093710367,-22.8225699538023,10.9785828484134,179.031018468189,-13.3927335209634,-7.13746904707262,-2.92605372824234,12.996788426405,-23.7754050369034,380.175082060209,5.13882816915952,18.9622146684272,-6.54215960706119,99.165453574812,77.9002747904852,344.827075010925,0,0,0
135.11,-12.7777141343648,128.637382709424,115.193826218911,0.0356749751232821,12.4553116998676,10.8252438576411,10.3269400275335,-37.6089826298199,168.905040615219,121.625646572114,0.584477021353338,14.1464832905422,2.43552981373471,1.54264317281855,5.93027890852428,20.8023472284296,5.44949702247939,-11.0679224849968,8.26208743037874,-289.090106739786,-20.6016781620303,20.697591650863,0.467317453223327,15.7506605900879,58.0521682371852,-17.2227562417729,0.773591339588165,14.5425596237183,1.81781995296478,1.15499997138977,5.00500011444092,-82.495002746582,2155,0.181987524032593,-0.0521402806043625,-52.4356123011462,-83.4274375513078,-94.9355151307118,-0.0255557574575152,-6.71290563683425,-8.19937382976753,-8.66903239492284,-95.5551274034406,148.258105383247,90.2897311737429,-0.0379312004246536,2.01607719174614,0.71373265718541,-0.594568910593983,10.3374318431638,16.6550877553239,0.716761206469632,-23.3198134376379,21.1454920682215,163.585197294202,-12.4630758452414,-7.04374334134587,-2.22944375324627,8.07126335067519,-15.075207728535,392.775044301552,0.501297758781774,18.7729278065746,-6.10595024387592,107.189134696225,74.9479134366897,426.393774130256,0,0,0
135.115,-10.7555846041745,135.893785604709,119.780323561513,0.00554506987828137,12.3122208290241,10.9813576638953,10.5460940197007,-34.6689056634971,187.565339814728,132.595723096601,0.481174561220477,14.4,4.14325037430793,3.35312452281454,5.92941633687695,20.3475805074882,5.26709190139936,-14.3649414138279,11.3102975499921,-298.608139730567,-19.530692041075,22.5847745790331,0.610329143064063,20.2574041023253,75.6390749793791,-3.04233490795747,0.773591339588165,14.5425596237183,1.81781995296478,1.15499997138977,5.00500011444092,-82.495002746582,2155,0.181987524032593,-0.0521402806043625,-53.3821282161007,-71.2533264512718,-90.688192471681,0.0225363164307223,-6.43445486183433,-8.17309895091134,-8.66184718477285,-92.9277935095764,173.613092007823,103.671710210765,-0.0642400921297359,1.94910302870807,0.904085027725518,-0.369071226202193,9.72328121362613,15.3855749980601,0.460329143064086,-22.5935390914569,26.5881770348847,146.320067979311,-11.5319544243553,-7.21563630014744,-1.92256873852201,3.14411754468489,-8.96645229936317,400,-2.15791273117065,18.6643886566162,-5.85582304000854,111.790000915527,73.254997253418,473.165008544922,0,0,0
135.12,-7.83902672776791,145.818158126408,124.285424692581,-0.0184481797474501,11.9633033914315,11.365233456033,10.9999533366956,-30.2407182150251,207.608678206831,145.077272770152,0.384809442836491,14.4,6.85899147183572,6.18303023020312,5.7639742893355,19.6152960347637,4.7680535940612,-16.9565654736757,18.6063554652486,-306.399753667603,-17.8681350715191,24.6351711026616,0.564222342929557,26.2141214181772,100.460404637844,10.3142392196047,0.773591339588165,14.5425596237183,1.81781995296478,1.15499997138977,5.00500011444092,-82.495002746582,2155,0.181987524032593,-0.0521402806043625,-54.1942588246208,-49.0694393673043,-84.5522492838508,0.0829501802126793,-6.13284122496631,-8.15640864285053,-8.66466650991869,-88.659661066517,202.997018737075,119.692045011278,-0.0848585413829726,1.847686150368,1.13774845145998,-0.0926678105695321,8.934041281912,13.9454155350353,0.414222342929579,-20.2229062305108,25.6807737787881,126.611671059073,-10.5989697628101,-7.74450841933732,-2.13954191562555,-1.78465586112395,-6.34134472453019,400,-2.15791273117065,18.6643886566162,-5.85582304000854,111.790000915527,73.254997253418,473.165008544922,0,0,0
135.125,-4.92232977559596,155.743003890801,128.790740648939,-0.0424425734888472,11.6143693157463,11.7491275532488,11.4598929839875,-25.8123196088856,227.652972363485,157.559417625129,0.288439729291645,14.4,9.57486206920126,9.02420704241139,5.59852435270685,18.8829766431287,4.26899149013217,-19.548313114853,25.9027612922839,-314.191739146957,-16.2054988231034,26.6856653992395,0.518113344196979,32.1711227794878,125.282917898887,23.6714502540442,0.773591339588165,14.5425596237183,1.81781995296478,1.15499997138977,5.00500011444092,-82.495002746582,2155,0.181987524032593,-0.0521402806043625,-55.0064281595062,-26.8844944469397,-78.4160135041943,0.14336692482358,-5.83121320568272,-8.13971753891408,-8.66718541106843,-84.3913250979966,232.382346635881,135.713143739825,-0.105477973824863,1.7462644359744,1.37142301741101,0.191044524987034,8.14476371537206,12.5051873981532,0.368113344197002,-17.8521603261781,24.7733272532596,106.902334345934,-9.66594061198625,-8.27340575774036,-2.35652543907296,-6.71366429499086,-3.71611197170977,400,-2.15791273117065,18.6643886566162,-5.85582304000854,111.790000915527,73.254997253418,473.165008544922,0,0,0
135.13,-2.00577189918942,165.667376412499,133.295841780007,-0.0664358231145786,11.2654518781536,12.1330033453865,11.9248805566355,-21.3841321604136,247.696310755587,170.04096729868,0.192074610907659,14.4,12.290603166729,11.8758889975699,5.4330823051654,18.1506921704043,3.76995318279402,-22.1399371747009,33.1988192075403,-321.983353083993,-14.5429418535475,28.736061922868,0.472006544062473,38.1278400953396,150.104247557353,37.0280243816064,0.773591339588165,14.5425596237183,1.81781995296478,1.15499997138977,5.00500011444092,-82.495002746582,2155,0.181987524032593,-0.0521402806043625,-55.8185587680262,-4.70060736297226,-72.280070316364,0.203780788605537,-5.5295995688147,-8.12302723085327,-8.66865086261704,-80.1231926549372,261.766273365133,151.733478540338,-0.1260964230781,1.64484755763433,1.60508644114546,0.481737712242818,7.35552378365793,11.0650279351284,0.322006544062495,-15.481527465232,23.865923997163,87.1939374256955,-8.73295595044102,-8.80227787693024,-2.5734986161765,-11.6424377007997,-1.09100439687679,400,-2.15791273117065,18.6643886566162,-5.85582304000854,111.790000915527,73.254997253418,473.165008544922,0,0,0
135.135,-0.0911468021533244,167.144625151218,138.348583799743,-0.0926349016389343,10.7152499201927,12.2821416658946,12.1591180654562,-18.4856549201416,251.255046552511,183.31526943584,0.0961476456091779,13.9917535529389,13.3047175968049,13.03583554089,5.34756593755051,16.9377248591716,3.35260566795577,-18.0451499951564,39.249302516804,-325.550639974319,-12.3335558401831,28.961388636731,0.608519218573174,47.4181090325935,182.306946184986,42.6302572224993,-0.00850086353311286,14.1711465738042,1.5503471738923,-4.23894790371697,4.45817934779086,-112.077331266699,2034.06292201898,0.193733015619374,-0.049700360468726,-55.852979292571,10.4868432053913,-61.0190462588482,0.270672751842437,-5.29551789013047,-7.93554903910437,-8.49751928093366,-77.0218767451112,274.400143545592,171.126551225498,-0.146871370135991,1.50252247482633,1.62184675086391,0.562240867300847,6.82210042652671,10.1402860091772,0.271423579591384,-15.5047566104888,21.717477432832,74.1487996902565,-8.34148078142682,-9.27754367857542,-2.53548776999887,-16.4811478808685,-0.147850010830875,400,-2.15791273117065,18.6643886566162,-5.85582304000854,111.790000915527,73.254997253418,473.165008544922,0,0,0
135.14,1.47060165680404,165.647776782878,143.593809485974,-0.119608903284743,10.0942166448587,12.34862571067,12.3135597796622,-16.1259337835522,249.009774000001,196.86782229195,0.000381126507927293,13.4398009875775,13.719670312911,13.6055456839966,5.2901947349441,15.5556004327443,2.96404615939414,-11.5965237987116,44.8608629064213,-327.630426555898,-9.93178867652362,28.5441435268662,0.809318427695634,57.8814316179384,217.106347361907,45.5020368366925,-1.0658959761407,13.6689930653426,1.18872176934527,-11.5316099428417,3.71887315880122,-152.072883545428,1870.5549945907,0.209613017170944,-0.0464015683106167,-55.6135870913654,23.2100601806737,-47.9543470285327,0.339841164641595,-5.08522746315924,-7.68795317895052,-8.26373926818344,-74.331565051899,281.135961203123,191.705822641582,-0.1677000764334,1.34580390484687,1.56224031015032,0.572867682619424,6.37877749729533,9.39706815723042,0.219267940858284,-16.3707977721681,19.1322318832837,63.4504547822254,-8.14068157230438,-9.73390551749008,-2.40770645510277,-21.2878373023823,0.203073731262228,400,-2.15791273117065,18.6643886566162,-5.85582304000854,111.790000915527,73.254997253418,473.165008544922,0,0,0
135.145,3.03242458757768,164.150857037476,148.839285290257,-0.146584191183075,9.4731537556163,12.4151129257303,12.4697159985674,-13.7661001239006,246.764394381897,210.421021400162,-0.0953899592100369,12.8878221024143,14.1346428159952,14.1830290230434,5.23282079659774,14.1734100998545,2.57546812241191,-5.14759010018306,50.4726908827244,-329.710312311889,-7.5299069848415,28.1268785207108,1.01012721190794,68.3452531457555,251.90740794473,48.3739533914041,-2.12334151052659,13.1668156117421,0.827079120727634,-18.8246197318133,2.97953171607122,-192.070343007996,1707.03927030354,0.225493775958771,-0.0431026188499392,-55.3741834747671,35.9338838612622,-34.8890248093645,0.409012875729477,-4.87492700851041,-7.44034551221329,-8.02675889647166,-71.6411250714476,287.872100057433,212.286075378129,-0.188529775945548,1.18907786175835,1.50263102710968,0.589835033795587,5.93543342825521,8.65381486501608,0.16710981508886,-17.2368802309321,16.5468630565646,52.7515997247066,-7.93987278809209,-10.1902891179726,-2.27991904696767,-26.0947559303918,0.554014207118246,400,-2.15791273117065,18.6643886566162,-5.85582304000854,111.790000915527,73.254997253418,473.165008544922,0,0,0
135.15,4.59424751835131,162.653937292073,154.08476109454,-0.173559479081406,8.85209086637385,12.4816001407906,12.6264468663524,-11.406266464249,244.519014763794,223.974220508375,-0.191161044928001,12.3358432172511,14.5496153190793,14.7669048534735,5.17544685825138,12.7912197669647,2.18689008542968,1.30134359834546,56.0845188590275,-331.79019806788,-5.12802529315938,27.7096135145554,1.21093599612024,78.8090746735727,286.708468527553,51.2458699461158,-3.18078704491247,12.6646381581415,0.46543647211,-26.1176295207849,2.24019027334122,-232.067802470564,1543.52354601639,0.241374534746598,-0.0398036693892617,-55.1347798581688,48.6577075418508,-21.8237025901963,0.478184586817358,-4.66462655386158,-7.19273784547607,-7.78602199456207,-68.9506850909963,294.608238911743,232.866328114675,-0.209359475457696,1.03235181866984,1.44302174406904,0.613081062807366,5.49208935921508,7.91056157280175,0.114951689319436,-18.102962689696,13.9614942298454,42.0527446671877,-7.7390640038798,-10.6466727184551,-2.15213163883257,-30.9016745584014,0.904954682974264,400,-2.15791273117065,18.6643886566162,-5.85582304000854,111.790000915527,73.254997253418,473.165008544922,0,0,0
135.155,6.12056616092584,159.190249114795,156.423466080889,-0.213298603305251,8.19770886096043,12.2049621280323,12.4395247825054,-9.16816664478558,236.71367291313,229.722910424308,-0.233685491876181,11.3164962110825,14.5599409399453,14.9509920466579,3.97296177567164,11.2976250043556,1.75980521969405,10.4240013811582,55.101356681102,-331.171176437945,-2.69550971578566,26.1092208787763,1.51658373694787,76.4004779564594,299.037147879574,50.7210917860805,-3.73312747219705,13.0398750735507,0.647047251832277,-17.9060633425522,6.8225767202147,-270.709175023465,1457.0154128483,0.250356148418052,-0.0348169163639374,-54.3507548937091,61.0957481208113,-7.05070961165219,0.542274052189309,-4.5056123515564,-6.87271484726155,-7.46865546527521,-65.7946244244581,304.421618223027,248.694762831203,-0.247962055652745,0.81472819604342,1.42961061761381,0.68881396949251,4.49104672636677,6.48644296549239,-0.663776089759209,-15.2540295850632,10.7359051096115,23.0745236101055,-7.53041383555759,-10.4629375007259,-1.6946929625887,-34.558617992884,-6.23584739406042,400,-4.44459300771322,20.2499117651267,-5.84684740984879,139.358254232045,83.6712138463306,474.847035708189,0,0,0
135.16,7.64324082461934,155.520064644785,158.457374334176,-0.254378746351453,7.5397972063214,11.8923157397946,12.2150165584306,-6.94271877347791,228.324680369796,234.653211029814,-0.270626612515421,10.2480686318935,14.5278196895322,15.0957966832328,2.65029129934842,9.79226523572252,1.32865848984284,19.8276131844975,53.4263289310349,-330.269007093205,-0.25965248498784,24.3846339593714,1.83324517695157,72.641439020043,309.009126370099,49.8399730593845,-4.23251152815331,13.5071724339343,0.885654827476812,-8.06763613603269,11.9634532943088,-309.21033010194,1378.58081001661,0.258614515708418,-0.0296528501852812,-53.5095578992938,73.504465406054,7.90219619486324,0.605833767205358,-4.35196969373037,-6.54507862734158,-7.13912809138732,-62.5895539135224,314.558316771884,264.025566291506,-0.288431043014278,0.590704957796215,1.42104496632375,0.775743712437935,3.43144883096972,4.99082662578253,-1.51876197776924,-12.0152416374468,7.44298700131075,3.22679802582701,-7.32093011370898,-10.2120442059538,-1.20264980196754,-38.0951218242645,-14.1629087031753,400,-6.97126628272116,22.0018396171647,-5.8369297641317,169.819866906124,95.1806392618503,476.705595964671,0,0,0
135.165,9.1658428831887,151.850055178803,160.49118560538,-0.295456930588621,6.88191692263673,11.5796842593571,11.9879595886293,-4.71737701736533,219.936087835643,239.583276545647,-0.307565971705079,9.17969199813549,14.4956999707447,15.2419252323539,1.3276838914248,8.28697724659398,0.897532318199231,29.2307765989466,51.7513810506869,-329.366880766268,2.17608859774443,22.660129272797,2.14989151770676,68.8825793244685,318.980629370519,48.9588963467418,-4.73187177216717,13.9744475123533,1.12425102568593,1.77032194845709,17.1040847379159,-347.709649344297,1300.14994715263,0.266872489218158,-0.0244890302428533,-52.6684010153589,85.9125910110905,22.8543890075866,0.669390451527385,-4.19833436198948,-6.21745802997644,-6.80486770701859,-59.3846362287603,324.694531976351,279.355638738865,-0.328898100708284,0.366692401564949,1.41247972346643,0.869104818600496,2.3719014599812,3.49528160098492,-2.37370709780827,-8.77660812373986,4.15022590798749,-16.6199811668063,-7.111456380594,-9.96116287443234,-0.710630103255629,-41.631457025861,-22.0895920292028,400,-9.49781907931622,23.7536839326849,-5.82701259131398,200.280027090565,106.68951587776,478.564067600122,0,0,0
135.17,10.6885175468822,148.179870708793,162.525093858667,-0.336537073634823,6.2240052679977,11.2670378711194,11.7574081916325,-2.49192914605765,211.547095292309,244.513577151153,-0.344507092344318,8.11126441894646,14.4635787203316,15.3873952633359,0.00501341510158107,6.78161747796092,0.466385588348021,38.6343884022859,50.0763533006197,-328.464711421528,4.61194582854225,20.9355423533921,2.46655295771046,65.1235403880521,328.952607861044,48.0777776200458,-5.23125582812343,14.4417448727369,1.36285860133046,11.6087491549766,22.24496131201,-386.210804422773,1221.71534432094,0.275130856508525,-0.0193249640641971,-51.8272040209436,98.3213082963332,37.8072948141021,0.732950166543433,-4.04469170416345,-5.88982181005647,-6.46577605095602,-56.1795657178246,334.831230525208,294.686442199167,-0.369367088069816,0.142669163317744,1.40391407217638,0.96894625771302,1.31230356458415,1.99966526127506,-3.2286929858183,-5.53782017612351,0.857307799686732,-36.4677067510848,-6.90197265874538,-9.71026957966017,-0.218586942634474,-45.1679608572416,-30.0166533383177,400,-12.0244923543242,25.5056117847229,-5.81709494559689,230.741639764644,118.19894129328,480.422627856604,0,0,0
135.175,10.9936042785644,147.44450378418,161.770363191377,-0.378028897499095,5.61911557403695,11.2043952941895,11.7725359944621,-2.04603309631348,209.866256713867,242.859896520664,-0.348060805884024,7.01214901729398,14.457142829895,15.5557878682295,-0.17274492938302,6.3268584474886,0.627519486035885,30.4981453295,53.0845291612097,-322.946200265608,6.64031910374856,19.9792145056812,2.25576977806093,56.3065860664388,296.888383367616,53.8743267036106,-5.56886569294338,14.5340942466463,1.43924107375236,22.6794573559761,31.1902808207115,-402.893566246717,1167.71461187215,0.280149203319262,-0.015270390990592,-51.6586597824097,100.807548522949,49.1658134937959,0.778322036140808,-3.85655380129127,-5.82417583465576,-6.38392179947987,-55.5373901367188,336.862243652344,303.828037545857,-0.398283636921496,-0.106082447489783,1.40219783782959,1.08208360463723,0.690435382818328,0.936072953169794,-3.70984453647656,-2.45084723320186,-4.97094157270081,-53.1073118355692,-7.09683519167464,-9.56206063502179,0.116835191674624,-44.9663996161395,-31.6555018045904,400,-14.8448497917643,25.9572825047498,-5.77885653845277,227.159688490906,144.880327578331,471.452483584479,0,0,0
135.18,10.9936042785644,147.44450378418,160.316806388066,-0.419626355248597,5.02747612690525,11.2043952941895,11.8452044353559,-2.04603309631348,209.866256713867,239.556293841497,-0.343248467129694,5.90527827272344,14.457142829895,15.7256348919048,-0.0636201550387469,6.13533333333335,0.937077519379835,17.9662551440329,57.2664082687339,-316.270590487128,8.5667054263566,19.2153410852713,1.91280620155037,46.221686285769,254.288754904776,61.3445210067949,-5.86595808258352,14.5324941250705,1.47497750280439,34.0596124796904,41.0894565242205,-414.110038745496,1119.83333333333,0.284355960428253,-0.0114935944960525,-51.6586597824097,100.807548522949,59.6243228593848,0.819139075123378,-3.65976081119941,-5.82417583465576,-6.3631437495943,-55.5373901367188,336.862243652344,311.419277421258,-0.424307083616246,-0.361045363271326,1.40219783782959,1.20320850467147,0.178217054263584,-0.0193255813953457,-4.09734883720928,0.598267776820739,-11.434845439755,-68.9440137812231,-7.39303100775195,-9.43957364341087,0.413031007751927,-43.8281366637956,-31.7187386352761,400,-17.738967215368,26.0831598681073,-5.73351919410765,215.046838674619,175.365116628011,459.768332122093,0,0,0
135.185,10.9936042785644,147.44450378418,158.863318894158,-0.461221829522142,4.43586489069511,11.2043952941895,11.9120563983744,-2.04603309631348,209.866256713867,236.252848686777,-0.338436357840305,4.79846030665493,14.457142829895,15.8881874611096,0.0454994159498926,5.94381735159818,1.24662079218433,5.43496251197928,61.4480879732871,-309.595299019242,10.4929998938091,18.4515040883509,1.56985897844324,36.137267379588,211.691157704021,68.8143591115096,-6.16303630607883,14.5308940797927,1.51071222784971,45.4392249677418,50.9881602090522,-425.325976413428,1071.95433789954,0.288562516948024,-0.00771697808908186,-51.6586597824097,100.807548522949,70.0823335357993,0.859954167842407,-3.4629772047138,-5.82417583465576,-6.33808473998045,-55.5373901367188,336.862243652344,319.010155326418,-0.45032928944476,-0.615996121751906,1.40219783782959,1.33023482397083,-0.333976850376962,-0.97467856005096,-4.48483466071996,3.6472373970374,-17.8984410909086,-84.7799605913655,-7.68921270043539,-9.31709249230117,0.709212700435368,-42.6899279868166,-31.7819724506639,400,-20.6329466398575,26.2090312293017,-5.68818401156609,202.934566430801,205.848452082943,448.084737790713,0,0,0
135.19,10.9936042785644,147.44450378418,157.409762090847,-0.502819287271643,3.8442254435634,11.2043952941895,11.9724352382964,-2.04603309631348,209.866256713867,232.94924600761,-0.333624019085974,3.69158956208439,14.457142829895,16.0410645181409,0.154624190294166,5.75229223744293,1.55617882552828,-7.09692767348777,65.6299670808113,-302.919689240761,12.4193862164171,17.687630667941,1.22689540193268,26.0523675989182,169.091529241181,76.2845534146939,-6.46012869571898,14.5292939582169,1.54644865690174,56.8193800914562,60.8873359125613,-436.542448912207,1024.07305936073,0.292769274057015,-0.00394018159454236,-51.6586597824097,100.807548522949,80.5408429013883,0.900771206824977,-3.26618421462194,-5.82417583465576,-6.30912035277541,-55.5373901367188,336.862243652344,326.601395201819,-0.47635273613951,-0.870959037533449,1.40219783782959,1.46255337981876,-0.846195178931706,-1.9300770946161,-4.87233896145268,6.69635240706,-24.3623449579628,-100.616662537019,-7.98540851651269,-9.19460550069026,1.00540851651267,-41.5516650344727,-31.8452092813496,400,-23.5270640634612,26.3349085926592,-5.64284666722097,190.821716614515,236.333241132623,436.400586328327,0,0,0
135.195,11.6582393882482,138.766281921082,154.198257679051,-0.544996764295218,3.2309372093676,10.8427179512477,11.6640620799376,-1.07607552354332,193.915441522832,226.295016265032,-0.316593796823365,2.54318679836313,14.0363090871128,15.7610193041716,0.558785709594813,5.25629145596638,1.64393708544032,-20.0466706718978,66.7413553085933,-291.563834384504,14.0302344519603,16.4121402771393,0.960187824259546,20.2179153826009,129.667231777212,81.4738885686326,-7.6790261149931,15.8262542422229,1.89488426237807,53.0234397206263,65.0597902098683,-448.305707681372,968.513101727195,0.296030342471242,-0.000498118188378117,-50.8916294746928,101.663148062928,89.5760497419327,0.931008250093101,-3.00958801846912,-5.66467834359796,-6.1171925674452,-53.1897579799128,336.006643462511,332.627208235005,-0.504624207823196,-1.1483708658618,1.3056007704642,1.50268918803795,-1.40612990083403,-2.43838379194849,-4.72688842188217,9.77307365814624,-28.0900058132605,-117.991199842385,-8.51026794509752,-8.34084586589612,1.00642542851512,-41.7002830417379,-30.3336081862384,400,-26.6983155498378,26.5805695719702,-5.70333177690912,176.218294562174,262.702543949481,427.343204283093,0,0,0
135.2,13.8076191138131,110.701568133436,147.059406997259,-0.588476374962779,2.56919598864219,9.67308075214596,10.5401090025928,2.06069397778835,142.331710422386,212.155229410609,-0.272269003901822,1.30183396028862,12.6753645607246,14.5263772460745,1.62205385171078,4.08008550600907,1.2362591449399,-33.9317977244774,60.9941437683387,-269.751636266638,14.9364914953701,13.9936184409273,0.863777500492547,23.8770867537926,97.3298148918385,81.5691086414889,-10.9572121320617,20.0241001076541,2.94187171138373,15.3270035480477,56.4407080636989,-461.292175266514,895.792171800092,0.297179462487021,0.00219675918003781,-48.4111114155657,104.430092326987,95.4333190079275,0.937616676418095,-2.61936563277191,-5.14887550898513,-5.56597094476835,-45.5976929694988,333.239697096873,335.15714656915,-0.537921610341332,-1.47597118439546,0.993213153380609,1.33029236824804,-2.07273842516582,-1.94806843107636,-3.39091679253957,12.911935345516,-25.7061032749656,-138.80358719526,-9.54599028042293,-5.85345951270769,0.348080646220514,-44.7235203549251,-25.3039479092937,400,-30.4891098711897,27.0938375091352,-6.0002092619613,156.049254493866,279.882862299749,424.152024920173,0,0,0
135.205,15.9568963513118,82.6381925449984,139.920896714603,-0.631953912408394,1.9074863214749,8.50349932441554,9.40810816438264,5.1973139097179,90.7504389696177,198.016116778332,-0.227946324502733,0.0605403131752973,11.314484927743,13.2749908907243,2.68527129441123,2.90393564063836,0.828600643593623,-47.8162626977583,55.2472062702137,-247.940478211624,15.8427053260656,11.5752119261838,0.767371773822809,27.53608364609,64.9939399393702,81.6643241740022,-14.2352418366175,24.2217458087773,3.98880923728006,-22.3676351595216,47.8220368979866,-474.278023622798,823.07470939778,0.298328527709742,0.00489150804962824,-45.9307116340496,107.196904655883,101.290308983952,0.944224787635979,-2.22916185390218,-4.63309726920516,-5.01227302750549,-38.0059899686695,330.4728826665,337.686964269196,-0.571217425151929,-1.80355588208616,0.680840431758452,1.15974588889006,-2.73931516385368,-1.45777644972745,-2.05500886583044,16.0506473637228,-23.3223144074001,-159.614982158884,-10.5816632297892,-3.36619176462862,-0.310232744467077,-47.7466135122229,-20.2745274597511,400,-34.2797234375196,27.6070809723379,-6.29707259111585,135.881176138322,297.062361447349,420.96099772106,0,0,0
135.21,18.1062760768767,54.5734787573526,132.782046032811,-0.675433523075956,1.24574510074949,7.33386212531381,8.26753725046385,8.33408341104957,39.1667078691717,183.876329923908,-0.18362153158119,-1.18081252489922,9.95354040135477,12.0045507377401,3.7485394365272,1.72772969068105,0.420922703093207,-61.7013897503379,49.4999947299591,-226.128280093758,16.7489623694753,9.15669008997176,0.67096145005581,31.1952550172817,32.6565230539968,81.7595442468584,-17.5134278536861,28.4195916742084,5.03579668628572,-60.0640713321002,39.2029547518172,-487.264491207939,750.353779470677,0.299477647725521,0.00758638541804417,-43.4501935749226,109.963848919943,107.147578249946,0.950833213960973,-1.83893946820497,-4.11729443459233,-4.45651962463591,-30.4139249582554,327.705936300862,340.216902603342,-0.604514827670065,-2.13115620061981,0.368452814674866,0.989365693958657,-3.40592368818546,-0.967461088855323,-0.719037236487835,19.1895090510926,-20.9384118691052,-180.427369511759,-11.6173855651146,-0.878805411440192,-0.968577526761681,-50.76985082541,-15.2448671828064,400,-38.0705177588716,28.1203489095029,-6.59395007616803,115.712136070014,314.242679797617,417.76981835814,0,0,0
135.215,18.7883621651557,32.6864998808867,119.240338273391,-0.707698622201578,0.715560021370174,6.40942483396874,7.36332885019012,8.90022295218917,-4.89081694904038,157.743981396943,-0.141964080551139,-2.08011628255093,8.5618045600536,10.6823703247506,4.39092509682923,1.32196350029543,-0.259515394209918,-57.1426633048944,40.7894167389999,-203.194571402405,19.673561872251,5.93708632574017,2.15397098404778,39.6367849851646,34.2938406140664,57.6718111183242,-17.7371390434931,27.9954397241981,5.9262235065193,-110.080017949096,29.4613890900878,-472.162710399599,688.309630407668,0.298456263404834,0.00620885701116517,-41.9386708224285,109.377263287409,109.537750381483,0.947444461840808,-1.32519238879637,-3.76432745725118,-4.06199791586535,-26.0311960233735,316.893485506176,338.080781875148,-0.632530147315269,-2.45916647165181,0.192546296480847,0.953814949321438,-3.62,-0.318426705179548,0.0912963959823899,21.637430108285,-20.4497432069589,-188.91790775874,-12.0752296986805,2.49188157290095,-1.78932659357973,-48.5240427499427,-33.9658989215259,400,-43.1386149908594,26.8571677410101,-5.93320388577329,98.8661687548065,317.91520899771,421.128036852621,0,0,0
135.22,18.7763248647698,13.7206475601892,102.668510808604,-0.734660443009146,0.247576433061846,5.60092579363869,6.56600371963668,8.25024654486343,-45.3908156513471,125.936159758632,-0.101565613097104,-2.81766103114883,7.15540369755408,9.32291510775114,4.83423790454932,1.28066106479355,-1.06904313004659,-43.8578963961445,30.6762689515047,-179.728669158009,23.5532373137268,2.33826744567715,4.38430250114882,50.3414244415754,52.0045969074613,22.1415184544925,-16.5158049782835,25.3846075663382,6.74264460829547,-165.927793646576,19.1880962547874,-443.771420269054,631.312269415086,0.296407949603223,0.00290459142916547,-40.8854700611836,107.204093611662,110.287819321924,0.939325842793116,-0.752970136640822,-3.48837273979675,-3.74324657153303,-23.1664844908358,302.273976213286,333.737015466596,-0.658048500619539,-2.78739373062617,0.081196135023485,0.979224633335196,-3.62,0.405742663953255,0.65300951880784,23.7586416106033,-20.8576684958663,-191.579620268861,-12.2597139105889,6.28069165627258,-2.68696619182039,-43.7853106438021,-63.9246120143645,400,-48.8113556058457,24.7534662081049,-4.81936299178728,83.5911517785147,315.197510086167,427.584987630614,0,0,0
135.225,18.7642881383541,-5.24430041889458,86.0974735320431,-0.761620978206337,-0.220384840560792,4.79246530466475,5.75956897831086,7.60030113011862,-85.8888832074255,94.1298548007359,-0.0611690719480215,-3.55517061167748,5.74906989593871,7.93963379575332,5.27752957395128,1.23936059870019,-1.87853226547625,-30.573762939946,20.5636033854376,-156.263885829417,27.4327277620955,-1.26037983325675,6.61452767018972,61.0455534726832,69.7145087055151,-13.3870800317375,-15.2945291494874,22.7738998998075,7.55902678097084,-221.77290637554,8.91529327705106,-415.381483909734,574.317626206263,0.29435973347059,-0.000399516596779402,-39.8323195193149,105.031027558349,111.037852497109,0.931207610862488,-0.180775169544024,-3.21243118058749,-3.42354975812007,-20.3019095552623,287.655164016967,329.393456180225,-0.683565637141751,-3.11560533886341,-0.030148716965946,0.99906278993928,-3.62,1.12987750278999,1.21469585767741,25.8797519679902,-21.2655743338253,-194.241205861543,-12.4441893258058,10.0693210792359,-3.5845629882492,-39.0468044928449,-93.8818965971376,400,-54.4838257296716,22.6498649852099,-3.70557520865831,68.3168631551208,312.479940761641,434.041630524249,0,0,0
135.23,18.7297531718242,-23.9450391356988,69.3754674259488,-0.787644160018817,-0.678814991523944,3.99233560909142,4.95236627159406,6.8934007844881,-126.103403510234,61.9176460639353,-0.0215160233783821,-4.26298323840253,4.35590409613843,6.54479381664156,5.67707653701379,1.17889585947301,-2.58474696779588,-17.309385504283,10.7113506926695,-132.242731229766,31.1910079464659,-4.70358427436219,8.76826014219992,71.0038880369286,85.4433498045655,-49.304020736197,-14.1306161880493,20.285816192627,8.33706378936768,-274.994995117188,-0.875,-388.325012207031,520,0.292407721281052,-0.00354843190871179,-38.7859541624732,102.85560168845,111.682403729645,0.922898830522238,0.400029418871588,-2.93196367290119,-3.09856642106175,-17.4798933411283,272.574285356433,324.677880117414,-0.70783859843687,-3.44291195432349,-0.148632470619624,1.00424387886109,-3.5844625679632,1.84631953157674,1.79402760351317,27.8772764120596,-22.1664265687687,-196.677902215613,-12.5450439146801,13.680121288164,-4.4102843998327,-33.8883364055538,-125.051773368238,398.596651021578,-59.8898620605469,20.6450691223145,-2.64410161972046,53.7600021362305,309.890014648438,440.195007324219,0,0,0
135.235,18.2392189233943,-37.2713487910049,49.6103162681842,-0.794641005189655,-0.943586473497807,3.36188072751427,4.30594740083293,5.03275363527107,-160.52969873783,21.5105278784119,0.00302638042317675,-4.36812737491941,3.23106370209486,5.3932311646591,5.18952284301424,0.730036903092465,-1.19689571186063,-4.45891091229,6.14760098007324,-96.9684173311501,32.4885714812901,-4.99250498191748,9.36931839988192,65.8350354315247,61.0003776872058,-93.056144638254,-14.1306161880493,20.285816192627,8.33706378936768,-274.994995117188,-0.875,-388.325012207031,520,0.292407721281052,-0.00354843190871179,-37.8781842146624,100.63454917718,110.188205817134,0.910736103189752,1.15476005910203,-2.56004064923697,-2.68148288350319,-15.5233950001224,248.142717573034,312.426389533418,-0.706867787876025,-3.75154261414512,-0.411700002070445,0.855493155910628,-2.82862535980515,2.40610340246512,2.73044025389328,27.3677160812743,-33.0582786393055,-194.553672586652,-10.9508207247767,13.6827009373386,-3.7782703520555,-20.2225652843042,-180.769010787548,368.749154645826,-59.8898620605469,20.6450691223145,-2.64410161972046,53.7600021362305,309.890014648438,440.195007324219,0,0,0
135.24,17.7486612838887,-50.5982939100302,29.8442226111988,-0.801638184004342,-1.20837058107283,2.73139578276028,3.65098563909115,3.17201776128415,-194.957635579808,-18.8985171164284,0.0275699545267623,-4.47327652522373,2.1061696701516,4.21680577833418,4.70194590006642,0.28115654291828,0.19102172362046,8.39217645327567,1.58363364553654,-61.6924213804672,33.7861968902994,-5.2814394666273,9.97040531896573,60.6659363499106,36.5562400092091,-136.810354855885,-14.1306161880493,20.285816192627,8.33706378936768,-274.994995117188,-0.875,-388.325012207031,520,0.292407721281052,-0.00354843190871179,-36.9703709799341,98.4133907552457,108.693936653947,0.898572795878852,1.90952668858621,-2.18809989046123,-2.26378309148086,-13.5668033636924,223.709984772812,300.174314738341,-0.705896931022178,-4.06018799098834,-0.674780077869722,0.695726339430979,-2.07275210962679,2.9659139665904,3.66689755701528,26.8581314521564,-43.9506500866995,-192.429341664017,-9.35652151450292,13.6852807095235,-3.14622616675278,-6.55614251214993,-236.488905077653,338.900234995248,-59.8898620605469,20.6450691223145,-2.64410161972046,53.7600021362305,309.890014648438,440.195007324219,0,0,0
135.245,17.2581270354587,-63.9246035653363,10.0790714534342,-0.808635029175179,-1.4731420630467,2.10094090118313,2.98809665084371,1.31137061206711,-229.383930807404,-59.3056353019518,0.0521123583283212,-4.5784206617406,0.981329276108027,3.0164553439655,4.21439220606687,-0.167702413462267,1.57887297955571,21.2426510452687,-2.98011606705974,-26.4181074818514,35.0837604251236,-5.5703601741826,10.5714635766477,55.4970837445067,12.1132678918493,-180.562478757942,-14.1306161880493,20.285816192627,8.33706378936768,-274.994995117188,-0.875,-388.325012207031,520,0.292407721281052,-0.00354843190871179,-36.0626010321233,96.1923382439748,107.199738741436,0.886410068546366,2.66425732881664,-1.81617686679701,-1.84550003478214,-11.6103050226866,199.278416989413,287.922824154344,-0.704926120461333,-4.36881865080997,-0.937847609320543,0.523537846368261,-1.31691490146874,3.52569783747879,4.60331020739538,26.3485711213711,-54.8425021572363,-190.305112035055,-7.7622983245996,13.6878603586981,-2.51421211897558,7.10962860909967,-292.206142496963,309.052738619496,-59.8898620605469,20.6450691223145,-2.64410161972046,53.7600021362305,309.890014648438,440.195007324219,0,0,0
135.25,16.8512626647949,-74.9778594970703,-8.55955329965922,-0.811558049476209,-1.73996898152601,1.57802200317383,2.42552035667624,-0.231908035278323,-257.938171386719,-97.9142487069485,0.0739956718071814,-4.6131305129501,0.0483516491949558,1.98542176760775,3.81,-0.54000000000002,2.73000000000002,31.9012345679012,-6.76543209876542,2.83950617283949,35.9080197457127,-5.48864543519685,10.9404215464503,50.6393867895003,-13.2865337711915,-221.867140980883,-13.369177828479,19.4071159689864,7.67655851694826,-275.389910324644,1.33680446552195,-379.713626254348,511.547497799222,0.29266048337676,-0.00443641960573941,-35.3096683883667,94.3501281738281,105.641957589226,0.874817189932344,3.44035020871726,-1.50769233703613,-1.49003153808005,-9.98752441406251,179.014114379883,275.220297325356,-0.702031506701653,-4.67492040497432,-1.15604400634766,0.382616412859966,-0.625011421758169,3.97684280317804,5.23965656723237,25.9972986733702,-64.5622138111859,-187.383525787035,-5.88141718946747,13.5309175293344,-2.05618468704383,18.3287713710003,-338.941020255685,277.737386919091,-60.0209699623022,18.6179090252844,-1.38248595867178,62.6839701306013,295.899129389192,426.712069973995,0,0,0
135.255,16.8512626647949,-74.9778594970703,-21.7165014435847,-0.794675862173625,-2.01671357347019,1.57802200317383,2.37954644540393,-0.231908035278323,-257.938171386719,-127.76886525172,0.0829460338085403,-4.30542318459343,0.0483516491949558,1.86684343130777,3.81,-0.54000000000002,2.73000000000002,31.9012345679012,-6.76543209876542,2.83950617283949,34.4311393900224,-3.60515561449059,10.1809498445527,47.2956918132442,-43.3307438512009,-251.262229948159,-8.90631482161767,14.2569699684371,3.80527398147938,-277.704546103169,14.3004018513411,-329.241470073875,462.006574475435,0.294141946179748,-0.0096410003755455,-35.3096683883667,94.3501281738281,103.775509838311,0.865997799716192,4.32007604108943,-1.50769233703613,-1.44241332462861,-9.98752441406251,179.014114379883,260.328664314543,-0.689785373035099,-4.9686426491451,-1.15604400634766,0.445398879873417,-0.244107152806408,3.89972721498536,4.41709029317703,26.4156211682426,-68.5809947446843,-180.586506491039,-2.60750994528699,12.5985199630046,-2.4440994640131,17.6508004310347,-341.996216959615,239.294992131678,-60.7894059063243,6.73652993226641,6.01196402116387,114.988199535283,213.897213578223,347.687285409559,0,0,0
135.26,16.8512626647949,-74.9778594970703,-34.8740769752429,-0.777792869845657,-2.29347136195206,1.57802200317383,2.32832242655222,-0.231908035278323,-257.938171386719,-157.624905410842,0.091896822607,-3.99770118324414,0.0483516491949558,1.73032072157376,3.81,-0.54000000000002,2.73000000000002,31.9012345679012,-6.76543209876542,2.83950617283949,32.9541886094427,-1.72157597976399,9.42144192732418,43.9518373932335,-73.3763865863092,-280.658720617261,-4.44323900358825,9.10657838370015,-0.0661951557984537,-280.019292254866,27.2646174049817,-278.766907133774,412.463288797763,0.29562347962614,-0.0148458293252557,-35.3096683883667,94.3501281738281,101.908973086024,0.857177988948315,5.19984382309835,-1.50769233703613,-1.39419834628435,-9.98752441406251,179.014114379883,245.436321197727,-0.677538655412908,-5.26237889943119,-1.15604400634766,0.49308746070369,0.136815279526638,3.8226079495437,3.59448479513266,26.8339636107806,-72.5999673133425,-173.78916307987,0.666553414827111,11.6660779353918,-2.83203273865902,16.9727971620938,-345.051559350289,200.850764222582,-61.5578784931362,-5.14541572310397,13.406766604594,167.294923061819,131.891387514247,268.658732556317,0,0,0
135.265,16.8512626647949,-74.9778594970703,-48.0310251191684,-0.760910682543072,-2.57021595389624,1.57802200317383,2.27305321187065,-0.231908035278323,-257.938171386719,-187.479521955614,0.100847184608359,-3.68999385488747,0.0483516491949558,1.57892372633617,3.81,-0.54000000000002,2.73000000000002,31.9012345679012,-6.76543209876542,2.83950617283949,31.4773082537525,0.161913840942266,8.6619702254265,40.6081424169775,-103.420596666319,-310.053809584537,0.0196240032730493,3.95643238315086,-3.93747969126734,-282.333928033391,40.2282147908009,-228.294750953302,362.922365473975,0.297104942429128,-0.0200504100950618,-35.3096683883667,94.3501281738281,100.042525335108,0.848358598732163,6.07956965547052,-1.50769233703613,-1.34550600517466,-9.98752441406251,179.014114379883,230.544688186915,-0.665292521746354,-5.55610114360197,-1.15604400634766,0.525359769711639,0.517719548478398,3.74549236135102,2.77191852107733,27.252286105653,-76.618748246841,-166.992143783874,3.94046065900758,10.7336803690621,-3.21994751562829,16.2948262221281,-348.10675605422,162.408369435169,-62.3263144371584,-17.0267948161219,20.8012165844296,219.599152466501,49.8894717032784,189.633947991882,0,0,0
135.27,16.8512626647949,-74.9778594970703,-61.1886006508266,-0.744027690215105,-2.84697374237812,1.57802200317383,2.21505282739922,-0.231908035278323,-257.938171386719,-217.335562114736,0.109797973406819,-3.38227185353818,0.0483516491949558,1.41612542995863,3.81,-0.54000000000002,2.73000000000002,31.9012345679012,-6.76543209876542,2.83950617283949,30.0003574731728,2.04549347566887,7.90246230819803,37.2642879969668,-133.466239401427,-339.450300253638,4.48269982130248,-1.19395920158614,-7.80894882854517,-284.648674185088,53.1924303444415,-177.820188013201,313.379079796303,0.29858647587552,-0.025255239044772,-35.3096683883667,94.3501281738281,98.1759885828215,0.839538787964286,6.95933743747944,-1.50769233703613,-1.29656747142952,-9.98752441406251,179.014114379883,215.652345070099,-0.653045804124163,-5.84983739388806,-1.15604400634766,0.542152970794294,0.898641980811444,3.66837309590936,1.94931302303296,27.670628548191,-80.6377208154991,-160.194800372705,7.21452401912169,9.80123834144927,-3.60788079027421,15.6168229531872,-351.162098444894,123.964141526073,-63.0947870239703,-28.9087404714923,28.1960191678598,271.905875993037,-32.1163543606975,110.60539513864,0,0,0
135.275,14.5748821301817,-94.0820425008087,-70.9683530876077,-0.727090401077868,-3.32419889119484,0.919289642222318,1.49697456858677,-7.77692365595878,-301.049380310843,-241.045950141667,0.118802470584802,-2.84656798361186,-1.10132268527163,0.0960123678337928,4.20350453743383,-1.07488341315857,2.93499936980088,36.5091386655961,-20.609507604403,51.446494536718,28.7419573985379,5.00924439122762,6.28132656919587,35.6823508450893,-158.551940857755,-356.157330383068,-0.261357429858748,0.259853444195286,-6.58648772855114,-212.482200842406,60.2327682268178,-168.950439086753,267.707020418452,0.299010128858996,-0.0136725635526977,-33.4607518908128,92.997620278953,96.7166541091149,0.835983733908192,7.94792919633226,-0.333160152536272,-0.0732160820031726,-9.24589798131337,114.262771946854,193.385577696526,-0.631339456512824,-6.15833023124213,-1.64284303660413,0.0568365712098842,1.51022813208974,2.63735946559114,1.39109339551299,28.8040267391162,-76.576713130238,-146.526150152337,9.393787496849,8.98132404839928,-2.36580854550036,13.0938063094604,-306.066408985239,84.157410519502,-63.17822265625,-30.198802947998,28.9988975524902,277.584991455078,-41.0200004577637,102.025001525879,0,0,0
135.28,12.0213664205603,-115.512040990854,-80.3362491789701,-0.710147306667116,-3.82581649804044,0.18036071248099,0.698766753167085,-16.2404980117379,-349.409110845629,-264.006719622293,0.12781307962692,-2.28312341182493,-2.3909627210084,-1.36779578911884,4.64491580539451,-1.67488555583566,3.16495613813967,41.678026434131,-36.1390132170655,105.971081483971,27.5102349382405,8.10440962944289,4.55532921603227,34.3150756083367,-183.0323676504,-371.318095896081,-6.12653869119735,2.51793247270199,-4.74368769564195,-131.247991795224,66.5512926709901,-165.148224317369,222.508621124275,0.299304920830864,-4.58656036665221e-05,-31.3867413066886,91.4804529580957,95.3069829821148,0.833070051795961,8.94972764803545,0.984364021903236,1.29249515824932,-8.4139831419883,41.6283562120034,170.221730131639,-0.608482041728194,-6.46860558519642,-2.18890682176105,-0.502689272385616,2.14987799344593,1.49021880514243,0.865100327703563,30.0244585733536,-71.5318264571604,-132.021285170558,11.4396097806907,8.17515376859086,-0.9252747668263,10.346203089065,-255.108485125744,44.1866363548659,-63.17822265625,-30.198802947998,28.9988975524902,277.584991455078,-41.0200004577637,102.025001525879,0,0,0
135.285,9.46772894680214,-136.943061368196,-89.7045919775038,-0.693203404326633,-4.32745802447056,-0.558603453011125,-0.09802030477137,-24.7044759521984,-397.771147409242,-286.968583984875,0.136824118339013,-1.71965197224096,-3.68066425309898,-2.83148826851341,5.08634812200657,-2.27491630955383,3.39492387194356,46.8471606805528,-51.6692593526221,160.498268430602,26.2784537433829,11.1997224602974,2.82924955886061,32.9477351732036,-207.513961789703,-386.479584348654,-11.9919996331073,4.77611917747729,-2.9007997890008,-50.0099091030531,72.8701184133573,-161.345828239762,177.308066549029,0.299599726859857,0.0135814821330691,-29.3126318235808,89.9632132912692,93.8972446350906,0.830156230745094,9.95157387039581,2.30195102234887,2.65697517832258,-7.58202863288882,-31.0095230875672,147.056778001039,-0.585623536990068,-6.77889573459938,-2.73499664591397,-1.07665976484749,2.78955835644065,0.343023443408117,0.339082177968245,31.2449486037588,-66.4866992191755,-117.51572852577,13.4855296193597,7.36894504663472,0.515327703554338,7.59846884948977,-204.148131342838,4.21395618793316,-63.17822265625,-30.198802947998,28.9988975524902,277.584991455078,-41.0200004577637,102.025001525879,0,0,0
135.29,7.00901961254844,-156.576965797138,-99.1580758312693,-0.677831039589853,-4.84194436016251,-1.26701263666373,-0.861484565006853,-32.6916809732083,-439.121767140556,-309.496707254301,0.145521623220409,-1.16417640540249,-4.80054750583198,-4.12144634476131,5.4901965743927,-2.81116532278774,3.43685480971704,51.0687088617387,-65.5893730213531,210.083409419897,24.9090624518515,14.1374203944327,1.3482661393868,32.6106595056529,-232.246757285764,-400,-17.3389692042276,7.15814935226151,-1.2093107806166,24.3499161791198,79.1453422230765,-161.899036503862,133.795362333727,0.291126704514164,0.0249841068487234,-27.3560474867833,88.8192261713543,92.589751609322,0.827670883075341,10.9150161736489,3.59627253832554,3.99609442157113,-6.99995142331471,-98.2934381681784,122.217116727308,-0.56224283590913,-7.07188399507897,-3.28165271691356,-1.66496666537864,3.49954740383135,-0.67359072466746,-0.0845524112783067,32.2513291371593,-61.9635565966734,-103.163516524417,15.1456894869293,6.54482961840684,1.91944558574291,4.80538499484197,-152.546914975167,-35.7380383996206,-62.9546659322275,-29.9161473587159,28.5612035309991,270.9347858451,-45.0313330061061,98.1492835480972,0,0,0
135.295,5.33166213183255,-161.406979277409,-109.31749247428,-0.675405137567814,-5.46252946586352,-1.72388772548215,-1.36946594449773,-36.7526542028804,-422.699726238156,-328.459692665232,0.151638690818065,-0.674361189608239,-4.52121454997408,-4.00486203737836,5.5844418622567,-2.82193621282934,1.92893020389299,47.4817365299835,-66.2442697306726,218.956096309104,22.4048305171794,15.7772884032664,1.88681064146682,40.7652870587534,-259.060954531304,-400,-18.4146833117353,10.5619964535692,-0.764966199818619,42.0491816303125,85.0639472048649,-198.353111055696,104.175414719326,0.210382020958374,0.0180547054226647,-26.367289814577,90.7512307417092,92.1244289251554,0.828716087995229,11.5623427198106,4.69940111951929,5.14100559642135,-8.47720571595038,-121.477505338742,83.5628895407945,-0.534547680573307,-7.22239233560072,-3.83321694331093,-2.27121747918941,4.78936148631298,-0.614350829438651,0.335512300344107,31.4933776157134,-61.7408252285292,-90.0689066868043,13.6269939910636,5.57275679215242,3.02346181500693,1.63728060914904,-95.6407125887122,-75.5371419730894,-60.8883672913285,-27.3036074651836,24.5156684852909,209.468011031318,-82.1074309363999,62.3266491584813,0,0,0
135.3,3.65438463192349,-166.236762449962,-119.476424689642,-0.672979351219149,-6.08308498043799,-2.18074102929729,-1.87247693184962,-40.813433794691,-406.278468381764,-347.421773871251,0.157755466737884,-0.184569329488977,-4.24189491344462,-3.87803195794016,5.67868265625802,-2.83270658928665,0.421077499871614,43.8949352344829,-66.8991352127983,227.828360125315,19.9007179908582,17.4170782188896,2.42532946433159,48.9195257778108,-285.873873205546,-400,-19.4903461263713,13.9656812505138,-0.320642806536415,59.7476031340777,90.9822699720347,-234.805447381583,74.5568794617636,0.129641187521007,0.0111256344086519,-25.3785792889315,92.6831431890157,91.6591284287957,0.829761243077004,12.2096383997437,5.80247710064719,6.28184092413621,-9.9543895692244,-144.660467032138,44.9105054892794,-0.506853845815176,-7.37289349948979,-4.38475486967843,-2.88969055874752,6.0791140670741,-0.555113758923519,0.755556982178631,30.7354622353852,-61.5181044808011,-76.9749212345552,12.108370910585,4.60073031688152,4.12742540187971,-1.53067271301225,-38.7372236393345,-115.334347820849,-58.8221671769716,-24.6911921444099,20.470326341311,148.004167114676,-119.18176098104,26.5057228860879,0,0,0
135.305,1.9770271512076,-171.066775930233,-129.635841332653,-0.67055344919711,-6.703670086139,-2.63761611811571,-2.36978585677627,-44.874407024363,-389.856427479363,-366.384759282182,0.163872534335539,0.305245886305269,-3.96256195758672,-3.73859822291406,5.77292794412202,-2.84347747932825,-1.08684710595244,40.3079629027278,-67.5540319221178,236.701047014522,17.3964860561861,19.0569462277233,2.96387396641161,57.0741533309113,-312.688070451085,-400,-20.566060233879,17.3695283518214,0.123701774261562,77.4468685852704,96.9008749538232,-271.259521933416,44.9369318473627,0.0488965039652171,0.00419623298259323,-24.3898216167252,94.6151477593706,91.1938057446292,0.830806447996893,12.8569649459054,6.90560568184094,7.41764714469854,-11.4316438618601,-167.844534202702,6.25627830276597,-0.479158690479353,-7.52340184001154,-4.9363190960758,-3.51962677002074,7.36892814955573,-0.495873863694709,1.17562169380104,29.9775107139393,-61.2953731126569,-63.880311396943,10.5896754147193,3.6286574906271,5.23144163114373,-4.69877709870518,18.1689787471206,-155.133451394318,-56.7558685360726,-22.0786522508776,16.4247912956027,86.5373923008948,-156.257858911334,-9.31691150352796,0,0,0
135.31,0.331192301732706,-173.10840708351,-138.932674002837,-0.667265042731319,-7.30721961647285,-3.15238136529121,-2.91874388748923,-48.5309812935299,-371.741426578069,-379.245603857903,0.163468052589269,0.694865203462479,-3.60942344135123,-3.51113087116336,5.18061421678676,-2.57916611884948,-2.32725760639024,39.30480580014,-69.1664820702606,247.109780730708,14.0210947248304,18.6753128759783,3.49415129677637,66.0677613516836,-333.994562253856,-400,-21.4904541783173,20.2504546682847,0.551752213225342,80.5636991145966,106.563888091415,-296.035123930657,25.0508167644469,0,0,-23.5197451229343,90.5590532732313,90.1686934200267,0.836138419275592,13.2947298554748,8.00021463281342,8.53878645173496,-13.0594466581108,-184.901957682178,-31.3392302067641,-0.441205080357311,-7.58529160888132,-5.44078437993656,-4.11308638356091,8.11204222120236,-0.38818798605855,1.36947273110651,30.0681907239962,-58.1664267908723,-53.0908019844841,9.35197536683082,3.04000000000002,5.829213871972,-6.46276780069037,60.4048316329179,-186.177662441392,-53.9053090444009,-20.1867482963806,14.127765799072,24.8881429141814,-171.97403943047,-51.6272289696803,0,0,0
135.315,-1.26643899534089,-170.868764639678,-146.906145577357,-0.662651875675261,-7.8846842407938,-3.75609834458883,-3.55017440869373,-51.5670489463088,-351.024720080493,-382.738255015347,0.153049777934088,0.930682284690149,-3.14291486643944,-3.15517386349187,3.53402751075995,-1.89243801396624,-3.15705406645746,42.2689380523249,-72.2494365254041,259.878350432427,9.30764273222281,15.1896474951317,4.0117986182603,76.3506990239436,-346.846628638735,-400,-22.1826099802048,22.3287920546056,0.954834987958032,61.2897901109552,121.977553700513,-302.881596942124,20.1084554035449,0,0,-22.8317966534913,77.3078295267896,88.2839083175422,0.848053302503047,13.4107688528437,9.08187415870318,9.63980246952961,-14.9186112967879,-192.554071349859,-67.313637073303,-0.387495173609091,-7.51111633480452,-5.87299091577036,-4.64410635539994,8.01579623680585,-0.206100988551638,1.21599940463639,31.4619430505923,-50.5746514450813,-45.8394361931153,8.54559009215733,3.04000000000002,5.64972811728661,-6.07097567201588,80.1196830913826,-203.782616944618,-49.8501837971609,-19.4011415878992,14.5152735209016,-37.0487471841295,-154.894278111718,-103.904404783007,0,0,0
135.32,-2.86399411316134,-168.629228987877,-154.879236955826,-0.658038928587114,-8.46212133008594,-4.35978653707644,-4.17514454609637,-54.6029718314141,-330.309001409852,-386.230739634016,0.142632000049585,1.1664881215405,-2.67642853588083,-2.78398398531909,1.88751931830867,-1.20574265408134,-3.98681095965171,45.2329289669048,-75.3322439771882,272.646311295233,4.59441548937648,11.7041483199583,4.5294212569614,86.6331463787483,-359.69808220336,-400,-22.8747327782871,24.4070303403454,1.35789854264615,42.0168001378785,137.390484345583,-309.72774349579,15.1663297074036,0,0,-22.1438809872368,64.0572376334732,86.399213086558,0.859967617597599,13.5268023171685,10.163482108228,10.7326520364863,-16.7776872856158,-200.205820144679,-103.286328585709,-0.333787827890183,-7.43694459759946,-6.30517684286223,-5.18413809444002,7.91955484167047,-0.0240226734306454,1.06253339617726,32.8556289194197,-42.9832380950631,-38.5884161658982,7.73924326805006,3.04000000000002,5.47025092095306,-5.67920222501833,99.8335944939892,-221.38673199741,-45.7952519089352,-18.6155723392074,14.9027627653461,-98.9826839689701,-137.815331200811,-156.179087883392,0,0,0
135.325,-4.46162541023494,-166.389586544045,-162.852708530345,-0.653425761531056,-9.0395859544069,-4.96350351637406,-4.79403724951318,-57.639039484193,-309.592294912276,-389.723390791459,0.132213725394404,1.40230520276817,-2.20991996096903,-2.39810374632391,0.240932612281853,-0.519014549198104,-4.81660741971894,48.1970612190897,-78.4151984323317,285.414880996952,-0.119036503231097,8.21848293911165,5.04706857844534,96.9160840510083,-372.550148588239,-400,-23.5668885801746,26.4853677266663,1.76098131737884,22.742891134237,152.804149954681,-316.574216507257,10.2239683465016,0,0,-21.4559325177938,50.8060138870314,84.5144279840736,0.871882500825054,13.6428413145374,11.2451416341178,11.8166275969628,-18.6368519242928,-207.85793381236,-139.260735452248,-0.280077921141963,-7.36276932352266,-6.73738337869603,-5.73244874813215,7.82330885727395,0.158064324076267,0.909060069707134,34.2493812460158,-35.3914627492721,-31.3370503745293,6.93285799337658,3.04000000000002,5.29076516626767,-5.28741009634383,119.548445952454,-238.991686500636,-41.7401266616952,-17.829965630726,15.2902704871757,-160.919574067281,-120.735569882058,-208.456263696719,0,0,0
135.33,-5.1805290222168,-165.381790161133,-167.429711048147,-0.641639619082265,-9.52379250239223,-5.23516464233398,-5.07534822819589,-59.005212020874,-300.270172119141,-384.950531845979,0.123045468369734,1.54372768445601,-2,-2.25537916947601,-0.579832039406142,0.500505150714657,-4.95449548375189,50.439241106823,-72.988820998834,292.078726543787,-4.61899477430296,5.76253382860173,4.43777198426521,92.6976227941963,-356.443585244317,-391.417234446562,-23.5294066771753,28.2991404714854,1.76008421587413,4.9518504230717,160.941477523808,-319.887842227565,7.20167960593861,0,0,-21.1463688278198,44.8432159423828,80.9872715249294,0.88588767123898,13.5824195270508,11.7318677902222,12.2961045690513,-19.4734405517578,-211.301239013672,-164.035290837425,-0.233966705448387,-7.21425788845178,-6.93186807632446,-6.05052192784018,6.48805149561062,-0.175126604911916,1.09014039013922,33.4343100699879,-21.0057950791317,-23.3252175735978,5.70648344042358,2.87235271724712,4.77757645321672,-7.95122625788506,139.297279114145,-259.142994513965,-34.550982509913,-10.1194272305188,19.8313150149442,-287.268801865027,-107.270827975469,-230.741268907591,18.4944224624223,0.026111226834987,0.044897520983024
135.335,-5.1805290222168,-165.381790161133,-169.228154394307,-0.623983600187863,-9.93173823367639,-5.23516464233398,-5.08027144283639,-59.005212020874,-300.270172119141,-373.414503861116,0.114899168005557,1.60792973841925,-2,-2.31091512628381,-0.724988752638812,1.79239989848537,-4.52628317971553,52.0909214034827,-60.5997253920626,293.748327422327,-8.94466482863637,4.14887503316529,2.9063686596606,76.6139005563794,-316.641972887558,-375.811394392227,-22.8949394696052,29.8966064060817,1.42865486283884,-11.6274652113304,163.126085762637,-320.311215974493,5.75011247361196,0,0,-21.1463688278198,44.8432159423828,76.1160379330248,0.901604307349901,13.3776141043581,11.7318677902222,12.2788565621475,-19.4734405517578,-211.301239013672,-179.648391057506,-0.194068662658138,-7.00491249614694,-6.93186807632446,-6.18080110474765,4.13893201979534,-0.929941513721773,1.54496475826825,30.8119315881302,-1.06018744605076,-14.690483870807,4.13637165895693,2.56752361945851,3.99131092320646,-13.1153406031377,159.075627983007,-281.379449864113,-24.7969930706055,3.25768745833198,27.7711342854017,-466.330495424638,-96.762690321582,-228.488921164575,52.1223943613229,0.0735886543695239,0.126533623814304
135.34,-5.1805290222168,-165.381790161133,-171.026511985967,-0.60632842317878,-10.3396645130375,-5.23516464233398,-5.08143907393393,-59.005212020874,-300.270172119141,-361.879025944343,0.10675325607836,1.67212873106006,-2,-2.35696619452537,-0.870138544418439,3.08423304532399,-4.09809129396566,53.7425229436911,-48.2112205298842,295.417848689916,-13.2701286236691,2.53529318121518,1.3750383563856,60.5309452326498,-276.842258376133,-360.206298465303,-22.2605025150967,31.4939961693098,1.09724131322492,-28.2059903004514,165.310589833613,-320.734569533851,4.29861455581575,0,0,-21.1463688278198,44.8432159423828,71.2450366143223,0.917320194050365,13.1728184473255,11.7318677902222,12.2514097840387,-19.4734405517578,-211.301239013672,-195.260746803992,-0.154172522311279,-6.79557708597984,-6.93186807632446,-6.31693273959975,1.78992455616181,-1.6847204309758,1.99976743917774,28.189678148161,18.884469128112,-6.05616189478054,2.56633474454069,2.2627090567213,3.20508288440018,-18.2792087098654,178.853033768288,-303.614844921711,-15.0434687271133,16.6341642912468,35.7105749644386,-645.383650852762,-86.2550537232766,-226.236680819411,85.7487627902684,0.121063818055714,0.20816583402195
135.345,-5.1805290222168,-165.381790161133,-172.824955332126,-0.588672404284379,-10.7476102443216,-5.23516464233398,-5.07993920796529,-59.005212020874,-300.270172119141,-350.342997959481,0.0986069557141819,1.7363307850233,-2,-2.39595292498374,-1.01529525765111,4.3761277930947,-3.6698789899293,55.3942032403509,-35.8221249231128,297.087449568456,-17.5957986780025,0.921634385778733,-0.156364968219008,44.447222994833,-237.040646019374,-344.600458410968,-21.6260353075265,33.0914621039061,0.765811960189627,-44.7853059348535,167.495198072442,-321.157943280779,2.8470474234891,0,0,-21.1463688278198,44.8432159423828,66.3738030224177,0.933036830161286,12.9680130246328,11.7318677902222,12.2138170799405,-19.4734405517578,-211.301239013672,-210.873847024072,-0.11427447952103,-6.58623169367501,-6.93186807632446,-6.45800740222321,-0.559194919653476,-2.43953533978566,2.45459180730677,25.5672996663033,38.8300767611929,2.57857180801027,0.996222963074033,1.95787995893269,2.41881735438991,-23.443323055118,198.631382637151,-325.851300271859,-5.28947928780572,30.0112789800976,43.6503942348961,-824.445344412374,-75.7469160693898,-223.984333076395,119.376734689169,0.168541245590251,0.28980193685323
135.35,-5.91908887139909,-160.073355702576,-172.441129055142,-0.57005961168862,-11.044933576954,-5.52154647067335,-5.36330013410991,-60.4244054565576,-299.47787065657,-338.921669650936,0.0939650719588188,1.77610115042873,-1.6679912404927,-2.0983715030146,-1.20600981235144,5.44361236153963,-2.50566536846898,55.6709240557469,-25.9041750262731,294.631678396654,-18.9064085023519,0.923045622376222,-1.13061162814224,29.5458371814061,-187.679088058267,-336.718065991404,-19.9426822252589,34.136842619323,0.572938641692189,-33.7593747861987,165.0712545176,-322.004063297986,2.11042688786607,0,0,-21.1198194311728,37.157872041171,60.2130668933477,0.945259097043364,12.717906949096,11.9619440965844,12.3964702769145,-20.5595571345356,-212.410463420244,-221.047155465569,-0.0667771695735243,-6.32436045817348,-6.9901152224963,-6.66126694183515,-3.25843546102878,-2.51006992564867,2.11927773000862,26.4718817497382,55.2324882247412,10.3411471846469,0.375944059481043,2.14882580547264,0.0816386373981901,-18.542863159722,215.800520902606,-340.21635800908,0.161955917234589,38.396559364354,42.812410700566,-863.837794487914,-64.4398419998236,-162.682247671623,175.109592332204,0.193424040433275,0.327692963018999
135.355,-7.69271502015105,-147.325332404184,-168.999132679187,-0.550103911804437,-11.1872701248197,-6.20928260990764,-6.04764071894277,-63.8325498208261,-297.575185866344,-327.659768035448,0.0942335750779454,1.78163869387092,-0.870683590843418,-1.33336410235934,-1.46058874108544,6.19674169237773,-0.309922108138187,54.0208754435821,-19.4480324405805,286.394530959736,-15.9920101411158,3.18773734257246,-1.32419768853371,16.2996136004161,-124.915036582449,-339.658033558317,-16.7892789096658,34.4086772765697,0.574208902417905,15.9524645340122,156.188833830673,-323.442696194579,2.37561327196399,0,0,-21.0560619656418,18.7017822328332,52.2445793860619,0.952585924974829,12.4042901102953,12.5144644557999,12.892315548491,-23.1678288594887,-215.074227791552,-223.598570115944,-0.00862517867096842,-5.98885208305481,-7.12999374643032,-6.94897550033753,-6.44862766172677,-1.62169553892063,0.676663800515914,32.3190778237985,66.6715157066935,16.882411325729,1.08664356886347,3.0345483283597,-4.42918175610745,0.462161033962307,229.315204773671,-343.552468199152,-0.415374168433608,39.7874869558423,29.6735467461599,-707.509093835414,-52.0118826755738,-18.6237221443323,261.825539932224,0.186646669000805,0.304286112486457
135.36,-9.46625659775345,-134.577916964999,-165.557300426653,-0.530149163460396,-11.3295998857052,-6.89698595607789,-6.73266576703584,-67.2405316758268,-295.672591801123,-316.398403416985,0.0945020653941386,1.7871759732685,-0.0734139589153695,-0.568485141097618,-1.71515553082799,6.94983511203279,1.88571645339133,52.3709055100656,-12.9921977007102,278.157776291626,-13.0777507460422,5.4523210763239,-1.51777451823376,3.05402163413053,-62.153977861327,-342.59786093986,-13.6360259566187,34.6804989720264,0.575479102574255,65.6619334632581,147.306836680875,-324.881260493379,2.64078701127915,0,0,-20.9923075402341,0.246572459294539,44.2764718371734,0.959912403543909,12.0906882255686,13.0669584693945,13.3797143678486,-25.7759762152007,-217.737865147584,-226.149863108173,0.0495240393920442,-5.65335970585599,-7.26986560058922,-7.23825026493738,-9.63866774568812,-0.733363512214841,-0.765881341358563,38.1659950882044,78.1099977457943,23.4233635621696,1.7973091902281,3.92022861767234,-8.93978706185829,19.4662790182154,242.82924422914,-346.888419314734,-0.992676725488145,41.1783482242527,16.5353092872694,-551.187847345638,-39.5845159490411,125.427934294387,348.537352688281,0.179869620731192,0.280880378053978
135.365,-11.2398827465054,-121.829893666607,-162.115304050698,-0.510193463576213,-11.4719364335708,-7.58472209531219,-7.41943117144446,-70.6486760400953,-293.769907010897,-305.136501801497,0.0947705685132652,1.79271351671068,0.723893690733909,0.194457505608481,-1.96973445956199,7.7029644428709,4.08145971372213,50.7208568979007,-6.53605511501759,269.920628854707,-10.163352384806,7.71701279652014,-1.71136057862524,-10.1922019468595,0.610073614490872,-345.537828506773,-10.4826226410256,34.952333629273,0.576749363299971,115.373772783469,138.424415993947,-326.319893389972,2.90597339537707,0,0,-20.9285500747031,-18.2095173490433,36.3079843298875,0.967239231475374,11.7770713867679,13.61947882861,13.8597858916626,-28.3842479401538,-220.401629518892,-228.701277758549,0.1076760302946,-5.31785133073731,-7.40974412452324,-7.52773659744938,-12.8288599463861,0.155010874513201,-2.20849527085127,44.0131911622647,89.5490252277466,29.9646277032516,2.50800869961053,4.80595114055941,-13.4506074553639,38.4713032118997,256.343928100204,-350.224529504805,-1.57000681115634,42.569275815741,3.39644533286332,-394.859146693137,-27.1565566247912,269.486459821678,435.253300288301,0.173092249298722,0.257473527521436
135.37,-13.5630734851018,-127.387598832784,-158.19306583297,-0.49118577741669,-11.3695397765644,-8.30217032397667,-8.13846739754154,-75.4439227788121,-288.247752271553,-297.850438372739,0.0999101350914517,1.76109316792467,1.04723232063073,0.479995963094436,-1.8377562494253,8.37892850105746,5.0182375504092,48.6849074653839,-4.02960857968501,264.620619993847,-9.32024065049194,9.71122650308037,-1.18260879845519,-13.4972588852903,14.0424925080523,-338.384116892386,-8.13134476032255,35.653811513539,2.04926824814613,155.856434981895,131.410620809442,-311.310264888762,2.46661499862073,0,0,-21.4966239015786,-26.6669518838582,26.8161752965315,0.971400568821317,11.5158575578888,13.5731147263413,13.7348927904744,-31.7339561412193,-211.778635593393,-226.912917533546,0.195529680479669,-4.90845548348488,-7.30928941607774,-7.57561720131358,-13.204371248046,5.18512341219281,-2.84267855031726,43.0595147452592,78.4769982324858,40.5415406386372,0.379324943843833,7.90782560720901,-13.8801088969748,41.0196215323743,252.445797446664,-343.257372386332,-1.7747095823288,43.0624542236328,-1.26217532157898,-339.429992675781,-22.75,320.565002441406,466,0.170689210295677,0.249174207448959
135.375,-16.1883614147453,-143.002707365618,-154.006697539614,-0.472697516626241,-11.132681463992,-9.03599509828073,-8.87712427250256,-81.0015846267374,-280.736687248028,-292.748124237891,0.107726197232856,1.70905629110337,1.11020077747626,0.500748273963393,-1.49339748052597,9.01254863583224,5.26342099386552,46.4367973790386,-3.69290222787232,260.933855495211,-9.61501175666977,11.5569895043808,-0.256972427653781,-11.3409778039848,0.37357505416146,-325.684505602804,-6.22057323026308,36.5913831188247,4.33018589825601,191.271666192851,125.422912469476,-287.263009392165,1.64015395326231,0,0,-22.4118617893451,-29.6318453636762,16.4867666564601,0.973823123259495,11.2834141440778,13.1977257833118,13.2763398980018,-35.4912499606499,-196.954167143403,-222.740194225163,0.299707630042275,-4.45843631605263,-7.07679049849427,-7.48861997816833,-12.0335514337883,12.4910390531612,-3.03276459074969,38.3694333397067,55.0367944275056,53.3363820075193,-3.30944618860589,12.2274620042823,-12.0674043374887,34.5269707686327,238.980944448418,-330.629183656226,-1.7747095823288,43.0624542236328,-1.26217532157898,-339.429992675781,-22.75,320.565002441406,466,0.170689210295677,0.249174207448959
135.38,-18.8135241637704,-158.617071329097,-149.820528863285,-0.454210137404588,-10.8958344454456,-9.76978488189366,-9.6194943190586,-86.55898147076,-273.225980371795,-287.646053394773,0.115541886683904,1.65702189553692,1.1731662318205,0.516604879780361,-1.14905513155648,9.64613855793607,5.50859274633179,44.1887944884823,-3.35621193110216,257.247266791182,-9.90976880738765,13.4026644948573,0.668619806376183,-9.18479953982032,-13.2946906298717,-312.985499864019,-4.3098928108049,37.5289100182356,6.61099478822618,226.685208712638,119.435489639157,-263.21690053182,0.813732315735547,0,0,-23.3270560361672,-32.596597469592,6.15785054970173,0.976245562183919,11.0509818137788,12.8223547398122,12.8147453529442,-39.2483646224504,-182.130405562975,-218.567669883179,0.403880612126835,-4.00843860671535,-6.84430266706937,-7.3971911919449,-10.862787447292,19.7966063288978,-3.22284156738085,33.6795755695445,31.5977083129605,66.1306132847855,-6.99804143076701,16.5468924297555,-10.2547862125133,28.0346295915192,225.5167334897,-318.001597071301,-1.7747095823288,43.0624542236328,-1.26217532157898,-339.429992675781,-22.75,320.565002441406,466,0.170689210295677,0.249174207448959
135.385,-21.4223245420942,-174.04540762916,-145.734789817177,-0.435824306008769,-10.656944042169,-10.4963265132873,-10.3586821392147,-92.0610223829437,-265.61287465701,-282.539774174513,0.123283736507722,1.60432834116221,1.23398694162978,0.5254445609038,-0.801330022815732,10.3290346628274,5.72690633350008,41.9033994036007,-3.24411670651551,253.740619484636,-10.2657341906516,15.2164531911519,1.57712314393429,-6.94243106590442,-27.0201431243797,-300.03397053793,-2.38982371629078,38.4312202307096,8.87026113289821,261.166025984132,113.42772471941,-238.993524096552,0,0,0,-24.2306958379034,-35.374449120517,-4.10019747160212,0.978376534707132,10.8210378885478,12.4470308777779,12.3517979721581,-42.9658790877038,-167.367429884005,-214.322720793693,0.508612982433669,-3.55800128651008,-6.61226650517806,-7.30015761120584,-9.65262051463499,26.9864531911519,-3.41299508302732,29.0396885540714,8.15780465295073,78.7500943312244,-10.7007391320262,20.7862462634668,-8.43669940581499,21.6197408553692,212.2113359847,-305.293254650925,-1.76124080028479,42.948663302448,-1.28797082383445,-338.227092482606,-22.8533106605494,319.597689138842,469.2118324569,0.170511421077668,0.248996421167149
135.39,-22.9770215365532,-177.533454275534,-148.082045116232,-0.423987226585231,-10.2881621191127,-10.7572531700425,-10.6364566392932,-94.0071912287112,-251.477104819715,-277.180267398929,0.126281139543657,1.50965869800251,1.15750842353694,0.392596853490866,-0.238425714669177,14.1619012701163,4.22753394907334,37.2346420105557,-17.4904603077555,261.748264945643,-14.533572308781,14.986174156001,1.39034125986749,0.803031131488167,-44.3589857024743,-270.979010794203,0.124507552017278,37.079376638937,9.74534393513753,235.91209257676,106.1381144755,-203.5126406081,0,0,0,-24.3928762700351,-26.1953801932578,-9.79597569546939,0.961867814688099,10.7508865954351,12.0758852632239,11.893323972248,-44.1402914694675,-156.536129297585,-205.460887301466,0.648782117543632,-3.08085471710184,-6.40982340941967,-7.22508900210934,-5.92721745708323,26.756174156001,-3.60745293493249,27.6087365249446,-15.2617943403073,80.1589345188415,-15.2935265553129,19.8932753382706,-6.27463513134297,20.1761534882369,209.099884000837,-287.461633890614,-0.886770743799018,35.5607084784006,-2.96276177677376,-260.127959507122,-29.5608272623468,256.794199144833,677.742292065739,0.158968332251468,0.237453522975672
135.395,-24.5317926665801,-181.021667249058,-150.429412343918,-0.412149582711766,-9.91936261072802,-11.0181922690588,-10.918410747582,-95.953452877342,-237.340660919675,-271.820505055809,0.12927868551045,1.41498454053051,1.08102625857376,0.256249257345856,0.324505435512004,17.9949506472591,2.72809006722709,32.5656619882898,-31.7374832444398,269.756292250409,-18.8016139383365,14.7558841400178,1.20355046912556,8.54886267045709,-61.698655081512,-241.92266556768,2.63895871595589,35.7274685846404,10.6204684656112,210.656954938145,98.8481566272673,-168.030065217332,0,0,0,-24.5550644357242,-17.0158735630313,-15.4920255219414,0.945358307452433,10.6807319571652,11.7047219506292,11.4368093068243,-45.3147598529662,-145.704312221699,-196.59863123361,0.788957936604533,-2.60368539500801,-6.20737066018288,-7.14090037241671,-2.20163675406594,26.5258841400178,-3.80192005954053,26.177716261016,-38.682510094759,81.5678418868595,-19.8865329852003,19.0002618318469,-4.11246775905614,18.7324972837879,205.988283647703,-269.629162831283,-0.0122589882976325,28.1724013604796,-4.63763259194917,-182.025102382433,-36.2686637113905,193.987714372796,886.282695428313,0.147424692994251,0.225910074362269
135.4,-26.086563796607,-184.509880222581,-152.776779571603,-0.400311938838301,-9.55056310234329,-11.2791313680752,-11.2043448649289,-97.8997145259728,-223.204217019634,-266.460742712689,0.132276231477243,1.32031038305851,1.00454409361057,0.117633301866206,0.887436585693185,21.8280000244018,1.22864618538084,27.8966819660239,-45.9845061811241,277.764319555175,-23.069655567892,14.5255941240346,1.01675967838364,16.294694209426,-79.0383244605497,-212.866320341156,5.1534098798945,34.3755605303437,11.4955929960848,185.40181729953,91.5581987790349,-132.547489826563,0,0,0,-24.7172526014133,-7.83636693280484,-21.1880753484134,0.928848800216767,10.6105773188953,11.3335586380344,10.9838931604456,-46.4892282364648,-134.872495145813,-187.736375165755,0.929133755665433,-2.12651607291418,-6.00491791094608,-7.04625249096023,1.52394394895135,26.2955941240346,-3.99638718414858,24.7466959970874,-62.1032258492107,82.9767492548775,-24.4795394150877,18.1072483254231,-1.95030038676931,17.288841079339,202.876683294569,-251.796691771952,0.862252767203753,20.7840942425585,-6.31250340712457,-103.922245257744,-42.9765001604343,131.18122960076,1094.82309879089,0.135881053737035,0.214366625748867
135.405,-27.6567829737882,-186.697493084467,-155.378825606349,-0.388481887643216,-9.1957049813254,-11.4924789605312,-11.4463491821078,-99.8309879102672,-208.625392262995,-260.415425327817,0.135827477801831,1.22757304187879,0.934199649385948,-0.0156323624869358,1.417587863596,25.4501587550264,0.0358634915661264,22.8769177902466,-59.0569761886802,286.477037449656,-26.9718617160165,14.2337145542848,0.854695806569555,23.6925011073008,-94.2123490315389,-184.859915967633,7.60156742542479,32.9875591887065,12.2827751587574,162.123623908073,83.4742663881163,-97.3980406746677,0,0,0,-24.8434452624418,1.07470098220964,-25.9189458837558,0.910960278984028,10.554225790778,10.9923937745901,10.5660914342074,-47.6192160648069,-122.485844424813,-178.200950389546,1.06116638895484,-1.63980069993625,-5.79037634282643,-6.92787919663937,4.76870384876497,25.8654817483941,-4.30881978171185,23.4006552899967,-80.9524953435341,81.4819411644485,-28.4417671941093,16.5844978850071,0.0850686719933333,14.8847459397358,197.612451799372,-235.897558393598,1.49354492014983,14.1182971685709,-7.48562071385524,-35.4184039784907,-48.7729123688421,73.0083336646616,1298.40383309833,0.126266751188392,0.201759975108816
135.41,-29.3563633636231,-178.053723260711,-160.103181850445,-0.376709811388578,-8.95680314925247,-11.3095443333538,-11.2953074618342,-101.638287095368,-190.355608608288,-248.657611339688,0.143991928328068,1.15092568028048,0.914943372840962,-0.0969523280058872,1.67496005013315,27.317476108413,1.39665047783174,14.9333317860134,-62.3527193180961,301.062813453173,-27.8288563371455,13.4287419708601,0.898503838320552,28.1949932594875,-91.3560383193785,-165.585734096936,9.49867191939225,31.2983289234843,12.3378586692159,155.300523464198,68.7739330652121,-65.0074763631963,0,0,0,-24.6698969799199,7.75397752845211,-22.6131967583846,0.881578355799141,10.6128116647338,10.9009263304433,10.4044779525201,-48.3792397266157,-97.143883655685,-163.054638980207,1.12543530580017,-1.07336227265404,-5.47505474912323,-6.69611380367316,4.01027729907568,23.7709102302992,-5.60389472035094,22.7617881602946,-61.7357777120167,55.8021867499125,-27.1521682594391,9.81615697947673,1.06527338242207,4.480338398872,174.417180667011,-236.093612856681,0.0994058780380314,13.4671307687343,-4.48028703246131,-46.8317645821623,-46.9808905713707,53.4015012869879,1460.7673507755,0.132717109178929,0.180292586837277
135.415,-31.0558627130045,-169.410365594586,-164.827312824838,-0.364938296457431,-8.71791270864589,-11.1266184289796,-11.1470028839722,-103.4455001037,-172.086696104814,-236.900357994988,0.152155989551877,1.07428197342953,0.895688014485779,-0.175695667587986,1.93231996448899,29.1847044232075,2.75737257820252,6.99012455280842,-65.6483052978301,315.647893968611,-28.6858100945219,12.6238077706408,0.942309781189623,32.6972707210318,-88.499863803609,-146.312471269815,11.3956859544386,29.6091792051945,12.392939553148,148.477748363658,54.0743006927811,-32.6184565188387,0,0,0,-24.4963569726356,14.4329355892594,-19.3076052598076,0.852197833621463,10.6713947451614,10.8094632477043,10.250559572527,-49.1392271485016,-71.803131257755,-147.909049786746,1.18970115813486,-0.506950854642627,-5.15974819078116,-6.45099906653436,3.25188691315473,21.6764385868714,-6.89890790641808,22.1229514934539,-42.5199763840293,30.1236568134622,-25.8626308162306,3.04813880620397,2.04543135411772,-5.92357303253434,151.223015546052,-236.289657971373,-1.29466668786539,12.8159954182205,-1.47509665326466,-58.2445809668465,-45.1889542222017,33.7956038145392,1623.12312653402,0.139167159599468,0.158826222187152
135.42,-32.7554431028395,-160.76659577083,-169.551669068934,-0.353166220202793,-8.47901087657296,-10.9436838018022,-11.0008529265076,-105.2527992888,-153.816912450108,-225.14254400686,0.160320440078115,0.997634611831214,0.876431737940793,-0.250161699979711,2.18969215102615,31.0520217765941,4.11815956446813,-0.953461451424789,-68.944048427246,330.233669972129,-29.5428047156509,11.818835187216,0.986117812940619,37.1997628732184,-85.6435530914486,-127.038289399118,13.292790448406,27.9199489399723,12.4480230636065,141.654647919782,39.3739673698768,-0.227892207367258,0,0,0,-24.3228086901137,21.1122121355019,-16.0018561344364,0.822815910436576,10.7299806191171,10.7179958035575,10.1053272263458,-49.8992508103103,-46.4611704886268,-132.762738377406,1.25397007498018,0.0594875726395858,-4.84442659707796,-6.19198760024459,2.49346036346545,19.5818670687764,-8.19398284505717,21.4840843637517,-23.303258752512,4.44390239892617,-24.5730318815604,-3.72020209932636,3.02563606454646,-16.3279805733981,128.027744413691,-236.485712434457,-2.68880572997719,12.1648290183838,1.53023702812927,-69.657941570518,-43.3969324247303,14.1887714368655,1785.48664421119,0.145617517590005,0.137358833915613
135.425,-34.3302137591104,-154.601584166573,-171.621730665876,-0.340700329038126,-8.32185275501324,-10.6544289541172,-10.7499476611349,-106.698852152553,-134.969242605571,-211.109319019549,0.168178716638469,0.958177882999559,0.803107418021842,-0.372814398137933,3.4019798196758,31.7317308124579,4.32162791278504,-1.76950374619314,-60.2562193219636,338.039607678809,-30.6019710781988,9.98761732310996,1.15412173131197,41.9541514924184,-75.3253007330199,-96.8367274006609,14.3270072937012,26.9990558624268,12.4780521392822,137.934997558594,31.3600006103516,17.4300003051758,0,0,0,-24.0329462102211,30.2228706356243,-10.1302097168879,0.781082102867157,10.8363909672635,10.5581852150873,9.90122367690138,-50.2563074136567,-24.0144430031092,-115.715676487821,1.31410909237926,0.716533241610213,-4.39923137549489,-5.78894093386965,2.91376208197006,19.3178323634456,-7.90305876770147,21.0578670364296,-12.2727895857095,-21.4385033234572,-24.5334363995105,-6.27489247983219,3.35870601163865,-15.463717011716,105.33933858932,-229.247545679999,-3.21776108305701,12.1227811885382,2.4853939945165,-70.5772708119288,-38.8348247585527,-1.22326204896393,1901.63325757387,0.155702587250494,0.120077653672449
135.43,-35.7555427176269,-151.407161544487,-170.51036212659,-0.327401469561703,-8.26266262298759,-10.2376999676283,-10.3725236751128,-107.712038258168,-115.426896678189,-194.347135426805,0.175670812796708,0.963296646691739,0.664965184052307,-0.552975632456189,5.75903169409824,30.9879499987512,3.13786408251954,5.95800514251691,-37.2030233485315,337.719514214382,-31.9035875021854,6.92606883288793,1.47101426109544,47.0109815769131,-56.0614940556414,-53.5335782180276,14.3270072937012,26.9990558624268,12.4780521392822,137.934997558594,31.3600006103516,17.4300003051758,0,0,0,-23.6036299579424,42.2489307437577,-1.18226057467168,0.724537975736412,11.0001386632572,10.3164363817401,9.62520701576319,-50.1303733142565,-5.03581736326521,-96.3884376950536,1.36930399137284,1.48225679272517,-3.79831269167946,-5.21596046092334,4.74702465096529,21.2479959539449,-5.7110005244886,20.8865038686046,-11.0538478070301,-47.566536515786,-25.9921896151253,-3.77903643947153,2.91610404855266,-1.09184378564233,83.2561228111233,-213.097375429327,-2.70969440202595,12.810866569311,0.983147393520093,-58.9177217522821,-30.9517951124439,-11.6086941826263,1962.39281700342,0.17014556670258,0.107812581125674
135.435,-37.180803712718,-148.212891240855,-169.399046580274,-0.314103244209801,-8.20347531330278,-9.82099085187111,-9.99547453057712,-108.725176052411,-95.8854825811496,-177.585751098967,0.183162551712139,0.968415166307833,0.526829537067036,-0.724633630541084,8.11597117810133,30.2442046504658,1.9541566972202,13.6851455633227,-14.1509266119854,337.39943601285,-33.2051418616849,3.8646663253328,1.78789168061142,52.0675705384781,-36.7986059271223,-10.2324938431942,14.3270072937012,26.9990558624268,12.4780521392822,137.934997558594,31.3600006103516,17.4300003051758,0,0,0,-23.1743341765893,54.2744174177834,7.76526190584599,0.667996544778045,11.163878551331,10.0746990756116,9.35954906201419,-50.0044452197247,13.9419033258998,-77.0621204757556,1.42449625852879,2.24794383213161,-3.19742266124396,-4.6289665251008,6.58019980518992,23.1780675091786,-3.51904680436572,20.7151488718253,-9.83496415069382,-73.6933238549205,-27.4508732735583,-1.28329940807713,2.47352318988986,13.2793441517977,61.1739600186115,-196.947975261157,-2.20165194694763,13.4989191403669,-0.519027576415807,-47.2587286505345,-23.0691413498773,-21.9936311116284,2023.14947925772,0.1845878574755,0.0955480934097478
135.44,-38.6061326712345,-145.018468618768,-168.287678040988,-0.300804384733378,-8.14428518127713,-9.40426186538218,-9.61818669110881,-109.738362158027,-76.3431366537682,-160.823567506223,0.190654647870377,0.973533930000013,0.388687303097501,-0.886908562806741,10.4730230525238,29.5004238367592,0.770392866954698,21.4126544520327,8.90226936144666,337.079342548423,-34.5067582856715,0.803117835110765,2.10478421039489,57.1244006229729,-17.5347992497439,33.0706553394391,14.3270072937012,26.9990558624268,12.4780521392822,137.934997558594,31.3600006103516,17.4300003051758,0,0,0,-22.7450179243106,66.3004775259169,16.7132110480622,0.6114524176473,11.3276262473247,9.83295024226437,9.10432192470977,-49.8785111203245,32.9205289657438,-57.7348816829885,1.47969115752237,3.01366738324656,-2.59650397742854,-4.02826646512501,8.41346237418515,25.1082310996778,-1.32698856115285,20.5437857040003,-8.61602237201447,-99.8213570472493,-28.9096264891731,1.21255663228352,2.03092122680387,27.6512173778714,39.090744240415,-180.797805010485,-1.69358526591658,14.1870045211397,-2.02127417741222,-35.5991795908878,-15.1861117037685,-32.3790632452908,2083.90903868728,0.199030836927585,0.0832830208629729
135.445,-40.005330960065,-141.991262844438,-164.976159182579,-0.288275996257397,-8.06416824631851,-9.10415217772956,-9.35676711872351,-110.284352603779,-57.1103701850362,-142.584287679484,0.192809898113417,1.01624791372906,0.318458324402151,-0.97132198048956,11.1544717229285,28.0955672463345,-0.116698572750768,21.8184399184773,12.9880425101738,333.704413329172,-33.8341904135613,-1.70284938379853,2.50604608115352,54.8095160775272,9.9153308568607,67.3227346560031,14.3270072937012,26.9990558624268,12.4780521392822,137.934997558594,31.3600006103516,17.4300003051758,0,0,0,-21.9317470813454,78.6024709511351,27.1188888304686,0.560136800565095,11.5272856959795,9.85650163965292,9.12471633827073,-49.3673695480419,48.5666139294107,-38.1741468420214,1.46950424607266,3.99446094575171,-2.02939436790129,-3.44823351801777,8.18285547274586,25.4036845438161,-0.897309172390258,17.8810625619043,-7.03314973277792,-121.369996614245,-27.8895002192021,3.24468118271714,1.83424423985581,37.5255946270527,16.18355996245,-166.005044354599,-1.50886237621307,14.4371786117554,-2.56746101379395,-31.3600006103516,-12.3199996948242,-36.1549987792969,2106,0.204282015562057,0.0788236856460571
135.45,-41.3897047952714,-139.059366620413,-160.407375398186,-0.276186863962287,-7.97208915121459,-8.87064836778854,-9.16072399635449,-110.563460019709,-38.0530353516806,-123.499728513316,0.191916197745552,1.08044445903197,0.287025115412104,-1.00679295323619,10.8786453309952,26.3129114910614,-0.834357981392203,18.0411191876111,6.2374217382336,328.583905093006,-32.0336570217741,-3.89158288275123,2.95554094208196,48.2827598898036,42.0446282254131,96.4062124702844,14.3270072937012,26.9990558624268,12.4780521392822,137.934997558594,31.3600006103516,17.4300003051758,0,0,0,-20.8990496667612,91.0630357487643,38.3581936591235,0.511804554792873,11.7474776467689,10.0316293753269,9.30668752164936,-48.6361082303448,62.3098833250508,-18.4785425193846,1.42196183548151,5.09820442811394,-1.48155847947684,-2.8750097896922,6.77307613619756,24.7651975254518,-1.47450143699157,13.794745644373,-5.24223305904507,-140.303895603269,-25.4530337571241,5.01201324954943,1.77805738223975,44.8311473260651,-7.1961004877773,-151.986707151401,-1.50886237621307,14.4371786117554,-2.56746101379395,-31.3600006103516,-12.3199996948242,-36.1549987792969,2106,0.204282015562057,0.0788236856460571
135.455,-42.7740126199001,-136.127610196895,-155.838809465394,-0.264098308108733,-7.88001444668359,-8.637155691922,-8.96304755039936,-110.842554127065,-18.996609222065,-104.416079349016,0.191022539991666,1.14463794327512,0.255593405239957,-1.03228848730073,10.6028320911881,24.5303407374933,-1.55198317014957,14.2639785693109,-0.512877146391529,323.463641016112,-30.2332094841444,-6.08021201714647,3.40501436991575,41.7563149149442,74.1723935847452,125.488303508015,14.3270072937012,26.9990558624268,12.4780521392822,137.934997558594,31.3600006103516,17.4300003051758,0,0,0,-19.8664014939,103.523006393962,49.5969625682271,0.463474613628975,11.9676590982282,10.2067487604509,9.49815100740039,-47.9048817811065,76.0524974055376,1.21612266514803,1.37442169183727,6.20189528109021,-0.933748713305316,-2.29013642961519,5.36336402162794,24.1267409518242,-2.05166617955088,9.70862357315666,-3.45140178091939,-159.236891774298,-23.0166834721613,6.7792610453505,1.72187320376052,52.1363516771517,-30.5746461344355,-137.969038379312,-1.50886237621307,14.4371786117554,-2.56746101379395,-31.3600006103516,-12.3199996948242,-36.1549987792969,2106,0.204282015562057,0.0788236856460571
135.46,-44.1583864551065,-133.19571397287,-151.270025681001,-0.252009175813623,-7.78793535157968,-8.40365188198098,-8.7633708136731,-111.121661542995,0.0607256112906329,-85.3315201828481,0.190128839623801,1.20883448857803,0.224160196249909,-1.04835150764718,10.3270056992547,22.7476849822203,-2.26964257879101,10.4866578384447,-7.26349791833174,318.343132779946,-28.4326760923572,-8.26894551609917,3.85450923084419,35.2295587272206,106.301690953298,154.571781322297,14.3270072937012,26.9990558624268,12.4780521392822,137.934997558594,31.3600006103516,17.4300003051758,0,0,0,-18.8337040793158,115.983571191591,60.8362673968819,0.415142367856753,12.1878510490176,10.381876496125,9.69846935842535,-47.1736204634094,89.7957668011777,20.9117269877849,1.32687928124612,7.30563876345244,-0.385912824880864,-1.69443035204893,3.95358468507964,23.48825393346,-2.62885844415219,5.62230665562536,-1.66048510718654,-178.170790763322,-20.5802170100833,8.54659311218279,1.66568634614446,59.441904376164,-53.9543065846628,-123.950701176114,-1.50886237621307,14.4371786117554,-2.56746101379395,-31.3600006103516,-12.3199996948242,-36.1549987792969,2106,0.204282015562057,0.0788236856460571
135.465,-45.4692154477835,-129.329028661909,-146.67594984436,-0.237871788001858,-7.59224896565243,-8.33676409728075,-8.72805103985546,-110.857704973139,20.2062872971063,-65.0645620060632,0.180002001368063,1.29037718821431,0.208594055391225,-1.04000198884085,10.1341360280028,21.662955875214,-2.01233731061093,10.8720543021879,-13.8566120307521,308.822174465872,-25.7865165180511,-8.98427757479752,3.82358363780374,26.7941016806513,115.459943493576,183.420519269877,13.4977552291183,24.8271833633395,11.3116419375097,102.823386967245,8.25865619068491,81.597399240242,0,0,0,-17.6421600879893,119.877990551702,71.8413479946265,0.376578853765206,12.3863227957571,10.6158119208385,9.96566033243958,-46.0198042536699,103.054197220515,38.7076528003984,1.27820086212632,8.51648982244722,0.434205713979008,-0.816554866926905,3.47117095480212,23.3312417281995,-2.79000000000002,3.92838597729711,-6.35768434061698,-188.870927580365,-20.5024926543856,10.2237435805718,0.894953115817965,55.1375714097807,-52.3638513446378,-108.186012246949,-1.50886237621307,14.4371786117554,-2.56746101379395,-31.3600006103516,-12.3199996948242,-36.1549987792969,2106,0.204282015562057,0.0788236856460571
135.47,-46.7516444521027,-125.100008289469,-142.07177351541,-0.222940097898625,-7.35641860154601,-8.33440859228416,-8.75481140195071,-110.383381666492,40.7746932395268,-44.33827509381,0.166298148745313,1.37864410565436,0.199172801921287,-1.01816674022579,9.97338588109046,20.8484884641917,-1.37737423030739,12.8698544819209,-20.3891540091835,297.596125111545,-22.8126388001737,-9.12895270701858,3.60657093947216,17.6187743651228,115.721245172713,212.180242055933,12.3472475353876,21.813918607395,9.69335967027135,54.1093953476512,-23.7922431986541,170.623510014667,0,0,0,-16.3890099673419,120.454674590477,82.7564327077864,0.341796588712841,12.5763946137478,10.8725412695235,10.2628292719398,-44.7022401801359,116.125708231554,55.768938380783,1.22907920350174,9.76890781133369,1.35984390333096,0.175783945712022,3.34792917550271,23.3607125884668,-2.79000000000002,3.16101902084339,-13.5682876383286,-196.382523951513,-21.3383934183295,11.8660742481924,-0.152602008227096,46.3360047239043,-41.1014182122029,-91.7438521584514,-1.50886237621307,14.4371786117554,-2.56746101379395,-31.3600006103516,-12.3199996948242,-36.1549987792969,2106,0.204282015562057,0.0788236856460571
135.475,-48.0340123068413,-120.871189567819,-137.46781672567,-0.208009119777564,-7.12059948245027,-8.33205319960423,-8.77900312191059,-109.909080976825,61.3421184263712,-23.6129764653119,0.152594949558221,1.46690681429612,0.189751997681439,-0.990465457408872,9.81264339916705,20.0340598891131,-0.742441426709955,14.8675594012981,-26.921384498869,286.370611044713,-19.8389028845908,-9.27362094074965,3.38956858887556,8.44388455328098,115.9825343923,240.938593502928,11.1967947008833,18.8007975318222,8.07515456697865,5.39772653902567,-55.8416143169943,259.645375790486,0,0,0,-15.135919600181,121.031331131444,93.670996961061,0.307015982170158,12.7664573686154,11.1292583766793,10.5662180485048,-43.3847389315148,129.196595958643,72.8294104342945,1.17995988712675,11.0212660816435,2.28543795582475,1.17608023255785,3.22469327269477,23.390182043486,-2.79000000000002,2.39368865446007,-20.7785471155511,-203.893762150033,-22.1742543243312,13.5083266051764,-1.20010718209459,37.5348577198267,-29.8395221021374,-75.3024760752986,-1.50886237621307,14.4371786117554,-2.56746101379395,-31.3600006103516,-12.3199996948242,-36.1549987792969,2106,0.204282015562057,0.0788236856460571
135.48,-49.3164413111604,-116.642169195379,-132.86364039672,-0.193077429674331,-6.88476911834385,-8.32969769460763,-8.80058312836698,-109.434757670177,81.9105243687917,-2.88668955305867,0.138891096935471,1.55517373173616,0.1803307442115,-0.958587883513045,9.65189325225476,19.2195924780909,-0.10747834640642,16.8653595810311,-33.4539264773005,275.144561690386,-16.8650251667135,-9.41829607297071,3.17255589054397,-0.731442762247488,116.243836071438,269.698316288985,10.0462870071526,15.7875327758776,6.45687229974034,-43.3162650805678,-87.8925137063333,348.67148656491,0,0,0,-13.8827694795335,121.60801517022,104.586081674221,0.272233717117792,12.9565291866062,11.3859877253642,10.8748554977586,-42.0671748579808,142.268106969682,89.8906960146791,1.13083822850217,12.27368407053,3.2110761451767,2.18350168409794,3.10145149339536,23.4196529037533,-2.79000000000002,1.62632169800636,-27.9891504132628,-211.405358521181,-23.0101550882751,15.150657272797,-2.24766230613965,28.7332910339502,-18.5770889697025,-58.8603159868011,-1.50886237621307,14.4371786117554,-2.56746101379395,-31.3600006103516,-12.3199996948242,-36.1549987792969,2106,0.204282015562057,0.0788236856460571
135.485,-50.1773308673656,-108.077958908405,-128.079887790529,-0.177448997864679,-6.59879548004351,-8.29111533522132,-8.7833505672559,-108.431144502557,98.9964824260203,16.7285523552693,0.119075342274893,1.63729549976007,0.245989534202527,-0.849288987805228,9.82800356018072,18.9236464466657,0.38499520744897,19.8603922284602,-36.8176717499827,260.431914501566,-16.3166274133917,-9.6728166506915,2.85784882924826,-2.30137115983114,101.090017124706,296.462077989259,10.0327367782593,15.7520437240601,6.43781280517578,-43.8899993896484,-88.2699966430664,349.720001220703,0,0,0,-12.7684890756107,125.686910809743,110.724385543482,0.225557178414834,13.0066572095026,11.5659091975058,11.110907929706,-40.5292430068571,155.378755571809,103.33006981023,1.01793375580277,12.8331681329561,4.2788297908691,3.33923688228325,3.45342735861977,22.996919074353,-3.08667260030126,1.3242739750111,-34.0266354263342,-221.672738921769,-22.0345310146515,15.4202368889498,-2.24710119129124,22.7121020788007,-27.7506960609795,-46.9653769886551,-2.04083813392478,13.9373313223974,-1.83220999805336,-25.0576424735157,-11.7060163707647,-52.0373025722052,2040.73202793373,0.212646355155427,0.0753060415862571
135.49,-51.0332378259001,-99.4616661991582,-123.293764064231,-0.161811507782816,-6.312210407543,-8.25209934258885,-8.76318599047716,-107.421174540456,116.041759211796,36.3314987186223,0.099185786438963,1.71934798916316,0.312546337585025,-0.738657919638377,10.0081372536815,18.633866157121,0.875794256407678,22.8674549594719,-40.1438118768896,245.677002194415,-15.7971113988025,-9.92865870812741,2.54196220731206,-3.78072999534499,85.7517410937466,323.203342168471,10.0327367782593,15.7520437240601,6.43781280517578,-43.8899993896484,-88.2699966430664,349.720001220703,0,0,0,-11.6558100295159,129.807744548139,116.806053311385,0.178736624940095,13.0551197243231,11.744923913035,11.34926856578,-38.988610481495,168.490503268396,116.726924167591,0.904263636531805,13.3844204256576,5.348328769092,4.5020830309229,3.81108411238223,22.5687752231337,-3.38689542280259,1.02775760710854,-40.0504299003546,-231.973459702384,-21.0372691172992,15.6734683131465,-2.23404802509552,16.7237606487686,-37.1683137458846,-35.1240602965465,-2.57917994007851,13.4315024596096,-1.08816037915201,-18.6798652661367,-11.0846856299726,-68.109666746345,1974.68300698343,0.221110789142696,0.0717463025772758
135.495,-51.8891039725446,-90.845784337361,-118.507868552873,-0.14617476333752,-6.02563900017088,-8.21308521034129,-8.74066422722237,-106.411252736373,133.086223234041,55.9335103620457,0.0792971789892543,1.80139656608821,0.379099967364463,-0.629493890323569,10.1882623579351,18.3440996850609,1.36656990277965,25.8743743058408,-43.469793404706,230.922793440206,-15.2776201561002,-10.1844885663426,2.22609064767902,-5.26001829114705,70.414196432043,349.943331254026,10.0327367782593,15.7520437240601,6.43781280517578,-43.8899993896484,-88.2699966430664,349.720001220703,0,0,0,-10.5431840388781,133.928381794367,122.887431089406,0.131918303992224,13.1035799283236,11.9239300926728,11.5898545501473,-37.448051417535,181.601625762442,130.123139727776,0.790598937350448,13.9356464332031,6.41777675079676,5.66946948348719,4.16872381213203,22.1406517869369,-3.68710392989183,0.731255377884601,-46.0739371440453,-242.273689317598,-20.0400547720115,15.9266876626044,-2.22099548130903,10.7357047585721,-46.5854823740624,-23.2833082294947,-3.11749607668206,12.9256977160696,-0.344146238489215,-12.3023921679132,-10.4633845158608,-84.1812645479798,1908.6371354238,0.229574819523538,0.0681867333059929
