time,hip_angle_l,hip_angle_l_velocity,hip_angle_l_velocity_filt,hip_angle_l_torque_estimated,hip_angle_l_torque_desired,hip_angle_l_torque_measured,hip_angle_l_torque_interaction,knee_angle_l,knee_angle_l_velocity,knee_angle_l_velocity_filt,knee_angle_l_torque_estimated,knee_angle_l_torque_desired,knee_angle_l_torque_measured,knee_angle_l_torque_interaction,thigh_imu_l_accel_x,thigh_imu_l_accel_y,thigh_imu_l_accel_z,thigh_imu_l_gyro_x,thigh_imu_l_gyro_y,thigh_imu_l_gyro_z,shank_imu_l_accel_x,shank_imu_l_accel_y,shank_imu_l_accel_z,shank_imu_l_gyro_x,shank_imu_l_gyro_y,shank_imu_l_gyro_z,foot_imu_l_accel_x,foot_imu_l_accel_y,foot_imu_l_accel_z,foot_imu_l_gyro_x,foot_imu_l_gyro_y,foot_imu_l_gyro_z,insole_l_force_y,insole_l_cop_x,insole_l_cop_z,hip_angle_r,hip_angle_r_velocity,hip_angle_r_velocity_filt,hip_angle_r_torque_estimated,hip_angle_r_torque_desired,hip_angle_r_torque_measured,hip_angle_r_torque_interaction,knee_angle_r,knee_angle_r_velocity,knee_angle_r_velocity_filt,knee_angle_r_torque_estimated,knee_angle_r_torque_desired,knee_angle_r_torque_measured,knee_angle_r_torque_interaction,thigh_imu_r_accel_x,thigh_imu_r_accel_y,thigh_imu_r_accel_z,thigh_imu_r_gyro_x,thigh_imu_r_gyro_y,thigh_imu_r_gyro_z,shank_imu_r_accel_x,shank_imu_r_accel_y,shank_imu_r_accel_z,shank_imu_r_gyro_x,shank_imu_r_gyro_y,shank_imu_r_gyro_z,foot_imu_r_accel_x,foot_imu_r_accel_y,foot_imu_r_accel_z,foot_imu_r_gyro_x,foot_imu_r_gyro_y,foot_imu_r_gyro_z,insole_r_force_y,insole_r_cop_x,insole_r_cop_z
15,-22.3134892670719,-71.3927663091071,-100.74310550747,-0.156843063911628,-1.23559845484623,-2.00163793753113,-2.35233772266506,-64.0802567212553,-120.899682471609,-156.023188837788,0.0792932992843086,0.0728082576760174,-0.892336722525236,-1.65079331341521,2.14268751466488,11.6471228198243,0.294237427327463,20.7254028672153,22.6404791309198,192.950373312193,-14.1641384884115,4.47372630810544,0.898103866308623,5.80643850479429,-62.2201867639206,-98.6211720493338,-3.24525165557861,14.0515804290771,2.52195572853088,31.0100002288818,69.5449981689453,-237.229995727539,155,0.323330044746399,0.017147907987237,-7.62892378540163,22.2750635323374,23.3186419211001,0.0997944302554759,1.68106858136009,1.63184188240639,1.60337674119445,-3.31263370557178,21.6232291378579,18.5790954480269,-0.0354950020192866,-0.0472040519401193,0.326452443257064,0.316501280468701,-0.10014013087572,10.0272547383789,-1.7462407122559,4.26555939537491,15.312702914175,-51.8190487547624,-1.19820280522459,10.2020692442058,-0.0733553197590988,11.0504717377387,12.5610923948081,-20.168870137181,-2.5217958055255,9.44459334936947,-1.30511590683893,-12.9861832315582,-1.08274937453813,2.93656641922408,871.803790703131,-0.203514610944921,0.0736898403264831
15.005,-22.952808086066,-64.9202203872688,-95.9462649370022,-0.150889701662881,-1.22400539262423,-1.89349314928223,-2.25129644425184,-65.1796470375856,-114.427134464154,-148.986189911514,0.0809604574792022,0.174853010393588,-0.813030528182154,-1.60267661817435,3.08033292488987,12.0571718330422,0.307905727768064,18.6768452456245,23.6630704972164,185.431120625366,-14.4484391375759,4.22769690017467,1.11132935318195,5.18208404022379,-59.6012729017222,-94.1258199044262,-3.24525165557861,14.0515804290771,2.52195572853088,31.0100002288818,69.5449981689453,-237.229995727539,155,0.323330044746399,0.017147907987237,-7.41382574804192,21.6866504563173,23.3037771904865,0.0925387920100576,1.72046565861153,1.61261614227325,1.58963910450048,-3.0736344958718,19.8579888669891,20.1188828866378,-0.0460249697232486,-0.116540214030891,0.384129667729951,0.383311740825705,-0.545726725239199,10.0764606199651,-2.0824809030946,2.38237133467036,15.4611980300729,-52.5176507772818,-1.14079594337407,10.344219568788,-0.0132147978204622,11.1415937406761,9.69581163577914,-20.7932246017515,-2.76076751114955,9.40465560619403,-1.37255176238982,-12.6513100271849,-1.43675835236496,3.62544878880392,911.168495972052,-0.192570612037316,0.0754627737546112
15.01,-23.5730958956158,-58.7450249898747,-90.9462925513804,-0.144870713813296,-1.21672892978283,-1.78447063010405,-2.14221292245223,-66.2453695289636,-107.419897111863,-141.770312536292,0.0832085281246153,0.275021185192852,-0.737367684169316,-1.54701031332242,3.92308324718163,12.4075114458721,0.312268990301771,16.7048785275865,24.2184272918942,177.727887571846,-14.6542086348644,3.97967065426081,1.27472554521736,4.61751551186887,-55.8900928858427,-89.34384414773,-2.86304032880634,14.3360134389172,2.7011328542719,33.2412886503369,69.2265400659068,-235.555488688962,151.937330773396,0.323465460888927,0.0166234983061164,-7.1949022498502,21.4006764239107,23.2984522562454,0.0863317103502524,1.75406400487053,1.59351319151216,1.57595211842937,-2.84396106391516,18.1040227438647,21.4503256871845,-0.0563590943796538,-0.179863874070827,0.427845539899918,0.435589822342965,-0.955164672869588,10.1191079604194,-2.39546201939644,0.782493483161366,15.3448038202137,-53.0609151957057,-1.09356815832223,10.486354058977,0.0521912076010632,11.1311827917778,7.07532790835767,-21.2660195107068,-2.96659347462066,9.36383348611541,-1.42339110154377,-12.2311556402528,-1.70733077332545,4.23395941102897,945.851326736573,-0.18268079264917,0.0770341139625119
15.015,-24.0469599886682,-54.8561754231849,-84.3882431833,-0.138350182229734,-1.24260896303799,-1.66875185570888,-2.01972569675987,-67.0520664068044,-96.3088980685871,-133.183552453571,0.0899173451943636,0.360734911305483,-0.689718777065421,-1.50839761854574,4.03664648254815,12.2991101757495,0.245163442130651,15.3219816659404,21.1849761115092,168.614788437496,-14.2567373110816,3.71641042682026,1.05534202235022,4.51236436801099,-43.7913385455887,-82.3624454752263,0.454572971583246,16.8049060917966,4.25639920523006,52.6089829741509,66.462307914077,-221.020684423237,125.353209767144,0.324640879732041,0.0120715962271514,-6.94668805310688,23.4376928167212,23.3663995845969,0.0881805985101066,1.74311150235394,1.57536122690115,1.56317056161751,-2.68600899174231,16.4373732812001,21.1810339899159,-0.0651847762731768,-0.196982520983551,0.364313659915426,0.37994230409858,-1.08679478658986,10.1113650125535,-2.52967311573868,1.35923157523037,13.1939849685751,-52.4108899427661,-1.12453994978583,10.6283081031852,0.15801149510167,10.3409560136943,6.33608350305376,-20.5745710798838,-2.91775957991569,9.31623583801715,-1.34674045824702,-11.1561761419078,-1.33695976645795,4.22492588816392,944.56083542559,-0.18089165413126,0.0770564743960965
15.02,-24.5208466778817,-50.9671404170995,-77.8298810953032,-0.131829339715287,-1.2684902303799,-1.55302756327573,-1.89114341769517,-67.8588017519037,-85.1973691984533,-124.596382912071,0.096626482173371,0.446452724668419,-0.642067597828241,-1.45928423895725,4.15021513316598,12.1907037365234,0.178054694038299,13.9390188609982,18.1513802813135,159.501254745942,-13.8592470339192,3.45313764584257,0.835948038202135,4.40720821003152,-31.6920072774657,-75.3807138954377,3.77234447202531,19.2739164735708,5.81173971890582,71.9776008444969,63.6979439501184,-206.48518706685,98.7678210997883,0.325816354624883,0.00751947709119913,-6.69846202029486,25.474806344451,23.4343501530097,0.0900295748340045,1.73215847756837,1.55720839671556,1.55037869614751,-2.52804938764098,14.7706443445255,20.9117294515002,-0.0740108790184425,-0.21410198419721,0.300778750419706,0.323544463364511,-1.21843117707871,10.1036216954659,-2.66389061192338,1.93599716899657,11.0430635553586,-51.7608336934384,-1.15551321813615,10.7702689164574,0.263836828631914,9.55069155372739,5.59680384695565,-19.8830896774127,-2.86892335657143,9.2686359202299,-1.27008615987214,-10.0811453832749,-0.966571098486682,4.21589193453625,943.27028257766,-0.179102430298462,0.0770788358959362
15.025,-24.9947107709341,-47.0782908504097,-71.2718317272227,-0.125308808131725,-1.29437026363505,-1.43730878888055,-1.75722803521022,-68.6654986297445,-74.0863701551778,-116.009622829351,0.103335299243119,0.532166450781051,-0.594418690724345,-1.40034288189726,4.26377836853249,12.0823024664008,0.110949145867179,12.5561219993521,15.1179291009285,150.388155611592,-13.4617757101364,3.18987741840201,0.616564515335,4.30205706617364,-19.5932529372116,-68.3993152229339,7.0899577724149,21.7428091264502,7.36700606986397,91.3452951683109,60.9337117982886,-191.950382801124,72.1837000935362,0.326991773467997,0.00296757501223411,-6.45024782355155,27.5118227372615,23.5022974813612,0.0918784629938588,1.72120597505178,1.53905643210455,1.53761866057394,-2.37009731546813,13.1039948818609,20.6424377542317,-0.0828365609119656,-0.231220631109933,0.237246870435215,0.266371306317837,-1.35006129079899,10.0958787476,-2.79810170826562,2.51273526106557,8.8922447037201,-51.1108084404988,-1.18648500959974,10.9122229606656,0.369657116132521,8.7604647756439,4.85755944165174,-19.1916412465897,-2.82008946186647,9.22103827213165,-1.19343551657538,-9.00616588492997,-0.596200091619174,4.20685841167119,941.979791266677,-0.177313291780551,0.0771011963295208
15.03,-25.4515889806245,-43.6248242942865,-65.0225540653388,-0.119458564118156,-1.32220311530658,-1.34108142866566,-1.63831875936066,-69.3820124927831,-63.0093555093276,-107.06826839291,0.10580236331172,0.607897868869056,-0.539829631647723,-1.32547986408213,4.26559004649996,11.9365338695488,0.0961756943571716,10.7602499235862,11.6645891419466,141.759467942661,-12.8826530099284,2.91066733693604,0.404939047379656,3.90567510244106,-8.14064795808332,-60.4817669665812,9.51153729347573,23.5558794962936,8.62686621095572,103.615442248914,53.2106306716787,-169.399699004688,49.2709563905995,0.307074656000505,-0.000457409077885903,-6.18411218230174,29.331623365041,23.7655826056559,0.09377433538543,1.70010831669418,1.543686904604,1.54771165770875,-2.23214010190946,11.3377091821091,20.0190789485827,-0.0915261064392801,-0.242935024891824,0.171156784164909,0.205868181240608,-1.42588287042854,10.1369649365338,-2.87842151564658,3.14258274025357,6.66064044858396,-50.559302547489,-1.13384064345857,10.9831896443383,0.444288048259384,7.99830260489639,3.60365358865632,-19.225325321132,-2.75382835568084,9.19949256215725,-1.1391914242309,-7.93676973440936,-0.212819530464408,4.00230282743597,941.761593565414,-0.175360200279874,0.0772687808902057
15.035,-25.8548224154438,-41.5447481858456,-59.7480313309245,-0.1157228090023,-1.3561874406363,-1.30632704348814,-1.57732082121426,-69.8140490339317,-52.0416827625765,-97.0106941652801,0.0948952376083706,0.652141358286527,-0.463369976402647,-1.22076671684109,3.91506308910394,11.6729797662436,0.246401533241171,7.66267577115886,6.8880777388339,134.659775925228,-11.7309215784844,2.58122470780446,0.217815634032922,2.59115834027653,1.272463410585,-49.6142273981912,9.10755811869626,23.3008675966578,8.9550991176645,93.5055066852634,29.8544663182722,-121.580444276731,37.938129948473,0.22065943041024,-0.00032868758335631,-5.8615252333705,30.4662102875824,24.6446905224028,0.0958179675918539,1.64702846553614,1.62014655199455,1.62973865015481,-2.15725142222577,9.25763301083202,18.2795155605918,-0.0997847108243568,-0.237608184467198,0.0970140898952993,0.136582409859164,-1.32573231117254,10.3319949729797,-2.7888131205228,3.93975255889294,4.1747721161738,-50.3185247247163,-0.817575719492254,10.8303282644213,0.420568178961917,7.32477545200516,0.727334732830954,-21.5452521810907,-2.63263461581423,9.26008952634485,-1.15560304443186,-6.88518892254409,0.211502563918193,3.18133185596281,944.924242805077,-0.172890572878184,0.0778942052463618
15.04,-26.2580750784084,-39.4645728891873,-54.4732570814306,-0.111986875747342,-1.39017338650511,-1.2715710010513,-1.51372138187629,-70.2461061766988,-41.0734870234671,-86.9526403432473,0.0839875917998427,0.696386957450286,-0.386906675186696,-1.10919740565321,3.56451941686565,11.4094130953877,0.396634535629004,4.56495391122343,2.11133856826119,127.559745359703,-10.5791352268443,2.25176636923465,0.0306832977252741,1.27657889551402,10.6860236425106,-38.7461696122833,8.70355968021097,23.0458435368055,9.28334767612603,83.3950890303647,6.4971882285463,-73.7589092924815,26.6047631016715,0.134240084118739,-0.000199959950755355,-5.53892290191344,31.6008513127857,25.5238403593213,0.0978616972486715,1.59394608327081,1.6966098453556,1.71189895011271,-2.08235917148301,7.17745765133451,16.5398692216978,-0.108043709020143,-0.232281090032729,0.022867860138862,0.0666358125279813,-1.22557697624732,10.5270343094131,-2.69920045243181,4.73696039049396,1.68878524538528,-50.0777354204776,-0.501295714465237,10.6774595953249,0.396847178584897,6.65121618204022,-2.14912127996622,-23.8652896665255,-2.51143509683649,9.32068938009251,-1.17201544721926,-5.83355796615487,0.635844892056665,2.36032173657247,948.087042855348,-0.170420827712563,0.0785196594258147
15.045,-26.6613085132276,-37.3844967807464,-49.1987343470163,-0.108251120631486,-1.42415771183483,-1.23681661587378,-1.44849240379302,-70.6781427178473,-30.105814276716,-76.8950661156176,0.0730804660964935,0.740630446867757,-0.310447019941621,-0.992002895127757,3.21399245946964,11.1458589920824,0.546860374513004,1.4673797587961,-2.66517283485154,120.46005334227,-9.4274037954003,1.92232374010306,-0.156440115621459,-0.0379378666505158,20.0991350111789,-27.8786300438933,8.2995805054315,22.7908316371698,9.61158058283481,73.285153466714,-16.8589761248602,-25.9396545645249,15.2719366595451,0.0478248585284738,-7.12384562257622e-05,-5.2163359529822,32.7354382353271,26.4029482760682,0.0999053294550954,1.54086623211277,1.77306949274615,1.79419754651731,-2.00747049179931,5.09738148005746,14.8003058337069,-0.116302313405219,-0.226954249608103,-0.0512748341307473,-0.00386628738413166,-1.12542641699132,10.722064345859,-2.60959205730803,5.53413020913334,-0.797083087024881,-49.8369575977049,-0.185030790498921,10.5245982154078,0.37312730928743,5.97768902914898,-5.02544013579159,-26.1852165264842,-2.39024135696988,9.3812863442801,-1.18842706742022,-4.78197715428961,1.06016698643927,1.53935076509931,951.249692095011,-0.167951200310873,0.0791450837819708
15.05,-27.0376182032789,-35.9776907839395,-45.0359253316507,-0.106199051113255,-1.46545159675472,-1.23533119638985,-1.41584741214768,-70.9432025388479,-20.2867592181868,-66.5608012714146,0.0663548429500995,0.776717556887289,-0.204445247669268,-0.840929694551372,2.83829734356177,10.8836152919546,0.543305268496792,-0.736614921732974,-6.81440029179417,114.274425980324,-8.58454536232805,1.70437202814938,-0.314629556837629,-1.63927042069858,25.7748845698972,-14.5861213059041,7.74435790937507,20.3287325938941,8.96667459455628,65.6117036304197,-32.6488951840065,10.1433647071129,8.28744056298738,0,0,-4.90542420020564,32.7668892312562,27.3254878180682,0.100850314006057,1.50883128778886,1.8132965402507,1.84040291001402,-1.94266458205534,4.28703986152308,13.0589117624373,-0.122861675238233,-0.237751747402515,-0.116320687496053,-0.0657134642419942,-0.965491282571477,10.8014976225195,-2.45786648069486,6.57643903122462,-4.28559289863208,-49.8547193868566,0.00900158498700842,10.4637519812338,0.374251188740267,5.51550179905811,-6.58209583027097,-27.1568412343957,-2.32316899299622,9.41482257843018,-1.197509765625,-4.19999980926514,1.29499995708466,1.08500003814697,953,-0.166584432125092,0.0794912129640579
15.055,-27.3805248086124,-35.4053263546767,-42.2511552050631,-0.106233561470698,-1.51579880803791,-1.27507160450142,-1.42464061002881,-71.0013226978948,-11.8920769916629,-55.8847750529746,0.0648115008520899,0.802693730925346,-0.0618472968312183,-0.650257251635706,2.43145489126988,10.6230233944082,0.349190895834643,-1.83308372723198,-10.1858777266668,109.222134089118,-8.12452089012871,1.62459899828822,-0.436948202624743,-3.59584349877465,26.8188279236357,1.70990010276977,7.00177935295731,15.1319558557602,7.11595981818951,60.9582758741524,-39.061317680667,31.6794235126706,6.69197996576428,0,0,-4.60901311348971,31.4313717224599,28.3017477212837,0.100433794214307,1.502877832218,1.80862119811993,1.84182642085418,-1.89035978632271,5.05019275086295,11.3154351035038,-0.127314698354497,-0.268528774544817,-0.170087127943495,-0.11659456619522,-0.731490394978756,10.7376791986306,-2.22918379509288,7.92240373258567,-9.01616639780593,-50.1928519825643,0.0515472009129494,10.5169340011412,0.40616040068473,5.31524851422146,-6.50330765263033,-26.4575961578349,-2.32316899299622,9.41482257843018,-1.197509765625,-4.19999980926514,1.29499995708466,1.08500003814697,953,-0.166584432125092,0.0794912129640579
15.06,-27.7234477654125,-34.8329346322744,-39.4662522869956,-0.106268073473764,-1.56614842012274,-1.3148139076303,-1.43447361040647,-71.0594456283955,-3.49699446557176,-45.2082397493113,0.0632680851599695,0.828671143634618,0.0807574537755994,-0.457923270041656,2.02459303873708,10.3624190705636,0.155067266848395,-2.92960481773434,-13.5575159300978,104.169601279887,-7.66447448170926,1.54482216445825,-0.559272681164029,-5.55250987583876,27.8628210577068,18.0066985855654,6.25916538675669,9.93493130985667,5.26515679067705,56.3046262196564,-45.4740459530414,53.2165092629999,5.09644328916503,0,0,-4.3125878924413,30.0957905296471,29.2780541773533,0.100017254560852,1.49692409275723,1.80394563304594,1.84333462683748,-1.83805249644121,5.81338203107064,9.57187530706337,-0.131767933812716,-0.299307269286526,-0.223856132238176,-0.167659329620479,-0.497478349077534,10.6738577315666,-2.00049020478031,9.26843261613647,-13.7469654738955,-50.5310007020905,0.0940948456222543,10.5701185570278,0.438071134216716,5.1149856803273,-6.42451571798347,-25.7583177378439,-2.32316899299622,9.41482257843018,-1.197509765625,-4.19999980926514,1.29499995708466,1.08500003814697,953,-0.166584432125092,0.0794912129640579
15.065,-28.0663707222126,-34.2605429098721,-36.681349368928,-0.10630258547683,-1.61649803220757,-1.35455621075919,-1.44607937322599,-71.1175685588963,4.89808806051942,-34.5317044456479,0.0617246694678491,0.854648556343889,0.223362204382417,-0.265272353339018,1.61773118620428,10.1018147467191,-0.0390563621378517,-4.0261259082367,-16.9291541335287,99.1170684706559,-7.2044280732898,1.46504533062829,-0.681597159703315,-7.50917625290286,28.906814191778,34.3034970683611,5.51655142055607,4.73790676395313,3.41435376316458,51.6509765651603,-51.8867742254158,74.7535950133292,3.50090661256578,0,0,-4.01616267139288,28.7602093368344,30.254360633423,0.0996007149073975,1.49097035329645,1.79927006797196,1.84487560181946,-1.78574520655972,6.57657131127834,7.82831551062291,-0.136221169270934,-0.330085764028235,-0.277625136532856,-0.218777088116061,-0.263466303176311,10.6100362645026,-1.77179661446775,10.6144614996873,-18.477764549985,-50.8691494216167,0.136642490331559,10.6233031129145,0.469981867748702,4.91472284643315,-6.34572378333661,-25.0590393178529,-2.32316899299622,9.41482257843018,-1.197509765625,-4.19999980926514,1.29499995708466,1.08500003814697,953,-0.166584432125092,0.0794912129640579
15.07,-28.3910301810885,-33.4088213210497,-35.1031889535712,-0.107882075091498,-1.68956737726672,-1.38020756931275,-1.44599656731241,-71.0211731964721,11.5658014924671,-24.7216005207814,0.0596379101582621,0.881093131894901,0.294481011056294,-0.14509354007972,1.37385797244864,9.89449167990416,-0.133718653160087,-3.96796669068226,-18.2628614352571,95.9605647808169,-7.13493034035572,1.35757662560871,-0.656309210697659,-8.44491720090878,27.7243977699912,48.8531129108328,5.43774871939666,2.80125902624684,2.7498594854484,46.9314660793301,-50.4972272729728,78.0204358699778,2.4380224473321,0,0,-3.78389338803904,26.3248430982809,30.223046535421,0.0966774858306642,1.51936808610061,1.75992533676711,1.81171245934424,-1.69971966865532,8.16021590129661,7.09575022635627,-0.14302850622943,-0.399749211157925,-0.284624580548546,-0.223061736339125,-0.229338428686747,10.3839415640218,-1.61570336709981,10.9468431088311,-20.254358731013,-50.5382149899003,0.269888544569137,10.5538301085909,0.465013931928867,4.62058536927246,-7.44263009483102,-25.7368201252475,-2.32496360000144,9.41347664550724,-1.21410979109938,-3.64270544306524,1.34745121230521,0.567044040786795,950.752089789328,-0.164278105093782,0.0796738455013791
15.075,-28.7073541835889,-32.4292093060022,-34.0771668907154,-0.110168710885663,-1.77303915446932,-1.39941219625267,-1.44238371315295,-70.8540580984547,17.4434731921281,-15.307324363627,0.0573023525490497,0.907753335771872,0.332890264936134,-0.0598557932455169,1.20455717299029,9.71153759016692,-0.18287049816411,-3.38138088610733,-18.6640321866618,93.6715316698607,-7.2441566625869,1.2374276711544,-0.563466836801138,-8.91351160801174,25.5230154114428,62.6041674904942,5.66272405162366,2.35654040909612,2.62821585862408,42.1814873079649,-45.5369866646496,72.9263936002529,1.61882503059816,0,0,-3.58096798627955,23.3860070531385,29.7306074605575,0.0926069038386641,1.5634882413087,1.70471203431484,1.76256406138955,-1.59825748860726,10.1194399313915,6.82580086638714,-0.150913636446755,-0.487212629787553,-0.270221106274608,-0.205781627931977,-0.286682247858117,10.083569177886,-1.49282375458972,10.8153669802194,-20.6791277619121,-49.9010614435517,0.444650660139056,10.428219838025,0.443168667482617,4.28346709078112,-9.07765374551398,-27.0448390457939,-2.32757960737709,9.41151467252748,-1.23830772911626,-2.83033473006431,1.42390966260655,-0.187982940282062,947.475300122393,-0.160916160942769,0.0799400698409008
15.08,-29.0236631029307,-31.4496440014266,-33.0511937512842,-0.112455237647032,-1.85650695151852,-1.41861590746557,-1.44208002781244,-70.6869509689237,23.3208646289769,-5.89349710386702,0.0549669063053538,0.934412268420353,0.371297687361946,0.021982891523723,1.03526444623839,9.52859222416084,-0.232019999479166,-2.79482305148304,-19.0651838091922,91.3826077060108,-7.35337777662039,1.11728444571756,-0.470628889872663,-9.38208367130356,23.3217380205827,76.3545663837844,5.88768865643639,1.91184299729621,2.50657803208712,37.4317350280536,-40.5769825736165,67.8325942278324,0.799666675346996,0,0,-3.37805226053578,20.4473111394116,29.2381918664815,0.0885365159426964,1.60760629275199,1.64950136457774,1.71320792797717,-1.49680014654224,12.0785705405428,6.55586437831196,-0.158798390680378,-0.574671877931837,-0.255818318796125,-0.188266028931913,-0.344023332725693,9.7832111142939,-1.36995000130205,10.6838971207347,-21.103876538709,-49.2639382783563,0.61940444259265,10.3026155568865,0.421324444675908,3.94636488697406,-10.7125994339782,-28.3527955965653,-2.33019549001465,9.40955279309974,-1.26250451331194,-2.01800275303101,1.50036446716831,-0.94297391968293,944.198666701388,-0.157554377098077,0.0802062814861473
15.085,-29.3398258570867,-30.488816050336,-32.040633373706,-0.114706847817282,-1.9396960650124,-1.43893092925395,-1.446468922082,-70.5136547333604,29.2275383698466,3.46649754499879,0.052730449293827,0.960371746437648,0.409575343595307,0.0992292863915303,0.868216106014275,9.3455402650357,-0.282420998980605,-2.17274826644518,-19.4443626433093,89.0484923421553,-7.45515800203872,0.997387869520897,-0.380191131498467,-9.88072136016409,21.1621424346535,90.0082367450699,6.11177110684149,1.50496399569706,2.38313484194933,32.3082218957604,-35.4930599845878,62.9311333888654,0,0,0,-3.1760658357875,17.5739696300479,28.7157066787948,0.08454393753152,1.65051041748454,1.59482029053049,1.66406786573585,-1.39594662945327,13.9316588330342,6.30718091205802,-0.166725523676568,-0.662559882623551,-0.24187026079839,-0.170923060728949,-0.400318552497429,9.48649592252804,-1.25286697247706,10.5292061514454,-21.4813933879513,-48.601939945382,0.792803261977594,10.173628950051,0.399426605504565,3.61342985867279,-12.3319238368508,-29.6249103333711,-2.34074473447877,9.40638637251081,-1.28441655602416,-1.21050588535971,1.57544602075483,-1.68780460233718,940.834352701325,-0.154145264437956,0.0805620437110114
15.09,-29.649371698362,-30.2970919562407,-31.663154238188,-0.11552432986046,-2.01130838079025,-1.50470682120104,-1.5000515963627,-70.0872983328793,36.3213334190736,10.6036497841173,0.0545514803182599,0.957640835079594,0.442463297532467,0.165678260476299,0.793396024464828,9.15849006116209,-0.383962538226287,-0.0977116132442437,-18.9231292709631,84.868728527202,-7.25207492354738,0.887829892966354,-0.388207568807343,-11.6093687469325,20.7134858609884,99.6741467512364,6.29928646228,2.64733573936085,2.18601973091882,11.891691449804,-25.3455862588018,65.9145843852915,0,0,0,-3.01253268384788,17.3822455359526,26.9630970206852,0.0837451758224632,1.64362571872334,1.56193234455695,1.63629760118043,-1.32001782921841,11.4392443356164,6.92917853818521,-0.176371958461355,-0.767827119383875,-0.246568542776419,-0.171929931757241,-0.413679281345546,9.33952790519878,-1.37311353211009,9.42405944425566,-19.924291161702,-46.9227767395326,0.910377675840998,9.90641437308869,0.375377293577966,3.45178153433759,-13.3084116736512,-29.4269736096953,-2.67609644708101,9.35390755145922,-1.21273831935195,-0.602592729141406,1.5941510233037,-2.0151424336324,933.886773700306,-0.148805138984245,0.0845836533432889
15.095,-29.9589323002993,-30.1053587198014,-31.2856571026158,-0.116341850885185,-2.08292411139408,-1.57048584966485,-1.55740865092703,-69.6609216016367,43.4154667351953,17.7411423576137,0.0563725981783719,0.95490979349831,0.475352819728362,0.225914490434439,0.71857237512741,8.97143093781855,-0.48550891946993,1.97742398786825,-18.4018710436566,80.6887654006368,-7.04898216106013,0.778266692150853,-0.396224388379216,-13.3380985640755,20.2648078931803,109.340517675338,6.48681075936914,3.78976195690495,1.9888952204743,-8.52581255632803,-15.1976286517644,68.8981776472747,0,0,0,-2.84899173384656,17.1905122995134,25.2104037895626,0.0829463760245356,1.63674069166597,1.52904283032505,1.60798908697603,-1.24408540832645,8.94671098766706,7.55120582420588,-0.186018853235403,-0.873099375801667,-0.251267048791545,-0.172659308344448,-0.427040647298658,9.19255287971458,-1.49336582568807,8.31886003825775,-18.3671146851915,-45.2435334629567,1.02795769622836,9.63918705402651,0.351326834862376,3.2901255018185,-14.2849460741748,-29.2290274474271,-3.01146415089552,9.30142622796038,-1.14105666471032,0.00534941535386091,1.6128569177987,-2.34249587399879,926.938863404689,-0.143464758887196,0.0886054547456123
15.1,-30.2684781415747,-29.9136346257061,-30.9081779670978,-0.117159332928362,-2.15453642717192,-1.63626174161194,-1.61846812970692,-69.2345652011556,50.5092617844223,24.8782945967322,0.0581936292028048,0.952178882140256,0.508240773665522,0.279284033631541,0.643752293577962,8.78438073394494,-0.587050458715611,4.05246064106918,-17.8806376713105,76.5090015856835,-6.84589908256879,0.66870871559631,-0.404240825688093,-15.0667459508438,19.8161513195152,119.006427681504,6.67432611480765,4.93213370056874,1.7917801094438,-28.9423430022843,-5.05015492597851,71.8816286437008,0,0,0,-2.68545858190694,16.998788205418,23.457794131453,0.0821476143154788,1.62985599290477,1.4961548843515,1.57903189051828,-1.16815660809159,6.45429649024928,8.17320345033307,-0.195665288020189,-0.97836661256199,-0.255965330769573,-0.17316293498815,-0.440401376146775,9.04558486238532,-1.61361238532109,7.21371333106806,-16.8100124589421,-43.5643702571073,1.14553211009176,9.37197247706423,0.327277522935777,3.1284771774833,-15.2614339109752,-29.0310907237513,-3.34681586349776,9.24894740690879,-1.06937842803811,0.613262571572164,1.63156192034756,-2.66983370529402,919.99128440367,-0.138124633433485,0.0926270643778897
15.105,-30.5759444689024,-30.0444495285182,-30.625486937679,-0.117720181713493,-2.20171745991084,-1.70260143050964,-1.68363903085557,-68.7450090002051,57.5928859102189,31.803450187466,0.0590716983809324,0.937166771719346,0.538449169470713,0.322629505217461,0.63940693326571,8.61107332530576,-0.622570505101742,5.38609841647633,-17.2640363539914,72.5311576020324,-6.72919500602065,0.658870270612816,-0.432457696938991,-16.5128868733956,19.7923389346209,128.515230823277,6.60052819270448,6.08828645000606,1.57181935362795,-46.1200224468498,3.927321690239,77.5647085614225,0,0,0,-2.51888732240246,16.5387855332994,21.7600033849799,0.0817760155158866,1.60286420434705,1.49424483597645,1.58029204076942,-1.11524464313322,4.28771958908916,8.50448910604189,-0.206072395251711,-1.07845555017167,-0.285006613745059,-0.19786848021501,-0.412570505101706,8.96021192724507,-1.7411724443881,6.35875687251144,-16.3863451892224,-41.982805557316,1.26817808479627,9.20320628683694,0.304759870714243,3.05208563655868,-16.4500084891703,-29.0358343133044,-3.51709969159322,9.22254075043645,-1.03760506425779,0.827294464810613,1.60045887985582,-2.77661681031386,908.262690918309,-0.132039970332161,0.0962305174941829
15.11,-30.8780539686881,-30.9980280128584,-30.5846449257885,-0.117626273046114,-2.18656715311416,-1.77036811317114,-1.75354798018741,-68.0943152039833,64.6493649705688,38.1866371598195,0.0575441561053499,0.890828292695225,0.561816991078128,0.351495603413195,0.814840864440062,8.47285265225932,-0.489666011787844,4.82822770380071,-16.4042591379854,69.069077591016,-6.83286051080549,0.903414538310393,-0.512200392927318,-17.2381187998739,20.8522932887045,137.6216498096,5.86014170955815,7.279398305477,1.29361739842503,-55.0325974440059,9.91865642881112,90.1334854395778,0,0,0,-2.34459416020362,15.3944914534893,20.2023412388221,0.0824941573178511,1.5245845012811,1.57135864728092,1.65971204050537,-1.12105678116175,2.95270987420045,8.09412257211665,-0.218418189238275,-1.16531788027352,-0.376141125935703,-0.284640420125712,-0.279666011787808,9.03198035363457,-1.88736738703339,6.1421717722962,-18.8541026947052,-40.6504790317495,1.40374066797644,9.28560707269156,0.286153241650299,3.19319411094133,-18.1794076984647,-29.5576075092775,-3.26627227149918,9.2626477475719,-1.10763301919626,0.0365127549424388,1.44230252520743,-2.32075442106176,884.339882121807,-0.124057047912203,0.0987666577891189
15.115,-31.1801778745346,-31.9516519684915,-30.5438009663509,-0.117532359900711,-2.17141612387665,-1.83813802728001,-1.8264708337313,-67.4435903794941,71.7061805184044,44.570128513794,0.0560165409890694,0.84448760402545,0.585185926977737,0.372626139103686,0.990283161163562,8.33462538817414,-0.356755180936713,4.27033038911696,-15.5444409235904,65.6068324910668,-6.93653095886936,1.14797046707648,-0.591946891437985,-17.9633853089628,21.9122981866037,146.728503034585,5.11971992115775,8.4705669589955,1.0154021771902,-63.9455974363935,15.9102768635703,102.702861658579,0,0,0,-2.17029268685309,14.2501428081325,18.6446048157035,0.0832123333643343,1.44630106545548,1.64847613574963,1.73817865492478,-1.12686919634149,1.61763649950939,7.68373646990501,-0.230764571932768,-1.25218435239674,-0.467279983866282,-0.37153032009516,-0.146755180936677,9.10375220229417,-2.03356930096964,5.92557634424252,-21.3219778749533,-39.3180889743283,1.53930971544459,9.36801178781926,0.267545725331143,3.33430931406721,-19.9088893739843,-30.0794055859523,-3.01543289072516,9.30275665720543,-1.17766431341063,-0.754306663271063,1.28413862888936,-1.86487029405803,860.415932568604,-0.116073744827403,0.101302919019647
15.12,-31.4822873743203,-32.9052304528317,-30.5029589544604,-0.117438451233332,-2.15626581707998,-1.90590470994151,-1.90205232869477,-66.7928965832723,78.7626595787543,50.9533154861475,0.0544889987134868,0.79814912500133,0.608553748585152,0.386125739884391,1.16571709233791,8.1964047151277,-0.223850687622815,3.71245967644135,-14.6846637075845,62.1447524800504,-7.0401964636542,1.39251473477406,-0.671689587426311,-18.6886172354411,22.9722525406874,155.834922020908,4.37933343801142,9.66167881446643,0.737200221987277,-72.8581724335496,21.9016116021424,115.271638536734,0,0,0,-1.99599952465425,13.1058487283223,17.0869426695457,0.0839304751662988,1.36802136238953,1.7255899470541,1.81560533244361,-1.13268133437002,0.282626784620678,7.27336993597976,-0.243110365919332,-1.33904668249859,-0.558414496056926,-0.458691529007911,-0.0138506876227784,9.17552062868367,-2.17976424361493,5.70899124402728,-23.7897353804361,-37.9857624487618,1.67487229862476,9.45041257367388,0.248939096267199,3.47541778844986,-21.6382885832787,-30.6011787819253,-2.76460547063112,9.34286365434088,-1.2476922683491,-1.54508837313924,1.12598227424097,-1.40900790480593,836.493123772102,-0.108090822407445,0.103839059314583
15.125,-31.7609522274102,-31.9340631699702,-30.4120587151004,-0.115543759065433,-2.09946721416749,-1.98399447892676,-1.99023690818237,-66.0535901162471,83.9632057551732,57.0656896031951,0.0536053691847135,0.750808343809348,0.639627932841885,0.400018175473944,1.19023801689152,8.12070369151646,-0.137423250825709,2.92962242260461,-14.6519829926246,59.135402246034,-6.95055537274686,1.6613970238748,-0.728592616967068,-19.082944733252,25.2899168002374,163.728373545975,4.02363300323486,10.2339191436768,0.603544950485229,-77.1399993896484,24.7800006866455,121.309997558594,0,0,0,-1.86001609915916,11.6985265857615,15.7613536852753,0.0834467011851907,1.30146998299865,1.76613991038507,1.8553697616155,-1.17030601425686,-1.78803613679904,6.1935565098779,-0.250978106700085,-1.4150930444169,-0.647730762705908,-0.544488325872655,0.0672645728980157,9.17945498641121,-2.17562953213167,5.46229650122259,-25.0818800796173,-36.4275250880453,1.81968264414464,9.47140738303293,0.230703691516469,3.64158351128966,-21.7329731024497,-31.8519838051076,-2.64410161972046,9.36213207244873,-1.28133547306061,-1.92499995231628,1.04999995231628,-1.19000005722046,825,-0.104255624115467,0.10505748540163
15.13,-32.0179153754149,-29.1834297553961,-30.2748846626253,-0.111984296862149,-2.00416720859702,-2.07162146044233,-2.08983847278812,-65.2324231966315,87.4473415111293,62.9271183323996,0.0533171608318262,0.702545212102545,0.67782430939995,0.414245394925676,1.0752275967972,8.10281318172401,-0.0939748699011803,1.93886050464523,-15.3840109065309,56.5449069127708,-6.68219772586011,1.95275675478043,-0.764373636551981,-19.171292929758,28.7702046840246,170.499631749608,4.02363300323486,10.2339191436768,0.603544950485229,-77.1399993896484,24.7800006866455,121.309997558594,0,0,0,-1.75946504777766,10.0481466832603,14.6504533946821,0.081851720657283,1.24576832485267,1.77288044742473,1.86018409762771,-1.23734004851119,-4.53866926955017,4.49489407714546,-0.254704867964518,-1.48113234697842,-0.735357744221469,-0.629237859437868,0.10048980536971,9.12067188280745,-2.03250545379206,5.18778603350773,-25.2869741072204,-34.6605611579267,1.97302987093707,9.43562636344803,0.212813181724019,3.83090107523095,-20.3162466656225,-33.776712371844,-2.64410161972046,9.36213207244873,-1.28133547306061,-1.92499995231628,1.04999995231628,-1.19000005722046,825,-0.104255624115467,0.10505748540163
15.135,-32.2748907766811,-26.4326651771475,-30.1377040690194,-0.108424664926272,-1.9088626586555,-2.15925262044158,-2.19091900978616,-64.411217119755,90.9316434077443,68.7888265632364,0.0530289387357531,0.65427977897322,0.716022507348342,0.422418366456045,0.960211692442697,8.08492181882442,-0.0505244171450308,0.948051342304653,-16.1160737271137,53.9542880520013,-6.41382728236628,2.24413037914517,-0.800156362351171,-19.2596453391387,32.2506585249853,177.27121284,4.02363300323486,10.2339191436768,0.603544950485229,-77.1399993896484,24.7800006866455,121.309997558594,0,0,0,-1.65890920162951,8.3976880825615,13.5395001309216,0.0802566640728912,1.19006401057879,1.77962130588621,1.86383799391754,-1.30437727927662,-7.2894335659622,2.79615064386786,-0.258431806939182,-1.54717479861736,-0.822988904220723,-0.714825155778013,0.133716622183231,9.06188597613738,-1.88937455059535,4.91326247578916,-25.4920779147112,-32.8935129703129,2.1263844100764,9.39984363764885,0.194921818824432,4.020227666761,-18.8994526723393,-35.7015327190661,-2.64410161972046,9.36213207244873,-1.28133547306061,-1.92499995231628,1.04999995231628,-1.19000005722046,825,-0.104255624115467,0.10505748540163
15.14,-32.5318539246858,-23.6820317625734,-30.0005300165443,-0.104865202722988,-1.81356265308503,-2.24687960195714,-2.29307247647201,-63.5900502001394,94.4157791637005,74.650255292441,0.0527407303828659,0.606016647266416,0.754218883906408,0.425459778770917,0.845201272348371,8.06703130903197,-0.00707603622050233,-0.0427105756547308,-16.84810164102,51.3637927187381,-6.14546963547952,2.5354901100508,-0.835937381936084,-19.3479935356446,35.7309464087725,184.042471043633,4.02363300323486,10.2339191436768,0.603544950485229,-77.1399993896484,24.7800006866455,121.309997558594,0,0,0,-1.55835815024801,6.7473081800603,12.4285998403284,0.0786616835449835,1.1343623524328,1.78636184292586,1.86633454380781,-1.37141131353096,-10.0400666987133,1.09748821113542,-0.262158568203615,-1.61321410117887,-0.910615885736284,-0.801429821452909,0.166941854654925,9.00310287253362,-1.74625047225574,4.6387520080743,-25.6971719423143,-31.1265490401943,2.27973163686883,9.36406261806395,0.177031309031982,4.20954523070228,-17.482726235512,-37.6262612858025,-2.64410161972046,9.36213207244873,-1.28133547306061,-1.92499995231628,1.04999995231628,-1.19000005722046,825,-0.104255624115467,0.10505748540163
15.145,-32.755385601478,-21.0789205613536,-29.1563405248225,-0.0998184558220561,-1.71866357015752,-2.28131866455078,-2.34273490067682,-62.6214965966703,98.0682010586157,79.777393475098,0.0486012524242813,0.575564845724445,0.733264180672644,0.365325348724455,0.853034090368049,8.0509084416512,0.0766714278912442,-0.79127144094054,-15.7458790425589,48.5629104719314,-6.00817954577919,2.76819025853448,-0.883335713945645,-18.6980431366948,36.8013255601934,190.897792966672,3.45386794612322,10.2096043475576,0.834354230303347,-73.9102234943239,18.1772563202191,134.93975832076,0,0,0,-1.52546328017674,4.90277308864729,11.1749308154996,0.0730453317722284,1.12120769413945,1.71974198972476,1.79434216985059,-1.51036099108471,-12.5344593894429,-0.995464673863794,-0.264153849720424,-1.68589479934389,-1.00766348731391,-0.898653876510779,0.161816883302391,8.92848116935677,-1.6854542208256,4.19039843220518,-23.4281898588267,-29.0459167208917,2.3657594153216,9.30454220825598,0.165454220825608,4.04637285796326,-14.0113893194564,-39.0037854674494,-2.64410161972046,9.36213207244873,-1.28133547306061,-1.92499995231628,1.04999995231628,-1.19000005722046,825,-0.104255624115467,0.10505748540163
15.15,-32.9572546139017,-18.5715266573584,-27.8544623401879,-0.0938091673868656,-1.62403151814173,-2.28131866455078,-2.35830040601937,-61.557594014826,101.829292390719,84.42871470388,0.0419686067820988,0.556647328158913,0.674013935809577,0.264131454451854,0.940400776079605,8.03593129552921,0.186503832785783,-1.38296116427813,-13.4561630819348,45.6260338764068,-5.95575953435224,2.96289315812026,-0.938251916392907,-17.5701346015825,36.3113325080544,197.807003173562,2.51525498361824,10.1695489202665,1.21458214916162,-68.5895926772893,7.30010375868495,157.392995786855,0,0,0,-1.53637478412188,2.93267770407484,9.82892508693608,0.0648257965392801,1.13560099558244,1.60563040702552,1.67378291338875,-1.69586131925874,-14.8627540349381,-3.34353530864288,-0.265027933172707,-1.76286973960362,-1.11080281732437,-1.00332776262253,0.131862591058425,8.84361067466553,-1.67796564776461,3.62952588195809,-19.5575529186601,-26.7623641948857,2.40819466266722,9.22965647764607,0.157965647764609,3.65499475971393,-9.21007375195665,-40.026915614054,-2.64410161972046,9.36213207244873,-1.28133547306061,-1.92499995231628,1.04999995231628,-1.19000005722046,825,-0.104255624115467,0.10505748540163
15.155,-33.1591332524287,-16.0640131885402,-26.5525220756246,-0.0877995923993678,-1.52939495360617,-2.28131866455078,-2.3738846273265,-60.4936407008955,105.59056307008,89.0802577304414,0.0353356448628842,0.537728908513483,0.614760865604617,0.161558264390355,1.02777162786268,8.02095343522354,0.296341475027366,-1.97467910227993,-11.1663379364383,42.6890172362208,-5.90333702328238,3.15760534209398,-0.993170737513692,-16.4421722822666,35.8213160906467,204.716542845437,1.57659726344971,10.1294915829364,1.59482819914948,-63.2687081465158,-3.57756747876168,179.847303933293,0,0,0,-1.54728680838099,0.962488375704543,8.48285517422639,0.0566058693586311,1.14999498336854,1.49151338292707,1.55222066079963,-1.88137049299703,-17.1911597049265,-5.69171791093114,-0.26590205830557,-1.83984835040555,-1.21394706552329,-1.10949913467202,0.101906870447083,8.75873613293339,-1.67047671761179,3.06862658656054,-15.6867314075649,-24.47870277791,2.45063193353329,9.15476717611771,0.150476717611766,3.26359799863982,-4.40852923421285,-41.0500945485154,-2.64410161972046,9.36213207244873,-1.28133547306061,-1.92499995231628,1.04999995231628,-1.19000005722046,825,-0.104255624115467,0.10505748540163
15.16,-33.3610022648524,-13.556619284545,-25.25064389099,-0.0817903039641773,-1.43476290159038,-2.28131866455078,-2.38919899703894,-59.4297381190512,109.351654402183,93.7315789592234,0.0287029992207018,0.518811390947951,0.555510620741551,0.0590900711323859,1.11513831357423,8.00597628910156,0.406173879921905,-2.56636882561752,-8.87662197581418,39.7521406406963,-5.85091701185544,3.35230824167976,-1.04808693996095,-15.3142637471543,35.3313230385077,211.625753052327,0.637984300944735,10.0894361556453,1.97505611800775,-57.9480773294812,-14.4547200402958,202.300541399388,0,0,0,-1.55819831232613,-1.00760700886791,7.13684944566284,0.0483863341256828,1.16438828481153,1.37740180022784,1.42976666269734,-2.06687082117106,-19.5194543504218,-8.03978854571023,-0.266776141757853,-1.91682329066529,-1.31708639553375,-1.21726111773191,0.0719525782031166,8.67386563824215,-1.6629881445508,2.50775403631345,-11.8160944673982,-22.195150251904,2.49306718087891,9.0798814455078,0.142988144550768,2.87221990039048,0.392786333286913,-42.07322469512,-2.64410161972046,9.36213207244873,-1.28133547306061,-1.92499995231628,1.04999995231628,-1.19000005722046,825,-0.104255624115467,0.10505748540163
15.165,-33.4415534973145,-12.5561008453369,-23.4879086023019,-0.0764870726221505,-1.37640701507089,-2.28131866455078,-2.40399121297276,-59.005212020874,110.852432250977,97.4857365532711,0.0222848028498026,0.513822466333326,0.531868159770966,-0.00613919564164443,1.25401261254601,7.94566505314759,0.422056313047322,-3.11870427621331,-6.67310690540851,35.6613007387579,-5.78342718841221,3.44707669758219,-1.07465728115878,-14.6744564466177,34.9000635462841,216.203463827506,0.263452172279358,10.0734529495239,2.1267774105072,-55.8250007629395,-18.7950000762939,211.259994506836,0,0,0,-1.56255229949952,-1.79372870922089,5.70881217529969,0.0419749867489563,1.1870172431696,1.33186817169189,1.37511441304591,-2.14089050292969,-20.44850730896,-10.3033892502538,-0.266628057608148,-2.00946339502607,-1.35824179649353,-1.26470006555299,0.114334946852412,8.71451649854043,-1.65534271884124,2.32419872606351,-8.76517572395092,-20.0880068135484,2.36407185702496,9.09346795748193,0.129133010629506,2.7179659593246,5.57640509288723,-43.2155303225563,-2.7809274492251,9.32569465334856,-1.26162959140792,-2.47921639984726,0.963064046235493,-0.472778739522071,821.42941777827,-0.100803921908663,0.105999422754524
15.17,-33.4415534973145,-12.5561008453369,-21.4193426637065,-0.0716530247922574,-1.3421400930674,-2.28131866455078,-2.41804470314808,-59.005212020874,110.852432250977,100.643954806391,0.0160094920468555,0.51808135628057,0.531868159770966,-0.0445606307804443,1.42707263299214,7.85526056485484,0.375562576211049,-3.64486796468962,-4.52699683059299,30.8046504505795,-5.70593762701842,3.47548953675992,-1.08240623729816,-14.3587582335319,34.5078324330563,219.232891124794,0.263452172279358,10.0734529495239,2.1267774105072,-55.8250007629395,-18.7950000762939,211.259994506836,0,0,0,-1.56255229949952,-1.79372870922089,4.22642613434716,0.0367646332891007,1.21511219233274,1.33186817169189,1.36535841573637,-2.14089050292969,-20.44850730896,-12.5107294044232,-0.265801351559897,-2.11249650582079,-1.35824179649353,-1.27266695251999,0.204739435145167,8.83849979677049,-1.64759376270186,2.39116501368776,-6.2587232443001,-18.0981514098562,2.12127123132443,9.16579154811612,0.111052112970958,2.72115483016386,11.0134298738092,-44.4368678539892,-3.00858331010591,9.26506873174037,-1.22884221881678,-3.40134216319001,0.818416879747056,0.720560537965465,815.488551404747,-0.0950608524879312,0.107566652858263
15.175,-33.4415534973145,-12.5561008453369,-19.3506780857549,-0.0668187464512858,-1.30787153704922,-2.28131866455078,-2.43117646053796,-59.005212020874,110.852432250977,103.802323658827,0.00973388200635169,0.522340449312547,0.531868159770966,-0.0783247533086604,1.60014090578772,7.76485176563326,0.329066622325669,-4.17105674322785,-2.38078441873703,25.9477685735266,-5.62844437054278,3.50390373080099,-1.09015556294573,-14.043044966409,34.1155826163278,222.262462880014,0.263452172279358,10.0734529495239,2.1267774105072,-55.8250007629395,-18.7950000762939,211.259994506836,0,0,0,-1.56255229949952,-1.79372870922089,2.74396940596718,0.0315540313740709,1.24320848120066,1.33186817169189,1.35511846434338,-2.14089050292969,-20.44850730896,-14.7181748153832,-0.264974606090252,-2.2155345297389,-1.35824179649353,-1.2822924247347,0.295148234366742,8.96248900713151,-1.63984443705429,2.45813449459262,-3.75215124471797,-16.1082011201116,1.87845902770079,9.23811858749337,0.092970353126646,2.72434385306409,16.4507139187043,-45.658263624778,-3.23625002673328,9.20443991919127,-1.19605328276313,-4.32351189800591,0.67376281577321,1.91395671971496,809.547401741615,-0.0893175092095192,0.109133957695211
15.18,-33.4415534973145,-12.5561008453369,-17.2821121471595,-0.0619846986213928,-1.27360461504573,-2.28131866455078,-2.44323364075181,-59.005212020874,110.852432250977,106.960541911947,0.00345857120340463,0.526599339259791,0.531868159770966,-0.106029730404443,1.77320092623384,7.67444727734051,0.282572885489396,-4.69722043170416,-0.234674343921501,21.0911182853482,-5.550954809149,3.53231656997871,-1.09790451908512,-13.7273467533232,33.7233515031,225.291890177302,0.263452172279358,10.0734529495239,2.1267774105072,-55.8250007629395,-18.7950000762939,211.259994506836,0,0,0,-1.56255229949952,-1.79372870922089,1.26158336501464,0.0263436779142153,1.2713034303638,1.33186817169189,1.34455895385904,-2.14089050292969,-20.44850730896,-16.9255149695526,-0.264147900042002,-2.31856764053361,-1.35824179649353,-1.29350157912414,0.385552722659497,9.08647230536157,-1.6320954809149,2.52510078221687,-1.24569876506715,-14.1183457164194,1.63565840200026,9.31044217812756,0.074889455468098,2.72753272390334,21.8877386996262,-46.8796011562109,-3.4639058876141,9.14381399758308,-1.163265910172,-5.24563766134866,0.529115649284773,3.10729599720249,803.606535368092,-0.0835744397887878,0.11070118779895
15.185,-33.4813872651867,-10.08612029065,-15.3309019933272,-0.0554209688510256,-1.28744450344485,-2.19408733041719,-2.36685803572967,-57.9385320663957,115.211222563502,109.565247018803,-0.00940736370509846,0.530184097351488,0.510505378029771,-0.147772253373448,1.99820116463737,7.63784992059288,0.193049497088389,-5.15950826421974,1.180684469541,15.6152505734957,-5.63935071466382,3.57442522498678,-1.09594997353098,-12.8594701945637,30.9897667784248,231.836148527211,-0.455309881908102,10.4624184995432,1.80668095333069,-56.7818192072556,-27.7111334869128,216.88041972801,0,0,0,-1.56697861703254,-1.50314275557565,0.277600475049615,0.0253848032230961,1.26645335869087,1.28380192635298,1.28578515000415,-2.33121134211236,-20.44850730896,-18.3197755370205,-0.260722828487964,-2.4157400787722,-1.42411035492093,-1.37203661301083,0.373549761778743,9.16252527792483,-1.54494944415034,2.3932088962087,0.0646028991758651,-13.6277472240195,1.19739756484912,9.36442522498675,0.130750397035464,2.56839401603828,25.9555416674836,-47.2948770987327,-3.52546882629395,9.12741947174072,-1.1543995141983,-5.49499988555908,0.490000009536743,3.4300000667572,802,-0.0820213928818703,0.111124999821186
15.19,-33.5359845973752,-6.70069239751262,-13.4232238987839,-0.0482162535858474,-1.31911479432032,-2.07452550181451,-2.25684506407215,-56.4765091917261,121.185508586264,111.964748080093,-0.0247158665716712,0.533518927108675,0.481224921936945,-0.189017823886554,2.24244891476971,7.62119666490204,0.0875788777130597,-5.59811252932833,2.32516747380871,9.90996853126287,-5.7892300158814,3.62160944944415,-1.09039888830069,-11.7869457025404,27.3884145703847,239.683052957669,-1.44046626387133,10.9955461065627,1.36794734769015,-58.0932626693952,-39.9318478119569,224.583939611577,0,0,0,-1.57304545784704,-1.10485711281714,-0.521633369908473,0.0260017435170628,1.24939239814616,1.21792091875558,1.20922319083558,-2.59207067413896,-20.44850730896,-19.4126459177396,-0.256334740972579,-2.51073855868202,-1.51439173570255,-1.47626456325167,0.323589994706215,9.22081167284277,-1.42837665431444,2.18761314693906,0.931531641929555,-13.6928525446216,0.686697723663319,9.41160944944414,0.214016675489676,2.34909188348399,29.5157747256697,-47.4113813566522,-3.52546882629395,9.12741947174072,-1.1543995141983,-5.49499988555908,0.490000009536743,3.4300000667572,802,-0.0820213928818703,0.111124999821186
15.195,-33.5905793262197,-3.3154259304621,-11.5156367673388,-0.0410118818604014,-1.35078357507321,-1.95496937423361,-2.14544255291463,-55.0145560301442,127.159509739389,114.364134726875,-0.0400236394886508,0.536853597852427,0.451945862013111,-0.22096875543339,2.48668501852831,7.60454420328213,-0.0178867125463355,-6.03669588063446,3.46959590612315,4.20495853185107,-5.93910217046055,3.66879142403387,-1.08484806776071,-10.7144723512996,23.7872340842695,247.52958322713,-2.42557567099278,11.5286482926586,0.929234662019367,-59.4046435984687,-52.1519794212693,232.287092171099,0,0,0,-1.57911200937864,-0.706590461363358,-1.32082910529928,0.0266186543936972,1.23233225111283,1.15204305253753,1.13286480498444,-2.85291756770799,-20.44850730896,-20.5054641875308,-0.251946862692722,-2.605732508815,-1.60466881163099,-1.58154288512365,0.2736326098465,9.27909528851243,-1.3118094229751,1.98202720101432,1.79841904724558,-13.7579547608311,0.176022233986248,9.45879142403388,0.297278983589202,2.12980020783092,33.0758380226,-47.5278800593429,-3.52546882629395,9.12741947174072,-1.1543995141983,-5.49499988555908,0.490000009536743,3.4300000667572,802,-0.0820213928818703,0.111124999821186
15.2,-33.6311644779005,-0.0791495868624613,-9.60252430172113,-0.0333821816804208,-1.38383478276243,-1.83370590469691,-2.03086224933937,-53.3977074382244,133.775162544265,117.012827562644,-0.054688732266075,0.536567256433859,0.421234919140258,-0.244416018258856,2.67759307486336,7.60980902077294,-0.102206286909011,-6.47187153815999,4.29233397771952,-1.33544521139837,-6.07064947609091,3.76390651554608,-1.07545366736357,-9.72846570420816,20.7899115293508,254.963235419536,-3.31941029970359,12.0433342279204,0.537198100183425,-60.514765188859,-62.9818491744794,239.29573556869,0,0,0,-1.58228118047204,-0.335446046919535,-2.0049348663598,0.0274183181650224,1.21341352759379,1.09935877612002,1.0700695638774,-3.12332704363545,-20.4252076415947,-21.4601776091279,-0.247318145431051,-2.6935983083674,-1.70464231682572,-1.69730352406027,0.210190979227053,9.33617002286369,-1.22104109354557,1.67417756228804,2.60967856313195,-13.9126371396196,-0.312540683955037,9.49902578586362,0.383638997909259,1.91501875723879,36.1627341598201,-47.6316341854658,-3.49956962340492,9.13247489107157,-1.15595501979842,-5.5211413081287,0.492273175622681,3.5197901397331,802.941740331829,-0.0815529949613014,0.110894180279342
15.205,-33.5751231233759,2.12845982244886,-7.65202896402539,-0.0228222532349745,-1.42640687921604,-1.70071411746721,-1.90301804940472,-50.7132956484591,144.813208421684,121.379759654685,-0.0649163271034106,0.511310217566634,0.380661153544755,-0.267400596744645,2.50067454058613,7.76621526122093,-0.0406694054212779,-6.88338360572198,2.89635842545157,-5.73862433431161,-6.07577754954822,4.18953661250289,-1.03955715316239,-9.33911197874566,21.9579727057383,259.546846756688,-3.58346982449951,12.4308263618965,0.467191628980317,-60.2365674385444,-64.2202784058068,241.512346416088,0,0,0,-1.56546857849417,-0.151478604421802,-1.89511288811513,0.0294779602328034,1.18168502689533,1.13767844362689,1.09880856500604,-3.45957908319278,-20.2412402755112,-21.4621488948274,-0.241030324978995,-2.73227469834396,-1.87144557538501,-1.88037452556585,0.0537847387790677,9.38488672070815,-1.30821834231986,0.661224780596995,3.03701801790786,-14.685013635659,-0.648429495408901,9.49133367567767,0.491328540512792,1.73142106555729,35.9854674230242,-47.6474615726797,-3.29507708432898,9.17239100507274,-1.16823683754695,-5.72754634303366,0.510221430889328,4.22874632210414,810.37744684493,-0.0778546618316894,0.109071696615179
15.21,-33.5190790965249,4.33617450139011,-5.70144061715806,-0.0122618212404153,-1.46898100571573,-1.56771598853767,-1.77357484750785,-48.028755852791,155.851780647196,125.746899983438,-0.0751444096425647,0.486051974320081,0.34008545319337,-0.279930405013993,2.32374756996661,7.92262895988456,0.0208704104463839,-7.29491529619502,1.50031630623153,-10.1420134223731,-6.08090586753718,4.61518700558754,-1.0036589272396,-8.9497396869904,23.126089581004,264.130676662879,-3.84754194094699,12.8183369733956,0.397181819525756,-59.9583564223985,-65.4587666915059,243.729062962348,0,0,0,-1.54865517480909,0.0324976105446975,-1.78528567302061,0.0315377005144068,1.14995501322654,1.1759999384032,1.12822865240765,-3.79584715689438,-20.0572641369626,-21.4641202745275,-0.234742204692861,-2.77095293260023,-2.03825678794071,-2.06360103999644,-0.10262895988457,9.43360574160338,-1.39539974813239,-0.351776303644318,3.46437785032217,-15.457426962393,-0.984334323686542,9.48364119869422,0.5990232182812,1.54781461903855,35.808192233282,-47.663289714621,-3.09057479404713,9.21230902246975,-1.1805192409527,-5.93396122034169,0.528170542016699,4.93773631097857,817.813507928939,-0.0741561523474387,0.107249126046068
15.215,-33.4630377420003,6.54378391070143,-3.75094527946232,-0.00170189279496893,-1.51155310216935,-1.43472420130796,-1.64249543129915,-45.3443440630258,166.889826524615,130.113832075479,-0.0853720044799003,0.460794935452855,0.299511687597866,-0.282126482420586,2.14682903568939,8.07903520033255,0.0824072919341168,-7.70642736375701,0.104340753963574,-14.5451925452863,-6.08603394099449,5.04081710254435,-0.967762413038423,-8.56038596152791,24.2941507573915,268.714288000031,-4.11160146574291,13.2058291073718,0.327175348322648,-59.6801586720839,-66.6971959228333,245.945673809745,0,0,0,-1.53184257283123,0.21646505304243,-1.67546369477593,0.0335973425821878,1.11822651252808,1.21431960591006,1.15846028853264,-4.13209919645172,-19.8732967708791,-21.466091560227,-0.228454384240806,-2.80962932257678,-2.2050600465,-2.2466165398242,-0.259035200332556,9.48232243944783,-1.48257699690668,-1.36472908533536,3.89171730509808,-16.2298034584324,-1.32022313514041,9.47594908850826,0.706712760884733,1.36421692735705,35.6309254964861,-47.6791171018349,-2.88608225497118,9.25222513647093,-1.19280105870122,-6.14036625524664,0.546118797283345,5.64669249334961,825.24921444204,-0.0704578192178267,0.105426642381905
15.22,-33.3919826025952,8.85762427957187,-1.6765006003892,0.00977181387156865,-1.54761436789314,-1.34195299626651,-1.54995168713191,-42.8604476607101,176.639610281127,135.26941316271,-0.0942796630952731,0.425914916152968,0.274501244841514,-0.258797940013975,2.05648971710935,8.18007583552455,0.146905351676127,-8.26246945258757,-0.860519217013912,-19.1588877895506,-6.0912075251197,5.42796120574674,-0.958112876795852,-8.11241824161384,24.5311558907204,273.775374131801,-4.31582546234131,13.5055160522461,0.273032248020172,-59.4650001525879,-67.6549987792969,247.660003662109,0,0,0,-1.50696291964554,0.748620751712774,-1.43952877668675,0.0348216550847353,1.09098254971227,1.23970984709362,1.17669248308834,-4.43570442572344,-19.6010577558961,-21.3777035118669,-0.223813683078354,-2.83805778128997,-2.35742024474789,-2.4146289639645,-0.379396237440134,9.52845267583805,-1.55603762559863,-2.26517373073865,4.17749906963987,-17.2058165190244,-1.5860376255986,9.49716931519381,0.78637742464085,1.20656911881841,35.1114442059147,-47.7509888948011,-2.75713711517949,9.2833854766441,-1.19318989078902,-6.21758658634312,0.610716055829146,6.23726353933585,832.388653887682,-0.0673342573470556,0.103865280062104
15.225,-33.2697098065865,11.5334772915562,0.820468783737743,0.0243612569700886,-1.56145067572244,-1.38644886333029,-1.59295681828469,-41.0613067739519,181.991314272703,143.115072615584,-0.0986813353351719,0.358205054728523,0.302603897723904,-0.172994278266092,2.26160982178015,8.09216721923707,0.221494480647338,-9.31158462638888,-0.35404982276501,-24.4899714783654,-6.09653532004623,5.68369536221943,-1.03802980069357,-7.46453206845127,21.5910023942365,280.464716650647,-4.31582546234131,13.5055160522461,0.273032248020172,-59.4650001525879,-67.6549987792969,247.660003662109,0,0,0,-1.45456072829736,2.46881204288572,-0.773299342203708,0.0331952555041722,1.0790472264676,1.22097474517203,1.1518261939789,-4.6278427454114,-19.0276603915576,-20.9809944765377,-0.224794540607096,-2.83151051401555,-2.46046330531665,-2.53241269444871,-0.376732339976879,9.56574724032366,-1.58267660023119,-2.78150941188851,3.98017333162081,-18.8765077675858,-1.61267660023118,9.61704470104038,0.770394039861306,1.13750511051174,33.4243091458518,-48.0140898788266,-2.88601486916668,9.28466131101953,-1.1529953601031,-5.85396451655575,0.834483435756405,6.42373631095404,838.515618053174,-0.0661726855055315,0.103195289180663
15.23,-33.147431180012,14.2094579013191,3.31755723559556,0.0389513957647173,-1.57528764333467,-1.43094685217497,-1.63422422023728,-39.2620800953438,187.343273459739,150.96110618793,-0.103083217468363,0.29049196456623,0.330707890678436,-0.0786338659724113,2.46673970758226,8.00425441103616,0.29608716639357,-10.3607498271404,0.152443722425395,-29.8213093793632,-6.10186336902811,5.93944171334933,-1.11795053542167,-6.8166150009025,18.6507086968324,287.15437815011,-4.31582546234131,13.5055160522461,0.273032248020172,-59.4650001525879,-67.6549987792969,247.660003662109,0,0,0,-1.40215603815601,4.18908536120527,-0.107038138637908,0.0315687783689107,1.06711133408826,1.20223874986901,1.12806125526016,-4.81999022719558,-18.4542356848243,-20.5842665241786,-0.225775444907929,-2.82496293453535,-2.56351127948327,-2.64895538084503,-0.374068315485945,9.60304358319679,-1.60931684514055,-3.29786971445276,3.78283818414402,-20.5472786828892,-1.63931684514055,9.73692580313252,0.754409892915685,1.06843780889487,31.7370936349253,-48.2772034087956,-3.01489876867644,9.28593720623299,-1.11279891274508,-5.490325107487,1.0582614860084,6.61021797450737,844.642874382328,-0.0650110582745723,0.102525266350775
15.235,-33.0251583840034,16.8853109133034,5.81452661972251,0.0535408388632372,-1.58912395116397,-1.47544271923875,-1.67374302312431,-37.4629392085857,192.694977451315,158.806765640804,-0.107484889708262,0.222782103141785,0.358810543560826,0.0232911584619632,2.67185981225307,7.91634579474868,0.370676295364781,-11.4098650009418,0.658913116674297,-35.152393068178,-6.10719116395463,6.19517586982202,-1.19786745931939,-6.16872882773994,15.7105552003485,293.843720668956,-4.31582546234131,13.5055160522461,0.273032248020172,-59.4650001525879,-67.6549987792969,247.660003662109,0,0,0,-1.34975384680783,5.90927665237822,0.559191295845135,0.0299423787883476,1.05517601084359,1.18350364794741,1.10545208188868,-5.01212854688355,-17.8808383204858,-20.1875574888495,-0.226756302436671,-2.81841566726092,-2.66655434005204,-2.76394110692255,-0.37140441802269,9.6403381476824,-1.63595581977311,-3.81420539560263,3.58551244612496,-22.2179699314505,-1.66595581977313,9.8568011889791,0.738426508136141,0.99937380058821,30.0499585748624,-48.540304392821,-3.14377652266363,9.28721304060841,-1.07260438205917,-5.12670303769963,1.28202886593565,6.79669074612556,850.76983854782,-0.0638494864330482,0.101855275469335
15.24,-32.8595133491854,19.4031973973082,8.30035133297057,0.0688351297339473,-1.57914454404251,-1.51977154012128,-1.71136065521119,-35.6556681881797,196.112585127889,166.135040191824,-0.113506000099722,0.137309521669603,0.372582860591211,0.117305784783673,2.84409825468647,7.80590174531351,0.450358160358182,-12.3278570054169,0.865842971144348,-40.38972816097,-6.05895879719411,6.51873374991021,-1.28391917450742,-5.40951068619912,13.8615444911741,299.31207561636,-4.85881930820708,14.082624556024,0.531167527268167,-55.6428448751656,-69.9441378096002,251.012697904036,0,0,0,-1.2832107466307,7.07166851197316,1.3827764187145,0.0270360415502565,1.04048108869972,1.16214769663828,1.08140604040598,-5.16531448077487,-16.2158756297201,-19.5403998635494,-0.228376592132293,-2.79767099389358,-2.75322821550754,-2.86073796567858,-0.313023773612011,9.70273216979101,-1.60726783020899,-4.01900960869735,3.16494689043708,-23.8930327855528,-1.68949603773134,9.91762599056718,0.629104599104615,0.995202597236029,29.2103187164916,-48.5016943571773,-3.19437972893505,9.26030964508784,-1.04629643395393,-4.86021863206111,1.49970837629918,6.83268222199449,856.967511791041,-0.0623041034958125,0.101087058175236
15.245,-32.6455264600671,21.7447026973853,10.7734994320647,0.0849137593176933,-1.54261243773909,-1.56390963980566,-1.74708895400426,-33.8395146055924,197.373397073689,172.885709282028,-0.12133212129123,0.0320407360560003,0.370375955606992,0.200485734604996,2.97965740142209,7.67034259857789,0.535710215710232,-13.0995585952013,0.73877564109953,-45.5220086135119,-5.95101355071944,6.91788012640953,-1.37680229356701,-4.52623778222906,13.2293070441219,303.418519819028,-6.00717791466646,15.3031310538786,1.07708875973183,-47.5595029708872,-74.7853575155794,258.10319315892,0,0,0,-1.20090772865279,7.61201590732988,2.38172468253548,0.0227029108062769,1.02271079034495,1.13787174181187,1.05562931325137,-5.27505439174347,-13.3340229342863,-18.6140659117978,-0.230709663367581,-2.76109879157406,-2.82164227001833,-2.93723483094841,-0.192526754291458,9.79310493428141,-1.51689506571859,-3.87644626279341,2.49551900532293,-25.5728009046818,-1.70957887428476,9.91260528142881,0.415724460724471,1.06338506701617,29.3156916243336,-48.1266907733865,-3.15770439519519,9.20199008757304,-1.03547420236343,-4.70206626547416,1.71057816848935,6.70088858317203,863.243398213986,-0.0603309401943925,0.100209399271512
15.25,-32.4315293670057,24.0863196519043,13.2467654629742,0.100993155609254,-1.50607858940589,-1.60804984421084,-1.78118347086722,-32.0232744199064,198.634269141178,179.636700277201,-0.12915861567053,-0.0732330692889267,0.368168945386733,0.287432871539615,3.11522301228182,7.53477698771816,0.621066341066351,-13.8712969834974,0.611702251862014,-50.6545337983246,-5.8430631568867,7.31704553616319,-1.46968984174868,-3.6429227594805,12.5970394488913,307.52515983707,-7.15559128048907,16.5236957514613,1.62303602439389,-39.4757756132731,-79.6268080746275,265.194026523349,0,0,0,-1.11860078606385,8.15238906909715,3.38072058110272,0.0183695734373989,1.0049396446153,1.11359462938903,1.03102256573558,-5.38479953564856,-10.452032818,-17.6876877879061,-0.233042845855134,-2.7245248453128,-2.89005958684635,-3.01152834560036,-0.0720239890828059,9.88348200818789,-1.42651799181211,-3.73387611877083,1.82605919860823,-27.2526491233826,-1.72966266848619,9.90758433287844,0.202334147334151,1.13157078807045,29.421069556872,-47.7516693075879,-3.12102731259577,9.14366774909608,-1.02465145471592,-4.54390635740772,1.9214580159841,6.56908865978333,869.519583901937,-0.0583576828028813,0.0993316985167121
15.255,-32.2175424778874,26.4278249519814,15.7199135620684,0.117071785193,-1.46954648310246,-1.65218794389522,-1.81373349250998,-30.2071208373191,199.895081086978,186.387369367405,-0.136984736862038,-0.178501854902529,0.365962040402514,0.376695884966706,3.25078215901744,7.39921784098253,0.7064183964184,-14.6429985732818,0.484634921817196,-55.7868142508665,-5.73511791041204,7.71619191266251,-1.56257296080827,-2.75964985551043,11.964802001839,311.631604039738,-8.30394988694844,17.744202249316,2.16895725685755,-31.3924337089948,-84.4680277806068,272.284521778233,0,0,0,-1.03629776808594,8.69273646445387,4.37966884492371,0.0140364426934192,0.987169346260529,1.08931867456261,1.00754717610426,-5.49453944661716,-7.57018012256618,-16.7613538361545,-0.235375917090422,-2.68795264299328,-2.95847364135714,-3.08350446118597,0.0484730302377475,9.97385477267829,-1.33614522732171,-3.59131277286689,1.15663131349408,-28.9324172425117,-1.74974550503962,9.90256362374008,-0.0110459910459927,1.19975325785059,29.5264424647141,-47.3766657237971,-3.08435197885591,9.08534819158128,-1.01382922312541,-4.38575399082077,2.13232780817427,6.43729502096087,875.795470324882,-0.0563845195014614,0.0984540396129878
15.26,-31.925710727924,29.2830511644865,18.3125434054115,0.130554756852231,-1.4098210258378,-1.67924417240115,-1.82778622825628,-28.2405414318427,199.985654312831,191.350215464446,-0.143540403427351,-0.296935344252244,0.356927135887627,0.459948485895114,3.44208032852563,7.36212640224357,0.714018429487183,-14.8371394230769,0.833826715337126,-60.7078164569484,-5.56048978365385,8.16673076923078,-1.51876101762821,-2.18489583333335,14.3469390531022,312.979572253878,-9.38121176616121,18.2630698678967,2.46709977274235,-26.2485200422697,-89.33277625304,276.82253070978,0,0,0,-0.929671689348346,9.79845829050128,5.47212991802192,0.00955283613753487,0.945171198640139,1.05997733070324,0.980074161377319,-5.55057373046876,-5.08445915163089,-15.3357172211873,-0.236652689923895,-2.64228469554089,-2.97646074061497,-3.10269354454506,0.130560897435907,10.0161448317308,-1.27843449519232,-3.75490537947136,0.905244687796793,-30.0471346747388,-1.90521133814102,9.90128505608973,-0.159836738782056,1.10923527025959,30.4179131054131,-45.7541721074707,-2.84218165369179,9.1232797817733,-1.09232543100818,-4.52988464404375,2.08258063547934,5.98319803440991,880.670572916667,-0.0565885410107559,0.0974684232496656
15.265,-31.5526951375298,32.6739426443401,21.0295709385028,0.141328474027112,-1.32590473881518,-1.68847696629998,-1.82276211452667,-26.1172206845803,198.855357820598,194.447417421106,-0.148770019349263,-0.429091477222083,0.340769746564687,0.53537899166371,3.69151004106569,7.42776580028043,0.640502303685908,-14.4287165019587,1.67984562336775,-65.407921501563,-5.31631122295673,8.67084134615385,-1.33234512720352,-1.93206259645062,19.873614295218,311.449607025562,-10.3841964613097,18.049896568036,2.50671611563004,-24.1716895284465,-94.2215973368058,278.697195763771,0,0,0,-0.797680771509428,11.4939037800337,6.66204254028882,0.00491268131710255,0.877901245506441,1.025354337933,0.948305063261834,-5.55057373046876,-3.01224794559246,-13.3893180106338,-0.236827346617512,-2.5871319886443,-2.94183776349438,-3.06692851466509,0.172570112179488,10.0082681039663,-1.25480431189905,-4.23788169095245,1.09000743782647,-30.5722498590337,-2.20190141726762,9.90391063201121,-0.241229592347762,0.853160581621955,32.1293996320038,-42.8303826245449,-2.38565063115376,9.26162245517406,-1.26399616672335,-4.98936043030176,1.76094757883887,5.19289974714868,884.083821614583,-0.0590639080901616,0.0963702754306723
15.27,-31.1796617599252,36.0649958185087,23.7467280327753,0.1521027049456,-1.24198445025295,-1.69771020046364,-1.81668217524719,-23.9937986869843,197.725007430292,197.544767067526,-0.153999884644878,-0.561253912043667,0.324611586778281,0.608600638229197,3.9409516476362,7.49340832832531,0.566982672275659,-14.020274105235,2.52590487372388,-70.1082506702081,-5.07212101862981,9.17497596153845,-1.14592034755608,-1.67921730324074,25.4005530762801,309.91956884101,-11.3872289836813,17.8367131030283,2.54633434761901,-22.0947599811718,-99.1106515435072,280.571950210975,0,0,0,-0.665683559697029,13.1894301167116,7.85201190341798,0.000272305231360028,0.810628084611876,0.990729694168877,0.917420112419437,-5.55057373046876,-0.939937926373647,-11.4428259862321,-0.237002011639616,-2.53197665179649,-2.90721313538066,-3.02889396289648,0.214581330128198,10.000391000601,-1.23117300180288,-4.72088103310977,1.27477899824907,-31.0973900833927,-2.49860564403044,9.90653633313302,-0.322626327123403,0.597073682088865,33.8409677706553,-39.9064537210153,-1.92909783898041,9.3999717254311,-1.43567508854008,-5.44885812661587,1.43929918515884,4.40256377459408,887.497233072917,-0.0615393932071945,0.0952720752466121
15.275,-30.806646169531,39.4558872983624,26.4637555658665,0.162876422120481,-1.15806816323033,-1.70694299436246,-1.80977635902014,-21.8704779397219,196.594710938059,200.641969024186,-0.15922950056679,-0.693410045013506,0.308454197455341,0.678142987730127,4.19038136017627,7.55904772636216,0.493466546474384,-13.6118511841168,3.37192378175451,-74.8083557148227,-4.82794245793269,9.67908653846152,-0.959504457131391,-1.42638406635802,30.9272283183958,308.389603612694,-12.3902136788298,17.6235398031676,2.58595069050669,-20.0179294673487,-103.999472627273,282.446615264966,0,0,0,-0.53369264185811,14.884875606244,9.04192452568489,-0.00436784958907229,0.743358131478178,0.956106701398639,0.887307887838075,-5.55057373046876,1.13227327966478,-9.49642677567854,-0.237176668333234,-2.4768239448999,-2.87259015826007,-2.98872548225673,0.256590544871779,9.99251427283654,-1.20754281850961,-5.20385734459085,1.45954174827874,-31.6225052676876,-2.79529572315704,9.90916190905451,-0.404019180689109,0.340998993451232,35.552454297246,-36.9826642380896,-1.47256681644238,9.53831439883185,-1.60734582425525,-5.90833391287388,1.11766612851837,3.61226548733285,890.910481770833,-0.0640147602866002,0.0941739274276188
15.28,-30.3872766624509,42.2244952140297,29.3207251643474,0.170866553597105,-1.06479058113576,-1.66856847633025,-1.75469915777088,-19.9994022996321,192.731755241788,200.914950816257,-0.164121138102736,-0.80988365132239,0.271510827056689,0.721811489176054,4.318811202978,7.63061902531051,0.446498309677274,-13.5908435732017,4.23342335570058,-77.5026974665402,-4.57102558908064,10.1491376188607,-0.847573152356939,-1.51306996906037,38.9517798058212,303.716460650034,-13.7395556111584,17.3403047358471,2.06473569260643,-25.00534843562,-105.737164754055,280.868393794612,0,0,0,-0.369069482849257,16.8528730924386,10.4181243697191,-0.00518252887902211,0.660914049221346,0.925983417167578,0.862339751453243,-5.51896111460776,2.70169664251117,-7.30409362175801,-0.240982155755927,-2.43185016272403,-2.83928829049736,-2.94792498402193,0.219380974689461,9.92311057369681,-1.29039111662593,-5.78654554054766,2.42242968477792,-33.6224964629604,-2.85565137568213,9.89915306600491,-0.354071462034216,-0.0621313776329866,33.1727715087258,-35.6320212639741,-1.3684066787754,9.58766942346695,-1.65002024643154,-6.30809497213199,0.831506021530341,3.23977991219636,891.457653300244,-0.0641898226771333,0.0934581587319594
15.285,-29.9462042733994,44.7011620464515,32.2431041490253,0.1775510881557,-0.967130646356663,-1.60787675900205,-1.67702777649383,-18.2467185787924,187.587908821597,199.863825396986,-0.168853977560996,-0.91899661138707,0.224824886693729,0.749333233599435,4.39050329834513,7.70496638346902,0.411979893389386,-13.7514705815689,5.10212044176768,-79.2564821497322,-4.30815457273452,10.6031875561858,-0.770570531407076,-1.75892763492842,48.1468565092862,297.570019003333,-15.2511867999481,17.0242422251656,1.28062086418113,-33.304372573675,-105.997381398963,277.671455124895,0,0,0,-0.189158776618628,18.9485141609395,11.8815654564109,-0.00420364129123417,0.571361606110893,0.897971855323792,0.839992336841481,-5.47252966992215,4.03528646804911,-4.99661202381558,-0.2464896305307,-2.39165174795694,-2.80660813501295,-2.90601801336188,0.145033616530971,9.82486585041594,-1.42315425619467,-6.41594116516987,3.75006108046538,-36.3138183786626,-2.80520138264601,9.88322148925666,-0.242550424796465,-0.534178096099638,28.8751795093523,-35.0190161504097,-1.42945699519613,9.59530062992989,-1.63221392920094,-6.67983178824704,0.56199685200417,3.06320488339255,890.661074462832,-0.0632864136676312,0.0929217121836802
15.29,-29.5051108518558,47.1779469784791,35.1656224870475,0.184235941465644,-0.86946605467352,-1.54718214759548,-1.59938299092011,-16.493951281408,182.443817117613,198.812649854907,-0.173587042704223,-1.02811477449214,0.178136720116455,0.769250243062897,4.46219881234253,7.77931728687373,0.377459831094332,-13.9121052494185,5.97085895156689,-81.0103504619684,-4.04527102141075,11.057259144836,-0.693564238595073,-2.00479702449423,57.3423716790477,291.423284264187,-16.7628900707172,16.7081646430755,0.496468645320056,-41.6037924498511,-106.257610452276,274.474364009483,0,0,0,-0.00923949136428731,21.0442551598714,13.345076327142,-0.00322470702529126,0.481804892701308,0.869958957751531,0.818012032437778,-5.42609601115784,5.3689398856821,-2.68902039384807,-0.251997367928848,-2.35145141633255,-2.77392642117864,-2.86263966012424,0.0706827131262753,9.72661644234544,-1.55592372656021,-7.04536680245836,5.07775578412078,-39.0052686297764,-2.7547489839071,9.8672891528128,-0.131024069689407,-1.006247324066,24.5773825797419,-34.405981805759,-1.49051022279498,9.60293220028614,-1.61440676287792,-7.05158633059432,0.292474830960688,2.88662143462647,889.864457640639,-0.0623829615791623,0.0923852400550019
15.295,-29.0640384628042,49.6546138109009,38.0880014717253,0.190920476024239,-0.771806119894424,-1.48649043026728,-1.52208875198147,-14.7412675605683,177.299970697422,197.761524435636,-0.178319882162483,-1.13722773455682,0.131450779753494,0.780511875159808,4.53389090770966,7.85366464503224,0.342941414806444,-14.0727322577857,6.839556037634,-82.7641351451605,-3.78240000506463,11.5113090821611,-0.61656161764521,-2.25065469036228,66.5374483825127,285.276842617486,-18.2745212595069,16.392102132394,-0.287646183105252,-49.9028165879061,-106.517827097185,271.277425339767,0,0,0,0.170671214866343,23.1398962283723,14.8085174138339,-0.00224581943750332,0.392252449590855,0.841947395907744,0.796259421250357,-5.37966456647223,6.70252971122004,-0.381538795905639,-0.257504842703622,-2.31125300156546,-2.74124626569422,-2.81807470705902,-0.00366464503221528,9.62837171906457,-1.68868686612896,-7.67476242708056,6.40538717980824,-41.6965905454786,-2.70429899087098,9.85135757606455,-0.0195030324516556,-1.47829404253265,20.2797905803684,-33.7929766921946,-1.55156053921571,9.61056340674908,-1.59660044564732,-7.42332314670936,0.0229656614345175,2.71004640582267,889.067878803226,-0.0614795525696602,0.0918487935067227
15.3,-28.5416840746224,51.1033646012088,40.7587007054202,0.196696798627389,-0.671980097759334,-1.39032716585722,-1.40999174859458,-13.1268350215317,167.136803817014,192.930538301239,-0.182740828229819,-1.21133718089699,0.045146842613845,0.742609371614605,4.79136416184973,7.9881464354528,0.342464354527925,-15.6532624467756,9.00980280215989,-84.8850638692642,-3.11187475915221,11.6633603082852,-0.738146435452803,-2.74013653987963,79.1833559313971,271.606819857751,-19.623901894189,15.3706525685011,-0.702101143080605,-48.8245760180817,-99.8640635216627,261.948501992639,0,0,0,0.390682938636379,22.6112108829623,16.2266539833318,-0.00236655663029304,0.34819986746173,0.791898210544807,0.752555575026134,-5.25720946618818,8.58432228918939,1.60204011855047,-0.262756953575843,-2.30609628719483,-2.68213339430748,-2.74618308971609,0.0417514450867093,9.62,-1.73942967244701,-6.90694355241562,5.47497086039155,-43.8639430053046,-2.54228131021194,9.84014258188827,0.0639306358381622,-1.61587573443708,17.0993482242679,-34.1514664953971,-1.66418243534073,9.52858329692098,-1.54019286457973,-7.13586599353651,0.0345009635380238,3.08313578314405,891.464354527938,-0.0596390380751995,0.0917439629978757
15.305,-28.0117858460414,52.4562939311023,43.4058178481981,0.202388224118889,-0.571957517267037,-1.29086489225399,-1.29557922292479,-11.5253641345368,156.506638630871,187.74772625536,-0.187132492335433,-1.28218233802829,-0.0448428415314234,0.690773753930373,5.06612870905589,8.12822247912653,0.345158124598587,-17.3659681089782,11.3011701832425,-87.0400799257832,-2.40341323057161,11.787273731535,-0.87822247912653,-3.25228541750915,92.1500343331986,257.236720505562,-20.958099254395,14.2835524852167,-1.0821022776778,-46.8729398896224,-92.56663933158,252.048896983005,0,0,0,0.614418431320628,21.8381084087374,17.6404967134346,-0.00258971283510774,0.308387697329257,0.739798924371686,0.706753717249158,-5.12767947315175,10.5170795023434,3.5553455029412,-0.267985004640677,-2.30420382486083,-2.62056151064834,-2.67123427139913,0.0983206165703261,9.62,-1.78252999357739,-6.00902019553271,4.33427563294402,-45.9823769991357,-2.36988002569043,9.82936750160566,0.144743737957626,-1.72229628043801,14.0231293164284,-34.6004281738386,-1.78160213136336,9.43826055263355,-1.4801926824751,-6.78702274883567,0.0722137446876665,3.50740458211611,894.158124598587,-0.0577113321818789,0.0916793411256184
15.31,-27.4818623493173,53.8092877752932,46.0530612184875,0.208079921005435,-0.471930167208173,-1.19139787580237,-1.18244408716534,-9.92381688156569,145.875966546384,182.564667067616,-0.191524365857102,-1.3530308734037,-0.134836816825619,0.628189963531971,5.34090635838151,8.26830520231214,0.3478520231214,-19.0787554413759,13.5926468279455,-89.1951987440234,-1.69491791907514,11.9111930635838,-1.01830520231214,-3.76445871690575,105.11733104974,242.865935916649,-22.2923602356663,13.1964005636755,-1.4621215325904,-44.921210697593,-85.2688671645677,242.148819911714,0,0,0,0.838164592809067,21.0649690691998,19.0544068624841,-0.00281287968110335,0.268573628757504,0.687697153849409,0.660776156389615,-4.99814330349079,12.4499288788283,5.50874403050031,-0.273213305004593,-2.30231127228495,-2.5589866909402,-2.5959708422659,0.154892485549126,9.62,-1.8256323699422,-5.11105402126595,3.1935260115607,-48.1009120102762,-2.19747052023121,9.81859190751446,0.225560693641637,-1.82872190109184,10.9467637194034,-35.049411260972,-1.89902742653224,9.34793350131526,-1.42018963926789,-6.43816286958022,0.109928324167439,3.93169361230266,896.852023121387,-0.0557835343660991,0.0916147161718738
15.315,-26.9593179940724,54.540482980681,48.4263263213229,0.212974819320147,-0.366742433036216,-1.08653277120989,-1.06546617391287,-8.43150872852019,134.773203216224,176.546134913609,-0.195114408239985,-1.41995360028499,-0.223630205315831,0.555784355883314,5.57561114629513,8.40799240025332,0.375839138695397,-20.8146193480794,15.4602928873564,-90.8830092494859,-0.906060797973398,11.9723179227359,-1.11654211526282,-4.65333583530757,116.387211784299,227.506282300878,-23.5659968368308,11.9996355245806,-1.73547610449897,-42.1497546456296,-77.4509628397366,232.024225777354,0,0,0,1.06363191637228,20.6030019200852,20.3083133847259,-0.00467104165811062,0.241076435626359,0.634796003154594,0.613712650954959,-4.87250245416218,13.6048473656517,7.27886721192213,-0.277786020017792,-2.30590261967556,-2.49474626285053,-2.51799723026379,0.176852438252046,9.61138695376821,-1.87238125395821,-4.36050320956377,2.31452161471161,-50.0665916074402,-1.99970867637746,9.80784673844205,0.312609246358473,-2.00529323919654,7.89436977615149,-35.1748019921969,-2.05389696046323,9.28661232707318,-1.35932459493013,-6.06767877556992,0.196523119540363,4.30768204792305,901.207093096897,-0.0542541140828463,0.0914516281890975
15.32,-26.4658310539531,52.8252383683768,49.7215379942707,0.214734559435195,-0.241256696017882,-0.960434425512094,-0.929049319229362,-7.36906211553457,121.813573203495,167.240804379377,-0.195549554507604,-1.47142743272686,-0.307695770433728,0.477032018089654,5.65264205193161,8.5461167827739,0.503338568714387,-22.6411929725799,15.660330573343,-90.732161158414,0.198934262191255,11.7863812539582,-1.05013616212792,-7.02427431019791,120.978240643007,208.256754157577,-24.6010521087502,10.3716656323035,-1.5891560467955,-36.1532968748937,-67.58702300692,221.016774337218,0,0,0,1.29586023020246,21.3653328588871,20.9326417482919,-0.0129618408964419,0.262040076050353,0.578752293075996,0.56312115098171,-4.76219334646447,11.6990190053726,8.32782735305514,-0.27977918157912,-2.33106965527029,-2.42002132663401,-2.42973309299093,0.0626341988600244,9.56888714376187,-1.93347473084231,-4.18997928052601,2.46536970578347,-51.4307830397423,-1.70221000633312,9.79722178594047,0.424171247625087,-2.45783751241212,4.93643546861195,-34.0270447775198,-2.35607974615182,9.33941481764819,-1.29507099501161,-5.61213402319287,0.475428137747716,4.49361866603704,912.09766941102,-0.054292143538849,0.0909011549799408
15.325,-25.9723205819592,51.1099119648079,51.0168114292553,0.216494383463271,-0.115764975224954,-0.834330066827523,-0.794617950288053,-6.30656483989037,108.853325212127,157.935030121407,-0.195984721525129,-1.5229037196932,-0.39176534420954,0.387378146543452,5.72967663077899,8.68424775174159,0.630844078530716,-24.4678536970579,15.8603777981063,-90.5813058741663,1.30398201393285,11.6004357188094,-0.983727042431914,-9.39532584304805,125.56948842446,189.006308102487,-25.6361567371748,8.74361811044776,-1.44282901183497,-30.1565531636794,-57.7226128131366,210.008798007881,0,0,0,1.52809961781613,22.1277001493622,21.5569998828923,-0.0212530354806908,0.283004716123407,0.522705910558788,0.512059118971952,-4.65187897868818,9.79309976586215,9.37683751374569,-0.281772438184153,-2.35623789095255,-2.34529282716651,-2.34186167129437,-0.0515894870171148,9.52638530715642,-1.99457112096263,-4.01944722007206,2.61622499003119,-52.7950395233739,-1.404697150095,9.7865963267891,0.535738568714373,-2.9104033651553,1.97836011227609,-32.8792328321566,-2.65827694139577,9.3922198261046,-1.23081433116672,-5.15656754821067,0.754346455512468,4.67956415051973,922.988765041165,-0.0543301748082825,0.0903506555215251
15.33,-25.4788336418398,49.3946673525037,52.3120231022032,0.218254123578319,0.00972076179337899,-0.708231721129729,-0.66233337706624,-5.24411822690475,95.8936951993975,148.629699587176,-0.196419867792748,-1.57437755213507,-0.475830909327437,0.287233681821555,5.80670753641547,8.82237213426217,0.758343508549705,-26.2944273215584,16.0604154840929,-90.4304577830945,2.40897707409751,11.4144990500317,-0.917321089297019,-11.7662643179384,130.160517283169,169.756779959187,-26.6712120090941,7.11564821817061,-1.29650895413151,-24.1600953929435,-47.85867298032,199.001346567745,0,0,0,1.7603279316463,22.8900310881641,22.1813282464582,-0.0295438347190221,0.303968356547401,0.46666220048019,0.460467307830742,-4.54156987099047,7.88727140558302,10.4257976548787,-0.283765599745481,-2.38140492654729,-2.27056789094999,-2.25455013145506,-0.165807726409137,9.48388549715008,-2.05566459784672,-3.84892329103431,2.76707308110305,-54.159230955676,-1.10719848005066,9.77597137428751,0.647300569980986,-3.36294763837088,-0.97957419526345,-31.7314756174794,-2.96045972708436,9.44502231667961,-1.16656073124821,-4.70102279583361,1.03325147371982,4.86550076863372,933.879341355288,-0.0543682042642852,0.0898001823123684
15.335,-25.2014869689941,48.4306755065918,52.9485239801534,0.217068013917026,0.143687755186712,-0.637362658977509,-0.587515831524256,-4.64700813293457,88.6101989746094,140.167159868348,-0.198663706192704,-1.6197546060124,-0.523076951503754,0.214033317082572,5.83891465384403,8.90255815680521,0.812945621298464,-27.2620342464639,15.8812306851654,-89.2718847978055,3.21674544678163,11.2068210088558,-0.78449547927148,-13.8504213822769,130.76790705638,151.260642970976,-27.4387751565598,5.42892891282906,-1.28024059572472,-23.9237430019317,-37.4382991541123,187.523454413196,0,0,0,1.89084354400634,23.3184719085693,22.5799008847125,-0.0363527233068062,0.320500011613043,0.435164839029312,0.43284344299108,-4.47957458496094,6.81616878509521,10.9425024879747,-0.287340630356999,-2.40970786368718,-2.22857141494751,-2.20063711721172,-0.21891465384403,9.45829456212983,-2.06271299407754,-3.5846481115899,2.24126298476037,-54.7016924281837,-0.812944878673669,9.78705437870151,0.733876130182111,-3.78782773763247,-3.89789344388358,-31.7601729857391,-3.13029074668884,9.47469806671143,-1.13044929504395,-4.44500017166138,1.19000005722046,4.96999979019165,940,-0.0543895773589611,0.0894908085465431
15.34,-25.2014869689941,48.4306755065918,52.7398036594623,0.212102392024695,0.288521950914288,-0.637362658977509,-0.585847134417289,-4.64700813293457,88.6101989746094,132.786875221375,-0.203227923607829,-1.65730431292526,-0.523076951503754,0.179023048198047,5.81360757848618,8.90839825111856,0.774011659209463,-27.1274477108476,15.2155080000633,-86.8204871847942,3.64307233165623,10.9712705382173,-0.566465291573059,-15.5663997113848,126.26406477522,133.733150037945,-27.8630518091466,3.66701541381543,-1.43083546356103,-31.0778585357861,-26.3051329621,175.443217781409,0,0,0,1.89084354400634,23.3184719085693,22.688776641717,-0.0412595209065718,0.331343455151514,0.435164839029312,0.436111529286226,-4.47957458496094,6.81616878509521,10.7762465366861,-0.292944872115362,-2.44203120499364,-2.22857141494751,-2.18945615992312,-0.193607578486179,9.45440116592093,-2.00041865473514,-3.20011515268616,0.847331008734314,-54.1897829266431,-0.522886861110591,9.82598834079052,0.788383677106722,-4.1771673585225,-6.76506731870959,-33.298304821354,-3.13029074668884,9.47469806671143,-1.13044929504395,-4.44500017166138,1.19000005722046,4.96999979019165,940,-0.0543895773589611,0.0894908085465431
15.345,-25.2014869689941,48.4306755065918,52.5310733859639,0.20713653334719,0.433363053045741,-0.637362658977509,-0.586444488312764,-4.64700813293457,88.6101989746094,125.406238646281,-0.207792358667197,-1.69485581039207,-0.523076951503754,0.135954711367636,5.78829929636302,8.91423862391622,0.735075840558443,-26.992854757486,14.5497535700427,-84.3689726771372,4.06941954588493,10.7357088353787,-0.348424707127335,-17.2824598667447,121.760007728799,116.204821308198,-28.2873486933223,1.90501789813598,-1.58143751249828,-38.2323152129114,-15.1714358861913,163.362405104768,0,0,0,1.89084354400634,23.3184719085693,22.7976575904509,-0.0461665524864815,0.342187415758485,0.435164839029312,0.438766070260037,-4.47957458496094,6.81616878509521,10.6099826574993,-0.298549381111422,-2.47435608763534,-2.22857141494751,-2.17902826490812,-0.168299296363015,9.45050758405583,-1.9381213448935,-2.81556385736743,-0.546667436796108,-53.67784901475,-0.232815012160475,9.86492415944155,0.842893823218158,-4.56652554503273,-9.63237791442991,-34.836510002629,-3.13029074668884,9.47469806671143,-1.13044929504395,-4.44500017166138,1.19000005722046,4.96999979019165,940,-0.0543895773589611,0.0894908085465431
15.35,-25.2014869689941,48.4306755065918,52.3223530652728,0.20217091145486,0.578197248773317,-0.637362658977509,-0.589239033023655,-4.64700813293457,88.6101989746094,118.025953999308,-0.212356576082322,-1.73240551730493,-0.523076951503754,0.0859774729094786,5.76299222100517,8.92007871822958,0.696141878469442,-26.8582682218697,13.8840308849406,-81.9175750641259,4.49574643075953,10.5001583647402,-0.130394519428914,-18.9984381958526,117.256165447639,98.6773283751667,-28.711625345909,0.143104399122357,-1.73203238033459,-45.3864307467659,-4.03826969417907,151.282168472982,0,0,0,1.89084354400634,23.3184719085693,22.9065333474553,-0.0510733500862472,0.353030859296956,0.435164839029312,0.440817553690897,-4.47957458496094,6.81616878509521,10.4437267062107,-0.304153622869785,-2.5066794289418,-2.22857141494751,-2.16932514066505,-0.142992221005164,9.44661418784694,-1.8758270055511,-2.43103089846369,-1.94059941282216,-53.1659395132094,0.0572430054026038,9.90385812153056,0.897401370142769,-4.95586516592276,-12.4995517892559,-36.3746418382439,-3.13029074668884,9.47469806671143,-1.13044929504395,-4.44500017166138,1.19000005722046,4.96999979019165,940,-0.0543895773589611,0.0894908085465431
15.355,-25.2014869689941,48.4306755065918,52.1136227917744,0.197205052777355,0.723038350904771,-0.637362658977509,-0.594108611459128,-4.64700813293457,88.6101989746094,110.645317424214,-0.21692101114169,-1.76995701477174,-0.523076951503754,0.0303604616155687,5.737683938882,8.92591909102724,0.657206059818422,-26.7236752685081,13.21827645492,-79.4660605564689,4.92209364498823,10.2645966619015,0.0876460650168104,-20.7144983512125,112.752108401218,81.1489996454196,-29.1359222300848,-1.61889311655709,-1.88263442927184,-52.5408874238912,7.09542738172964,139.201355796341,0,0,0,1.89084354400634,23.3184719085693,23.0154142961892,-0.0559803816661569,0.363874819903928,0.435164839029312,0.442294876175697,-4.47957458496094,6.81616878509521,10.2774628270239,-0.309758131865846,-2.5390043115835,-2.22857141494751,-2.16027687599734,-0.117683938882,9.44272060598184,-1.81352969570947,-2.04647960314496,-3.33459785835259,-52.6540056013164,0.34731485435272,9.94279394018159,0.951911516254206,-5.34522335243298,-15.3668623849763,-37.9128470195189,-3.13029074668884,9.47469806671143,-1.13044929504395,-4.44500017166138,1.19000005722046,4.96999979019165,940,-0.0543895773589611,0.0894908085465431
15.36,-24.9372320901844,46.7193583111072,51.4372297279527,0.195807535005428,0.901472009728825,-0.578073104011047,-0.541590859240626,-4.52836322617047,77.8111982813193,101.902512892879,-0.220283601367355,-1.81124219854434,-0.565736510279594,-0.0722011368654608,5.62870674166083,8.96701078040779,0.639047079655232,-26.7118758083136,12.9348403207954,-74.556654685221,5.22164492357371,10.0860181496237,0.295104939718262,-21.4028416311354,107.27970680017,61.284832267798,-29.4323959350586,-2.85007333755493,-1.98786628246307,-57.5400009155273,14.875,130.759994506836,0,0,0,2.0418461526152,23.3184719085693,23.114764413587,-0.0603594600206744,0.358598050005358,0.422873103167431,0.430953624669736,-4.49036111306441,5.75397201873634,9.76133798998507,-0.313138435906167,-2.57973458839508,-2.23652489109343,-2.15973119904528,-0.0728587610343136,9.47043108611306,-1.75848553498423,-1.99507015109094,-4.51070357479147,-51.6413730215907,0.620731713668215,9.98973908288417,0.984242767492133,-5.93306866136678,-16.3631085277224,-39.9847623144154,-3.13363941774993,9.44455987028947,-1.12099418978522,-3.81458319557727,1.42316797692692,5.0189362884707,937.121383746061,-0.0542451566419354,0.0901181867916898
15.365,-24.0599242987647,41.0379044210166,49.6758585222181,0.202687533477377,1.15786098902655,-0.38123591123653,-0.353207413049957,-4.1344703997249,41.9592681658087,89.9984052057315,-0.220858717855037,-1.86119521899713,-0.707363274035639,-0.276610727135119,5.32561948285292,9.08988399343801,0.669082753951515,-26.9849273928252,13.5382506124939,-63.9447239686457,5.22710595526393,10.0395993802568,0.478049501341056,-19.7072250013904,99.5601002750878,35.9989071391349,-29.4323959350586,-2.85007333755493,-1.98786628246307,-57.5400009155273,14.875,130.759994506836,0,0,0,2.54316429536411,23.3184719085693,23.192020902319,-0.0635145004637556,0.315924024827682,0.382065396266155,0.390635678899828,-4.52617163505045,2.22755273995237,8.43353377963573,-0.311359626582966,-2.63996991134281,-2.26292987791191,-2.17805163911911,0.0172482618545344,9.57146017238236,-1.7202583131526,-2.71646569535623,-5.18153401081385,-49.4670733671463,0.855556076348218,10.0552714631669,0.965129156576321,-6.98145190560279,-13.019069369259,-43.2950914007168,-3.14475677242671,9.34450315739393,-1.08960389890568,-1.72164274561117,2.19726922943347,5.18140205416776,927.564578288155,-0.0537656899207919,0.0922010388666012
15.37,-23.1826583396829,35.3567214375582,47.9145713032853,0.209567203892943,1.41423774302487,-0.184408104175954,-0.166251153774856,-3.74059635512305,6.1090475644177,78.0948651376802,-0.221433806919656,-1.91114585755881,-0.848983284655894,-0.482477306690449,5.02254667604095,9.21275134755097,0.699116996068019,-27.2579659575207,14.1416321320062,-53.3332992567775,5.23256672655784,9.99318282425853,0.660985339687023,-18.0116892230963,91.8408618411049,10.7141877097436,-29.4323959350586,-2.85007333755493,-1.98786628246307,-57.5400009155273,14.875,130.759994506836,0,0,0,3.04445853394828,23.3184719085693,23.2692737072589,-0.0666693904662283,0.273252034459523,0.341259635183441,0.349944566127333,-4.56198044949683,-1.29869838990548,7.10579288247589,-0.309580902078062,-2.70020236211226,-2.28933360567131,-2.19663015649581,0.10735098820405,9.67248444131969,-1.68203291409524,-3.43782684158869,-5.85233245988048,-47.2928773890157,1.09036924198632,10.1208007186939,0.94601645704764,-8.02978516017428,-9.67518966335899,-46.6052626418396,-3.15587359699884,9.24445121546504,-1.0582151047976,0.371197907461449,2.97133357076071,5.34386007307073,918.008228523813,-0.0532862460618799,0.0942837916256593
15.375,-22.3053505482632,29.6752675474676,46.1532000975508,0.216447202364892,1.67062672232259,0.0124290885985638,0.0196005493934744,-3.34670352867748,-29.7428825510929,66.1907574505327,-0.222008923407338,-1.9610988780116,-0.990610048411939,-0.688420735620234,4.71945941723304,9.3356245605812,0.729152670364302,-27.5310175420323,14.7450424237047,-42.7213685402022,5.23802775824806,9.94676405489155,0.843929901309817,-16.3160725933513,84.1212553160231,-14.5717374189195,-29.4323959350586,-2.85007333755493,-1.98786628246307,-57.5400009155273,14.875,130.759994506836,0,0,0,3.54577667669719,23.3184719085693,23.346530195991,-0.0698244309093096,0.230578009281848,0.300451928282164,0.308982377827679,-4.59779097148287,-4.82511766868945,5.77798867212655,-0.307802092754861,-2.76043768506,-2.31573859248978,-2.21530172567178,0.197458011092898,9.77351352758899,-1.64380569226362,-4.15922238585398,-6.52316289590286,-45.1185777345713,1.32519360466633,10.1863330989766,0.926902846131828,-9.0781684044103,-6.3311505048956,-49.9155917281411,-3.16699095167561,9.14439450256949,-1.02682481391807,2.46413835742755,3.74543482326727,5.50632583876778,908.451423065906,-0.0528067793407364,0.0963666437005707
15.38,-21.8221091975878,27.877491016699,43.7154017475409,0.223673869285015,1.89125192550118,0.209594802383919,0.20500542110926,-3.48308038179923,-42.6907424926758,51.1758102367132,-0.223341988482224,-2.00072471941251,-1.18962791838339,-0.950489899946285,4.53740768641134,9.40478761927417,0.61429135939524,-27.9902960476402,15.5597019454895,-37.3128859350368,5.55692741786272,9.91406510189517,0.681599793830804,-14.0511957520918,72.9505714359369,-35.4002249326393,-29.4985475211708,-3.27497028454382,-2.4823072473498,-68.2482530363325,24.5111875331642,116.389373421351,0,0,0,3.84292287763973,22.1751567343838,23.1748868393179,-0.0740240520049182,0.172994256335937,0.301279521592971,0.309513464201898,-4.68425160502473,-8.00420320692257,3.74351800412759,-0.305742611161456,-2.81720070770294,-2.35640515209936,-2.24815540895259,0.338003198266075,9.80822945576613,-1.61937673459678,-4.41975308641975,-6.66706853021709,-43.7322226366491,1.26658591705656,10.2117705442339,0.904065101895181,-9.57919811987251,-4.24037053026734,-51.2619352495519,-3.17355027228851,9.13200607580364,-1.02354520009473,3.57942050302025,4.22949790710077,5.28613933194334,901.281857108873,-0.0512145105859651,0.0988876922512226
15.385,-21.5616174162822,28.2752190423964,40.8950030400561,0.231097064793133,2.09167452995443,0.406960962825233,0.390202467351117,-3.91925561738689,-42.6907424926758,34.401027722287,-0.225103659637915,-2.0345150432873,-1.42110673157685,-1.24250989310026,4.42376985700315,9.4435907805355,0.417503898712757,-28.5548923093791,16.4938521240031,-34.8457713610138,6.0530535511326,9.88912021251288,0.324056379351376,-11.4643183346696,59.827985594913,-53.7102527906103,-29.6021028741561,-3.94011462822159,-3.25631754186383,-85.0112196316542,39.595917319349,93.8932425409451,0,0,0,4.02466255913459,20.3853824690244,22.8625150305694,-0.0788145407188995,0.106976983805823,0.325645712455441,0.333589578416177,-4.79935375573889,-10.9871607563975,1.30938127500254,-0.30352429764627,-2.87200490079555,-2.4051375338243,-2.28882872336652,0.507074115190441,9.80545780139033,-1.60274680834192,-4.41975308641975,-6.51308773156101,-42.7912288670842,1.04208191261599,10.2145421986097,0.879120212512887,-9.77081866931118,-2.8579651378883,-51.4980391408245,-3.17753319589618,9.16918002947516,-1.03615772543761,4.14206633337981,4.54962391349561,4.84960375453707,895.461382919673,-0.0489929998463128,0.101656663557403
15.39,-21.3011380559084,28.6729281033777,38.0747388165837,0.238519906343809,2.2920875777319,0.60431771233004,0.575369522832544,-4.35541005499461,-42.6907424926758,17.6270450735158,-0.226865246792502,-2.06830375595076,-1.652574507253,-1.53088426256329,4.3101374461449,9.48239209156026,0.220725821372858,-29.1194616496866,17.4279577597845,-32.3787744254885,6.5491560278064,9.86417651256838,-0.033469986519695,-8.87756426635184,46.7060254732216,-72.0194075783993,-29.7056532893505,-4.60522725607141,-4.03029092953566,-101.773386924735,54.6799278260286,71.3981843350998,0,0,0,4.20639357480447,18.5956935447992,22.5501581165285,-0.0836048010098065,0.0409628591525228,0.350010741473984,0.357840082190416,-4.91445041808042,-13.9699760706278,-1.12463938809499,-0.301306089906094,-2.9268064806804,-2.45386759186139,-2.32909881584307,0.67613697036977,9.80268627917427,-1.58611767504559,-4.41975308641975,-6.35911427511353,-41.8502799665717,0.817588613115557,10.2173137208258,0.854176512568385,-9.96243008177916,-1.47562566222642,-51.734131774044,-3.18151592958759,9.20635221059501,-1.04876964938217,4.70468533530954,4.86973465544231,4.41308899229279,889.641186265958,-0.0467715950341228,0.104425502831764
15.395,-21.0486701965332,29.0584049224854,35.2833392469229,0.245844378142981,2.48926555499785,0.795604407787323,0.754844490637447,-4.77814979553223,-42.6907424926758,0.99767427551653,-0.228604213781606,-2.10177480710831,-1.87692308425903,-1.80752646066298,4.21460481099655,9.52592538046145,0.0324202258222606,-29.6387449468778,18.344357776202,-29.9417019703388,7.06830633284239,9.83215513009325,-0.411045655375548,-6.4202379437202,33.2932174524385,-89.7253525821682,-29.4232907049435,-5.02793762738879,-4.68008021554586,-116.306275739937,69.0601920182645,48.2417194439491,0.108492881688758,0,0,4.38253513336181,16.8610496520996,22.2229676977796,-0.0884815488720363,-0.0239041002195137,0.373626381158829,0.38170459753863,-5.02600708007813,-16.8610496520996,-3.56316961050013,-0.299085894112824,-2.98118508820376,-2.50109887123108,-2.36733300552364,0.838330878743225,9.79933235149731,-1.56974963181148,-4.4252137917659,-6.20977351103353,-40.9058164693904,0.60242022582231,10.2214187530683,0.823740795287171,-10.1539179500233,-0.247901476996546,-52.0783590004667,-3.18537616729736,9.24238109588623,-1.06099367141724,5.25,5.17999982833862,3.99000000953674,884,-0.0446185134351254,0.107109181582928
15.4,-21.0486701965332,29.0584049224854,33.4044696353824,0.250062366906779,2.58434876261261,0.795604407787323,0.743808490164909,-4.77814979553223,-42.6907424926758,-11.0558298822499,-0.229628759020562,-2.12519901798634,-1.87692308425903,-1.85439617484276,4.68871857478747,9.7182801074852,0.11098764953619,-28.7323263931753,18.7022425926085,-28.4499577823265,8.3118390047283,9.57748830839984,-1.41887605611968,-8.03908141232552,10.7498187367362,-88.4242573150453,-16.9988456633967,2.17704701158756,-1.4214858488313,-60.6737663659945,61.2752428179739,4.31033842179786,3.63048084127845,0,0,4.38253513336181,16.8610496520996,21.4295564953195,-0.09607202680678,-0.0525757833278648,0.373626381158829,0.382520054166764,-5.02600708007813,-16.8610496520996,-6.13981557944421,-0.296806582264755,-3.02217094831664,-2.50109887123108,-2.35768620224237,0.784146448595694,9.7776585794383,-1.56162196728936,-4.60248384101401,-6.20642879312319,-39.8522303276328,0.680987649536224,10.2674755186937,0.620549182233919,-10.3412221530025,-3.8869545634482,-55.8244430600493,-3.18537616729736,9.24238109588623,-1.06099367141724,5.25,5.17999982833862,3.99000000953674,884,-0.0446185134351254,0.107109181582928
15.405,-21.0486701965332,29.0584049224854,31.5255104301358,0.254280556804942,2.67943650426046,0.795604407787323,0.733931944281853,-4.77814979553223,-42.6907424926758,-23.109908810135,-0.230653353114853,-2.14862434584548,-1.87692308425903,-1.89521478502996,5.16285494664495,9.91064400692453,0.189558819729721,-27.8258646169962,19.0601444747161,-26.9581424606444,9.55543097434306,9.32280934294497,-2.42675451515387,-9.65800207531684,-11.7946549586388,-87.1231000053271,-4.57380816345298,9.3823752195229,1.8372639036239,-5.03860416150667,53.4899223931731,-39.6231374637848,7.15263674650544,0,0,4.38253513336181,16.8610496520996,20.636107459127,-0.103662866692691,-0.0812488336425059,0.373626381158829,0.384115687577367,-5.02600708007813,-16.8610496520996,-8.71658441548901,-0.294527161727932,-3.06315876283608,-2.50109887123108,-2.34730443194602,0.729959434669128,9.75598377386768,-1.55349391520038,-4.77976234336637,-6.20308391572031,-38.7985939457272,0.759558819729739,10.3135344805312,0.417347880009286,-10.5285352875634,-7.5261811777758,-59.5707057512689,-3.18537616729736,9.24238109588623,-1.06099367141724,5.25,5.17999982833862,3.99000000953674,884,-0.0446185134351254,0.107109181582928
15.41,-21.0486701965332,29.0584049224854,29.6466408185953,0.25849854556874,2.77451971187522,0.795604407787323,0.725570227088032,-4.77814979553223,-42.6907424926758,-35.1634129679014,-0.23167789835381,-2.17204855672351,-1.87692308425903,-1.92954953930946,5.63696871043587,10.1029987339483,0.26812624344365,-26.9194460632937,19.4180292911227,-25.4663982726321,10.798963646229,9.06814252125156,-3.43458491589801,-11.2768455439222,-34.3380536743411,-85.8220047382042,7.85063687809382,16.5873598584993,5.09585827033846,50.5939052124355,45.7049731928825,-83.554518485936,10.6746247060951,0,0,4.38253513336181,16.8610496520996,19.8426962566669,-0.111253344627435,-0.109920516750857,0.373626381158829,0.386709181258278,-5.02600708007813,-16.8610496520996,-11.2932303844331,-0.292247849879863,-3.10414462294895,-2.50109887123108,-2.33613197868608,0.675775004521598,9.73431000180867,-1.54536625067826,-4.95703239261448,-6.19973919780996,-37.7450078039696,0.838126243443654,10.3595912461566,0.214156266956034,-10.7158394905426,-11.1652342642274,-63.3167898108514,-3.18537616729736,9.24238109588623,-1.06099367141724,5.25,5.17999982833862,3.99000000953674,884,-0.0446185134351254,0.107109181582928
15.415,-20.9471961504134,29.4747856976284,28.4046241282209,0.262300627802863,2.84614318444087,0.870218085209239,0.793649396812119,-4.81778804291236,-38.7351246445532,-43.0965872960642,-0.226863130087318,-2.19405164725857,-1.92347691448265,-2.00372078984274,6.017463200114,10.441094529389,0.219167905205931,-26.0630638307071,18.2017083421621,-25.032256313157,11.1317985626158,9.13793472728381,-4.22331982816542,-12.4146378124091,-53.7735030264094,-78.8166740689968,15.1066001388371,19.7654910342595,6.73966885796435,88.1349181214006,38.8385210877378,-109.823023094005,22.9381273286235,-0.0290503441968288,0.000197982586573687,4.43010091952907,16.7049068441258,19.118090640636,-0.11885410329969,-0.134368770175349,0.365335973036814,0.382224402975097,-5.08467108848068,-17.3815257247992,-13.4364040502495,-0.289313029374294,-3.13733323659413,-2.5189551348785,-2.34199969991583,0.584868782702514,9.76570087749662,-1.57627053769573,-5.45110855234302,-6.01931266663096,-36.4699496817501,0.995184559317533,10.4364262882505,0.0698442494451873,-10.9827971859583,-13.6296954839754,-66.545983550992,-3.12491559162443,9.26548816407448,-1.08045225196876,5.33124599613671,5.13429897713065,3.35526558256675,882.839342793737,-0.042895413352731,0.10831398374365
15.42,-20.6485696809806,30.7001465221476,28.4002032227408,0.265294059476768,2.87217374163145,1.08979757289027,1.00877690221878,-4.93443885484173,-27.0941953864871,-43.0227422592229,-0.210703102204189,-2.21329037695175,-2.06047949287439,-2.16158810870896,6.21599965388765,11.0623214976485,-0.0775693751654243,-25.3040236251209,13.9268360732009,-26.6531234188359,9.69507777347965,9.8381493169371,-4.58623592646133,-12.6175756451527,-67.1673999874827,-60.7288513921282,12.3190530571348,15.1188970931428,5.24568264291701,90.5184231624203,33.7576958744675,-101.768421424499,52.1848952501171,-0.11454217245275,0.000780622612259455,4.5700815680996,16.2453964840335,18.527277721113,-0.126473771084057,-0.150607361004256,0.340938253597189,0.363047009177633,-5.25731253111468,-18.913227060834,-14.7370292059943,-0.285104950652162,-3.15536694381139,-2.57150406905615,-2.3817484155871,0.422623938758464,9.90019331392392,-1.68301056660629,-6.56067774175897,-5.49483696902106,-34.7647447754505,1.30473064315816,10.573053525256,0.0399570413502333,-11.4044861890618,-13.8115488665638,-68.7703930423627,-2.94698705774329,9.33348961327119,-1.1377166208638,5.57034363646552,4.99980661806771,1.48731502573432,879.423661868599,-0.037824527606465,0.111859578202324
15.425,-20.3499289715749,31.925565777873,28.3957821064503,0.268287633892157,2.8982055400865,1.30938753119681,1.22618308309113,-5.05109522925319,-15.4527110318945,-42.9488937010885,-0.194542303731776,-2.23253002404179,-2.19748860422014,-2.31286506654126,6.41454557485188,11.6835780890527,-0.374320805423784,-24.5449472247797,9.65175995739073,-28.2740678153977,8.25828847445894,10.5383972962518,-4.94916933037443,-12.8205231549661,-80.561935635169,-42.6401661992768,9.53137305153381,10.4720815796671,3.7516251872891,92.9020418606352,28.6766283825641,-93.7134356721327,81.4330578007615,-0.200038077377799,0.00136329042107553,4.7100688916331,15.7858642122364,17.9364366287361,-0.134093802211507,-0.166846726168714,0.316539370754797,0.345465286161912,-5.42996220613829,-20.445001435891,-16.0377163819171,-0.280896671268223,-3.17340151096414,-2.62405550902438,-2.42072067774161,0.260371358185548,10.0346921636094,-1.78975568540426,-7.67029984086875,-4.9703362618409,-33.0594585566286,1.61429148767227,10.7096872773174,0.010068408086804,-11.8261953003624,-13.9934109208122,-70.9949086044735,-2.76905003935812,9.40149430511008,-1.19498372040444,5.80945267814096,4.86530784575032,-0.380724604130228,876.007818067064,-0.0327534000555284,0.11540534173231
15.43,-20.0513025021421,33.1509266023923,28.3913612009703,0.271281065566062,2.92423609727707,1.52896701887784,1.44595285185489,-5.16774604118256,-3.81178177382845,-42.8750486642472,-0.178382275848648,-2.25176875373496,-2.33449118261188,-2.45787294811548,6.61308202862552,12.3048050573121,-0.671058085795139,-23.7859070191935,5.37688768842951,-29.8949349210766,6.82156768532279,11.2386118859051,-5.31208542867033,-13.0234609877096,-93.9558325962423,-24.5523435224082,6.74382596983157,5.82548763855036,2.25763897224176,95.2855469016548,23.5958031692938,-85.658834002627,110.679825722255,-0.28552990563372,0.0019459304467613,4.85004954020363,15.3263538521441,17.3456237092131,-0.141713469995874,-0.183085316997621,0.292141651315172,0.329634612261506,-5.60260364877229,-21.9767027719257,-17.3383415376618,-0.276688592546091,-3.19143521818139,-2.67660444320203,-2.45897023335889,0.0981265142414978,10.1691846000367,-1.89649571431482,-8.7798690302847,-4.445860564231,-31.354253650329,1.9238375715129,10.8463145143229,-0.01981880000815,-12.2478843034659,-14.1752643034005,-73.2193180958442,-2.59112150547697,9.4694957543068,-1.25224808929948,6.04855031846976,4.73081548668739,-2.24867516096265,872.592137141926,-0.0276825143092624,0.118950936190984
15.435,-19.7526617927364,34.3763458581177,28.3869400846798,0.274274639981451,2.95026789573212,1.74855697718438,1.66812612724379,-5.28440241559403,7.82970258076416,-42.8012001061128,-0.162221477376234,-2.271008400825,-2.47150029395762,-2.59712005618417,6.81162794958975,12.9260616487163,-0.967809516053499,-23.0268306188524,1.10181157261936,-31.5158793176384,5.38477838630208,11.9388598652198,-5.67501883258343,-13.2264084975231,-107.350368243929,-6.46365832955678,3.95614596423054,1.17867212507462,0.763581516613855,97.6691655998697,18.5147356773905,-77.6038482502607,139.927988272899,-0.371025810558769,0.00252859825557737,4.99003686373714,14.866821580347,16.7547826168361,-0.149333501123323,-0.199324682162078,0.267742768472779,0.315668417983795,-5.7752533237959,-23.5084771469827,-18.6390287135847,-0.272480313162153,-3.20946978533414,-2.72915588317026,-2.4965841775402,-0.0641260663314179,10.3036834497221,-2.00324083311279,-9.88949112939448,-3.92135985705084,-29.6489674315071,2.23339841602701,10.9829482663843,-0.0497074332715793,-12.6695934147665,-14.3571263576489,-75.443833657955,-2.4131844870918,9.53750044614569,-1.30951518884012,6.2876593601452,4.59631671437,-4.1167147908272,869.176293340391,-0.0226113867583258,0.122496699720969
15.44,-19.3224053960328,38.079296503592,29.526820563029,0.271863127473769,2.94626053431678,1.90873576509296,1.83321003198277,-5.16948250061875,12.5174290313633,-38.0452181065369,-0.147840835351223,-2.29028688093353,-2.41887284528225,-2.54159723823915,6.54571100917431,13.0958486238532,-0.853973623853203,-19.909608959112,-3.21061983237061,-34.9084834069544,3.78621559633026,12.1926146788991,-5.82838302752295,-11.9433330501756,-104.255939234341,-0.92370313738817,2.99616956710815,-0.421523451805115,0.249082043766975,98.4899978637695,16.7649993896484,-74.8300018310547,150,-0.40046751499176,0.00272924802266061,5.11751256570903,13.803482750687,16.1491941651704,-0.154453761348583,-0.245094796907768,0.226071188745405,0.286366261716298,-6.07251530043576,-27.4300613447067,-20.2532805992203,-0.266791483632752,-3.20970291063466,-2.74863893108084,-2.5005941300819,-0.321834862385321,10.2979644495413,-2.23395068807341,-10.5168903613093,-4.46297004190737,-26.6361281005776,2.41411123853209,10.9905791284403,0.144988532110091,-13.0659403669725,-12.7202755125156,-77.6543351455431,-2.33906912653271,9.57187073766638,-1.39343727386873,6.07749701557903,4.17471347544171,-6.11765499125927,860.904243119266,-0.0169389292911772,0.126130618740283
15.445,-18.823043466358,43.0832981117056,31.2676468387263,0.266612917121221,2.92647645720613,2.03770349608922,1.96924395965604,-4.93294157693146,13.5527395981824,-30.8303534042068,-0.134395837348709,-2.3095848373344,-2.2666486382047,-2.38209101330511,6.03586559633027,13.0285105504587,-0.524498050458707,-15.5540113546268,-7.54246503001474,-39.2314214520331,2.10276376146788,12.2118541284404,-5.87167178899084,-9.87984270585571,-92.5014668988561,-1.97474714010649,2.99616956710815,-0.421523451805115,0.249082043766975,98.4899978637695,16.7649993896484,-74.8300018310547,150,-0.40046751499176,0.00272924802266061,5.23841094404185,12.4230685851443,15.5358891095277,-0.158260869453691,-0.306372613152531,0.175329780114874,0.249951226458638,-6.43521089413845,-32.6066137200977,-22.032143247866,-0.260325323666946,-3.20058650606406,-2.75075315617913,-2.48681979767197,-0.629666055045865,10.2186017201835,-2.52975722477065,-10.8909907690565,-5.56448790916301,-22.9366907350776,2.52714300458714,10.9304558486238,0.457629587155966,-13.4489479272851,-10.1282941159814,-79.8573708800544,-2.31948560983489,9.58857422256688,-1.49135485735782,5.63138227475346,3.60233982406625,-8.18830066557324,850.082052752294,-0.0109509170232469,0.129810664745629
15.45,-18.3236577246605,48.0875383351265,33.0085561255473,0.261362456412926,2.90669143669378,2.1666773768986,2.10719982462792,-4.6963893738143,14.5880995336804,-23.615144661788,-0.120950198222835,-2.32888371395635,-2.11441717233133,-2.21902161174366,5.52599587155963,12.961169266055,-0.195006766055036,-11.1982060539132,-11.8745167912561,-43.5545656359724,0.419231651376133,12.2310944954128,-5.91496261467891,-7.81625396420886,-80.7464340525541,-3.02584126175107,2.99616956710815,-0.421523451805115,0.249082043766975,98.4899978637695,16.7649993896484,-74.8300018310547,150,-0.40046751499176,0.00272924802266061,5.35931508740154,11.0425885946926,14.9225548084959,-0.162068159100361,-0.367653351423724,0.124585951885439,0.21545527103248,-6.79792378294359,-37.7834129388617,-23.8110907213959,-0.25385885536296,-3.19146966677863,-2.75286748209404,-2.47276532639566,-0.937511926605492,10.139235206422,-2.82557786697247,-11.2651090157436,-6.666058302186,-19.2370769622834,2.64018016055045,10.8703297018348,0.770285550458721,-13.8319737512742,-7.53618912107826,-82.0605116661004,-2.29990115929908,9.60527850397136,-1.58927711003691,5.18524626099188,3.02993887911149,-10.2590450784154,839.259346330275,-0.00496261921756123,0.133490886233593
15.455,-17.8242957949857,53.0915399432401,34.7493824012446,0.256112246060378,2.88690735958313,2.29564510789486,2.24674441974205,-4.459848450127,15.6234101004994,-16.400279959458,-0.107505200220321,-2.34818167035721,-1.96219296525378,-2.05328773059609,5.01615045871559,12.8938311926606,0.13446880733946,-6.84260844942803,-16.2063619889002,-47.8775036810511,-1.26422018348625,12.2503339449541,-5.95825137614681,-5.752763619889,-68.9919617170688,-4.07688526446939,2.99616956710815,-0.421523451805115,0.249082043766975,98.4899978637695,16.7649993896484,-74.8300018310547,150,-0.40046751499176,0.00272924802266061,5.48021346573436,9.6621744291498,14.3092497528532,-0.165875267205469,-0.428931167668487,0.0738445432549086,0.182788952081007,-7.16061937664628,-42.9599653142527,-25.5899533700415,-0.247392695397154,-3.18235326220802,-2.75498170719234,-2.45857870871443,-1.24534311926604,10.0598724770642,-3.12138440366971,-11.6392094234907,-7.76757616944164,-15.5376395967833,2.7532119266055,10.8102064220183,1.08292660550459,-14.2149813115868,-4.94420772454411,-84.2635474006116,-2.28031764260126,9.62198198887186,-1.687194693526,4.73913152016631,2.45756522773603,-12.3296907527294,828.437155963303,0.00102539305036905,0.137170932238939
15.46,-17.2654951140467,55.5083987089619,37.2441166738469,0.249384931117312,2.85711135125251,2.44260888273221,2.40549604391958,-4.30547938885155,14.1025340464907,-9.5725828257779,-0.099008221368756,-2.35356822135342,-1.90834063356616,-1.98416037243389,4.37529263638841,12.6906745758752,0.392113030723913,-4.41015790694101,-19.1737375368992,-51.8287629754943,-1.68059072441948,12.2003974507081,-5.6250939110344,-4.68093003549017,-57.1646288708546,-9.76413761407468,1.75619742703248,2.52689804609294,0.367174622288298,83.1287956972103,17.2011818475508,-85.9289444008744,184.000545164263,-0.399591063080936,0.000678226903328492,5.57056119282033,7.80234355659658,13.3719163626317,-0.16657996948785,-0.50492075928848,0.0376339079454224,0.16632609907969,-7.65075778512327,-48.2820727748571,-28.5053400831827,-0.240611989683159,-3.15992535629261,-2.78224283218433,-2.46956649106866,-1.33497903713605,9.98748951856802,-3.15214950480911,-11.5863421128496,-9.70234864520594,-11.0116143063794,2.79645396607001,10.756971742319,1.29960254929194,-14.4007180079358,-3.44296567436195,-87.6698514387321,-2.18807344131756,9.63524035547392,-1.74060686431869,4.49129434586364,2.0751778323248,-14.5979478044708,812.705014213211,0.0100228577810471,0.140501014505028
15.465,-16.64673967241,55.3130924836712,40.4997440013666,0.241167002275171,2.817210330338,2.60772706099375,2.58318188068199,-4.23408437045003,10.0011231744496,-3.13641742843633,-0.095507488852305,-2.34490954871084,-1.95380795801499,-2.01348514155874,3.60222842382627,12.3504174400644,0.577212912604991,-3.91951551851259,-20.7632844528351,-55.404403395274,-0.817698628003278,12.0806269389027,-4.91191495437496,-4.61035818509978,-45.2648706693133,-20.1314784928532,-0.735509716463777,8.45171092769701,0.604480051971191,52.2606689594837,18.0776845616818,-108.232118474436,252.324178035072,-0.397829844891794,-0.00344327212824624,5.63005686842453,5.45868031587646,12.1075395458356,-0.164152470500538,-0.595755816198027,0.0160967527380665,0.165995071533034,-8.26951322675988,-53.7506200850541,-32.5678619205872,-0.233514373917688,-3.12406054444935,-2.83488920786193,-2.5061367936419,-1.20432029698472,9.92216014849234,-2.91533053828479,-11.1024208530298,-12.4781747605612,-5.65151424101418,2.76923339520514,10.7106967718487,1.41937306109735,-14.3872757507186,-3.04305852214975,-92.2906273571504,-2.02248114415464,9.64501932146666,-1.74908204389444,4.4436584247288,1.88463382329097,-17.0654924391487,792.017380355914,0.0220577500397799,0.14347746050827
15.47,-16.0279547254832,55.1177769452231,43.755526573144,0.232948681561929,2.77730740674737,2.77285311289881,2.76119495274765,-4.16268594758434,5.89951672704852,3.30005487679695,-0.0920065894037803,-2.33625046318033,-1.99927745056855,-2.0428046240603,2.82912734777587,12.0101440791267,0.762321620955092,-3.42884973385183,-22.3529071661538,-58.9802143191031,0.0452346153346892,11.9608507158526,-4.19870198984958,-4.5397829694979,-33.3645450290137,-30.499313737226,-3.2273356767615,14.3768063334002,0.841796797539338,21.3910702782763,18.9542290717555,-130.536356072583,320.651068911359,-0.396068542719141,-0.0075649676930827,5.68955538107396,3.11490531781332,10.8431024373597,-0.161724855758184,-0.686595204568016,-0.00544142946634279,0.166849449259741,-8.88829817368673,-59.2194281623729,-36.6305774789319,-0.226416419703131,-3.08819402239618,-2.88753809397658,-2.54308616059848,-1.07365532638466,9.8568276631923,-2.67850027907216,-10.618476517474,-15.2541332409022,-0.29115857982304,2.74201152633012,10.6644195947612,1.53914928414741,-14.3738328525087,-2.64313230040572,-96.9116236167979,-1.85688095073989,9.65479875376838,-1.75755762760826,4.39602023207992,1.69408072818547,-19.5331547384413,771.328760010903,0.0340932161811248,0.146454048443036
15.475,-15.4091992838466,54.9224707199324,47.0111539006638,0.224730752719788,2.73740638583286,2.93797129116035,2.93904920028861,-4.09129092918283,1.79810585500735,9.73622027413852,-0.0885058568873292,-2.32759179053774,-2.04474477501738,-2.07291020589681,2.05606313521373,11.6698869433159,0.94742150283617,-2.93820734542341,-23.9424540820897,-62.5558547388828,0.908126711750887,11.8410802040472,-3.48552303319013,-4.46921111910752,-21.4647868274725,-40.8666546160045,-5.71904282025776,20.3016192150042,1.07910222722223,-9.47705645945022,19.8307317858865,-152.839530146145,388.974701782168,-0.394307324529999,-0.0116864667246574,5.74905105667816,0.7712420770932,9.57872562056361,-0.159297356770872,-0.777430261477563,-0.0269785846736987,0.168565856095483,-9.50705361532334,-64.68797547257,-40.6930993163364,-0.21931880393766,-3.05232921055292,-2.94018446965418,-2.58059794554169,-0.942996586233318,9.79149829311663,-2.44168131254784,-10.1345552576542,-18.0299593562575,5.06894148554218,2.71479095546525,10.618144624291,1.65891979595281,-14.3603905952915,-2.24322514819352,-101.532399535216,-1.69128865357697,9.66457771976112,-1.76603280718401,4.34838431094508,1.50353671915164,-22.0006993731191,750.641126153606,0.0461281084398576,0.149430494446279
15.48,-14.9350376612306,51.7737554205351,48.7493727423703,0.21722739718626,2.75130493783201,3.02617949616928,3.03938216537015,-4.08346893657882,0.609086053623697,10.9696174808183,-0.0835031090268359,-2.25407684004726,-2.09853815549434,-2.11283831039812,1.40997990580849,11.6577465620094,0.687009733124032,-5.75362102447817,-24.9912044498711,-62.1053948097757,1.22060207221351,11.9133228257457,-2.53962725274726,-5.09716208306686,-27.2665049518383,-43.8193772506153,-5.61961220275064,19.5901219286118,1.49979657439946,-8.89393297627208,17.5238823354772,-139.916974491233,426.826549450549,-0.388766416831518,-0.016918232196401,5.72631746750237,-1.82129306834833,7.69251363484137,-0.155381339578591,-0.847589261520768,-0.0364930944385203,0.182792703687844,-10.199420687641,-69.6991100642086,-45.7995415489837,-0.208522655636577,-3.00775079969713,-2.95899026491953,-2.58503121941863,-1.00464163265307,9.97966744113027,-2.35225343799056,-10.4914805124329,-19.8876819970153,10.6744678954203,2.5971444897959,10.805326844584,1.75596043956044,-13.7685609628467,-3.82333794600463,-106.450490067252,-1.99480966681775,9.61431979874352,-1.71710479463101,4.40836456061083,0.733183769013481,-25.9291797685129,726.599196232339,0.0597479415036258,0.15436216825855
15.485,-14.4917868625036,47.9944120222298,50.1633920041926,0.209877099545078,2.77669358444792,3.09795561278746,3.12224056508775,-4.08922577970257,0.0421844434094392,11.0916987457736,-0.0781798394438149,-2.16671367437328,-2.15410676190842,-2.15663970438505,0.791055572998435,11.7156884144427,0.331457456828893,-9.27500296528868,-25.9243869217202,-60.7950375409423,1.41549739403454,12.0265728100471,-1.54408087912088,-5.87427222512937,-36.8486956993624,-45.1882616431188,-4.96675354026663,17.4612350621725,1.95963609836764,-1.59325949935075,14.5372431744107,-119.471402467353,458.167824175824,-0.382418536557882,-0.022386833595764,5.68602207734783,-4.46683403898408,5.673594780505,-0.151147620593743,-0.913328061060893,-0.0434391707308485,0.199662081643253,-10.9074701951055,-74.6122571852847,-51.1286562969141,-0.196937172954345,-2.96131385544949,-2.97056705792246,-2.58320303925154,-1.10735673469389,10.221969733124,-2.29431158555729,-11.0279791460744,-21.5492020078687,16.3320898501851,2.46019102040815,11.0423616954474,1.84814065934065,-13.0532294513247,-5.82626617826619,-111.431798592941,-2.39850970370803,9.55124167680965,-1.65591902765786,4.4913267734833,-0.160964357831227,-30.1694699788715,701.842222919937,0.0737055094599537,0.15971116827702
