time,hip_angle_l,hip_angle_l_velocity,hip_angle_l_velocity_filt,hip_angle_l_torque_estimated,hip_angle_l_torque_desired,hip_angle_l_torque_measured,hip_angle_l_torque_interaction,knee_angle_l,knee_angle_l_velocity,knee_angle_l_velocity_filt,knee_angle_l_torque_estimated,knee_angle_l_torque_desired,knee_angle_l_torque_measured,knee_angle_l_torque_interaction,thigh_imu_l_accel_x,thigh_imu_l_accel_y,thigh_imu_l_accel_z,thigh_imu_l_gyro_x,thigh_imu_l_gyro_y,thigh_imu_l_gyro_z,shank_imu_l_accel_x,shank_imu_l_accel_y,shank_imu_l_accel_z,shank_imu_l_gyro_x,shank_imu_l_gyro_y,shank_imu_l_gyro_z,foot_imu_l_accel_x,foot_imu_l_accel_y,foot_imu_l_accel_z,foot_imu_l_gyro_x,foot_imu_l_gyro_y,foot_imu_l_gyro_z,insole_l_force_y,insole_l_cop_x,insole_l_cop_z,hip_angle_r,hip_angle_r_velocity,hip_angle_r_velocity_filt,hip_angle_r_torque_estimated,hip_angle_r_torque_desired,hip_angle_r_torque_measured,hip_angle_r_torque_interaction,knee_angle_r,knee_angle_r_velocity,knee_angle_r_velocity_filt,knee_angle_r_torque_estimated,knee_angle_r_torque_desired,knee_angle_r_torque_measured,knee_angle_r_torque_interaction,thigh_imu_r_accel_x,thigh_imu_r_accel_y,thigh_imu_r_accel_z,thigh_imu_r_gyro_x,thigh_imu_r_gyro_y,thigh_imu_r_gyro_z,shank_imu_r_accel_x,shank_imu_r_accel_y,shank_imu_r_accel_z,shank_imu_r_gyro_x,shank_imu_r_gyro_y,shank_imu_r_gyro_z,foot_imu_r_accel_x,foot_imu_r_accel_y,foot_imu_r_accel_z,foot_imu_r_gyro_x,foot_imu_r_gyro_y,foot_imu_r_gyro_z,insole_r_force_y,insole_r_cop_x,insole_r_cop_z
26.88,-31.9067886651753,69.49194782054,68.9602863184751,0.179329883404767,4.75189330975885,1.81579390675514,1.7962958638831,-19.4405261720158,55.3716316976897,73.8938041328306,-0.19340002367038,-2.62340003581278,-1.61238134121287,-1.60050138041073,4.46868018241174,5.26074514436696,0.808959770333961,-20.3803197741479,0.985894125095288,-78.3637578739519,1.94226706299301,9.17187899343267,-1.81034157742971,-12.0665783432235,20.9902833234769,105.403662913704,-22.0748403197468,0.0706280815015772,-6.93794838126797,16.57108620982,-71.0162631964345,20.9245152974437,0.580745144366958,0,0,-20.37856367497,-24.5674000891201,-38.1421812766598,0.00298818758122661,0.0477430180389988,0.386649440234883,0.369034305300258,-38.3267560128962,-164.705520229432,-185.746590075744,0.478414334524793,-0.42731909628423,-0.949914625586469,-0.923026273440479,1.32605604461213,8.04945632153245,0.694487633855433,-21.4608556364926,5.78646286408522,79.7031679919104,-10.0635248910738,7.17153805114135,-0.335527863521444,6.11632614623269,94.2311455246345,-192.270475332871,-2.38644364467913,9.61043647686256,-1.21746577488089,-1.37597881253805,-5.19228300591509,-21.8820107432171,698.711177165504,-0.0760810921760837,0.100717744841634
26.885,-30.5209754093559,66.4336833954584,69.7236003748122,0.165611628317346,4.90716373258469,2.48560573883815,2.48728017982562,-18.5671146696601,41.9917271245085,67.188675940702,-0.189697729552019,-2.59947753434596,-1.85360728073927,-1.82018125050148,4.31150273744649,5.79355004255428,0.422676219148145,-20.3441416637772,-8.39410321830115,-74.9597265799773,1.99021950382987,8.87084422595684,-1.9115745080853,-12.444804042554,13.7776836832005,70.5937428987999,-22.1890489472053,-2.7386580449198,-5.09401551068345,18.062940026369,-29.6266472620955,9.74493622651737,1.11355004255427,0,0,-20.8676741162892,-19.7888630682055,-34.1833872185538,-0.003884477052734,0.137309879797437,0.269549455697029,0.232196920028297,-41.1100266562401,-137.754572732267,-182.889823745703,0.510336839824384,-0.151375553397631,-1.15601058979853,-1.17231148891004,0.937108468935392,8.59025329319258,0.54263823787205,-17.6588651284399,3.25728405725779,76.8483861917463,-9.93831573999975,5.05363858084676,-0.569962018723861,4.19559737745867,69.6267415534042,-188.373106170205,-2.38516755891979,9.58555296334367,-1.34124536311095,0.283708450396659,-4.46500431480818,-23.1407624168091,706.703250638314,-0.058419833197822,0.10059394559542
26.89,-29.1352282327496,63.375564796451,70.4868780343318,0.15189402735233,5.06242675170926,3.15538563253512,3.2015459116074,-17.693744813857,28.6124605402923,60.483867466683,-0.185995611968759,-2.5755561735668,-2.09482171797979,-2.02161234047587,4.15433278711432,6.32632953520573,0.0364110869758329,-20.3079652784737,-17.7736532988069,-71.5558575991486,2.03816965816851,8.56982381260877,-2.01280261168907,-12.8230117070905,6.56542795860403,35.7854827122385,-22.3032521288968,-5.54781021720584,-3.25017056365751,19.5547227074127,11.7609951067308,-1.43410977273856,1.64632953520572,0,0,-21.3567612355389,-15.0105539004771,-30.2247819261381,-0.0107568139800079,0.226872470772843,0.152455054793762,0.0814263193308456,-43.8931645859351,-110.80491032701,-180.033193633778,0.542257822975143,0.124554831776642,-1.36209672681412,-1.46664999115502,0.54817943929984,9.13102447823381,0.390796082466389,-13.8570559092727,0.728225848313564,73.9937405150706,-9.81311255922667,2.93584009755724,-0.804384995490498,2.2749601940732,45.0235107847284,-184.475922844329,-2.38389153400757,9.56067063633601,-1.46501904920539,1.9433165750869,-3.73776030225797,-24.3994540698178,714.694943028086,-0.0407594163547394,0.10047015225228
26.895,-28.0155187351916,60.5030200103851,70.4913777494495,0.138886306174026,5.16767390413395,3.69438071535485,3.78565203583906,-17.1011506672262,17.8654802331196,53.8257604056969,-0.181084486269187,-2.54277557428879,-2.27485349201088,-2.16589784901432,3.89483388249849,6.7814870282037,-0.152901138377749,-19.8086670141261,-23.5733837810435,-68.9773696083386,1.82173421199757,8.50503645901484,-2.07999999999998,-12.831772629327,1.64005943525057,9.06105829462594,-22.1249509328342,-7.25610110236965,-1.83454825953703,13.7990480903719,42.6666880912345,-12.1663291985877,2,0,0,-21.7070927390338,-11.4775382000956,-26.5893122012249,-0.0160744521882377,0.332736628593865,0.0592409247129435,-0.0389516690580007,-46.0211539600072,-92.072645544925,-174.215262338729,0.575706575677615,0.441153182173996,-1.43475166648186,-1.62651001501885,0.306774715405589,9.42709481722912,0.118059167092933,-11.4772645334181,-1.49217136772303,70.9069322572957,-9.58405997597156,1.66419772324453,-0.806511354039021,1.87187101058576,25.2390801751748,-178.567081048082,-2.42181410191876,9.50538363285372,-1.58093032843919,2.90996361607929,-3.4722326517471,-27.00515241513,731.239059321731,-0.0180370271416302,0.0994404868149889
26.9,-27.4212141787099,57.9972665439542,68.9977988567477,0.127281966676616,5.17415830978777,3.97508699555015,4.10797861476363,-17.0629844374208,12.3170255596201,47.2608016184159,-0.173787076232432,-2.49250856477917,-2.33406497298957,-2.19129562806843,3.43334066875231,7.08332853557282,0.0466634945935744,-18.395084197246,-22.3045469170901,-68.0288216614996,1.08334507000369,8.90666028286963,-2.07999999999998,-12.1111225658194,1.23045918547918,-1.69941743996964,-21.3691748904353,-6.79068637571759,-1.26457948458843,-6.26468174890928,52.873172017145,-22.014843483631,2,0,0,-21.7834251986448,-10.4036436704184,-23.5923342795915,-0.0183218480895577,0.470770442903328,0.0131875469012222,-0.110341742120049,-46.8553621637203,-89.5668911268958,-162.551570748833,0.612166905628232,0.837998610364586,-1.2439591017929,-1.51610252660425,0.356665873648416,9.24000297381851,-0.393325204896078,-11.9053429899461,-3.10285505667364,67.3621962611539,-9.15000689925894,2.06332698918718,-0.35000725611713,4.46497935876248,14.9713566207553,-168.687399835552,-2.53712224466003,9.39007560906224,-1.68130218387692,2.50833978865601,-4.11832307010589,-32.2699167745128,764.666135344428,0.0146761428081018,0.0966224770638089
26.905,-26.8268812828759,55.4913935909244,67.5041487428885,0.115677073827459,5.1806430246498,4.25580666119583,4.42597881856599,-17.0248163876625,6.76830630862436,40.6955297817435,-0.166489318219422,-2.44223915829231,-2.39327927746171,-2.21954089274951,2.97182544874921,7.38518443622348,0.246237643784104,-16.9814339738131,-21.0356495487799,-67.0802284832483,0.344920717998744,9.30830325811556,-2.07999999999998,-11.3904381381869,0.82083940396159,-12.4604062867551,-20.6133628089327,-6.32524945581168,-0.694583530736829,-26.3293683251052,63.0801426382025,-31.8638273940753,2,0,0,-21.8597612981612,-9.32969793218988,-20.595213447371,-0.0205693511577224,0.608810839341173,-0.0328680269611315,-0.179137718464536,-47.6896101465667,-87.0610172222222,-150.887322976991,0.648628974185971,1.23486296208902,-1.05315743917992,-1.39703825748441,0.406559410946045,9.05290220895239,-0.904733962196806,-12.3334418593517,-4.71361555091199,63.8172912346369,-8.71593312476954,2.46247528756824,0.106518610156196,7.05821135904679,4.70314345098347,-158.807247511428,-2.65243588585834,9.27476208681939,-1.78167882553636,2.10669680984142,-4.7644442972205,-37.5349321836482,798.094805333841,0.0473908726820124,0.0938043329361208
26.91,-26.2325767263941,52.9856401244935,66.0105698501867,0.10407273433005,5.18712743030362,4.53651294139113,4.73892754244573,-16.9866501578571,1.21985163512484,34.1305709944625,-0.159191908182666,-2.39197214878269,-2.4524907584404,-2.25144613233232,2.51033223500303,7.6870259435926,0.445802276755427,-15.5678511569329,-19.7668126848265,-66.1316805364093,-0.393468423995137,9.70992708197035,-2.07999999999998,-10.6697880746794,0.411239154190207,-23.2208820213507,-19.8575867665338,-5.85983472915962,-0.124614755788232,-46.3930981643864,73.2866265641131,-41.7123416791186,2,0,0,-21.9360937577721,-8.25580340251269,-17.5982355257376,-0.0228167470590424,0.746844653650636,-0.0789214047728528,-0.244638667592516,-48.5238183502799,-84.555262804193,-139.223631387094,0.685089304136589,1.63170839027961,-0.862364874490954,-1.26778746267155,0.456450569188872,8.86581036554178,-1.41611833418582,-12.7615203158797,-6.32429923986261,60.2725552384951,-8.28188004805692,2.86160455351088,0.563022708078088,9.65131970722351,-5.564580103436,-148.927566298897,-2.76774402859961,9.15945406302792,-1.8820506809741,1.70507298241814,-5.4105347155793,-42.799696543031,831.521881356537,0.0801040426317444,0.0909863231849408
26.915,-25.6895413843811,50.3480035403652,64.1131392229143,0.0919685257496091,5.15894751646266,4.7657845794893,4.99487447291313,-16.9848841994188,-3.01555726929372,27.698054010976,-0.151867829047412,-2.33964077535897,-2.48956122241928,-2.26557157197666,2.18203656124235,7.95716764057205,0.48705872990608,-13.5219288014662,-17.5617422899507,-64.8902247631623,-0.882970828312214,9.9550073895546,-2.00580318774015,-9.84674358540344,1.86368664807839,-33.5519397966743,-19.0927230457837,-5.20586309858853,0.284101695876008,-59.8877356910805,78.6766089071223,-51.1013685101412,2,0,0,-21.975474272687,-6.02064916110213,-14.7225410934172,-0.0242214407214854,0.865863467548471,-0.0954712967678374,-0.276741691840238,-49.3135308347313,-81.8615884505717,-127.851817278353,0.720954032383543,2.04901441529082,-0.675704083616386,-1.13124605712792,0.687597826334106,8.78217503012665,-1.6795550351288,-12.9606743765054,-6.69581224889197,55.0974688565012,-7.96735044678385,3.2955760442009,0.81532866465065,12.2146496480944,-11.8664976262196,-142.210669815052,-2.88306850215124,9.09126768144491,-1.91437952257065,0.962093015313514,-6.51472367056639,-45.6757433446714,868.136445283191,0.10630467968825,0.0877336273329615
26.92,-25.2518041652186,47.4398966904798,61.3868712157069,0.0788393753289119,5.05961176652713,4.8894492183917,5.13929876967667,-17.0578405541967,-4.55514339242674,21.5380419677556,-0.144489720732261,-2.28307681711085,-2.4811771829577,-2.23916235697021,2.1271996998704,8.16220981787589,0.203337577590308,-10.1781459502293,-13.4349962006602,-63.0476120299984,-0.861512926036237,9.87871262590666,-1.77930310816033,-8.81358532767094,7.13838635707169,-43.0004811280741,-18.3092790897106,-4.1648876121513,0.361760863719838,-59.8960803944744,74.178793768758,-59.5462447248603,2,0,0,-21.9389963226742,-1.40189050748294,-12.0960977661027,-0.0238961055281077,0.945836814637105,-0.0514550860417683,-0.243895717377621,-50.0118256192747,-78.7824174548743,-117.080279664091,0.755592604435054,2.50828091725839,-0.497543230624667,-0.990903873300793,1.29080330142562,8.91092244378254,-1.433981264637,-12.6898750610884,-4.52353078391594,46.5761208333228,-7.8982083172279,3.8010288533685,0.648433869170786,14.7165998448825,-10.0268283638754,-141.986966032751,-2.99841521119728,9.11981884536193,-1.80702713032634,-0.481546953081643,-8.55918498340759,-43.6479713249298,911.290670971556,0.119133884879976,0.0835889302559524
26.925,-24.8140878185155,44.5319285067613,58.660733204113,0.0657108509405637,4.96028075318086,5.01310796063956,5.27763754568765,-17.130793430224,-6.09465610405283,15.3783236500761,-0.137111964224677,-2.22651555598072,-2.47279354326912,-2.21807824960324,2.07236545326392,8.36724221823059,-0.0803700461563094,-6.83452253933447,-9.30844688545363,-61.2050871574454,-0.840056046929356,9.80242150019329,-1.55281382869875,-7.78047633363564,12.4128345545397,-52.448571928226,-17.5258724903015,-3.12396176215726,0.439416328570733,-59.9044246999708,69.6811930980237,-67.9907182657183,2,0,0,-21.9025201120258,3.21664791160195,-9.46977967449903,-0.0235707858475659,1.02580634838666,-0.00744097412414509,-0.206307202158149,-50.7100871072902,-75.7033932821311,-106.309255665011,0.790229524828542,2.96752552019381,-0.319390872809993,-0.83775247195016,1.89398001409699,9.03966371842385,-1.18841920374708,-12.4190886580934,-2.35135289902121,38.0551791303821,-7.82906948455014,4.30645756121962,0.481547031672779,17.218430742119,-8.18724682178974,-141.763272917233,-3.1137564202095,9.14836864788452,-1.69967985692582,-1.92511808493434,-10.6035488109678,-41.6202959946798,954.442838953184,0.131962478341528,0.0794444308089775
26.93,-24.376350599353,41.623821656876,55.9344651969056,0.0525817005198665,4.86094500324533,5.13677259954195,5.40991993478261,-17.2037497850019,-7.63424222718585,9.21831160685576,-0.129733855909526,-2.1699515977326,-2.46440950380753,-2.20256169483198,2.01752859189197,8.57228439553443,-0.364091198472082,-3.49073968809765,-5.18170079616312,-59.3624744242814,-0.818598144653379,9.72612673654535,-1.32631374911893,-6.74731807590314,17.687534263533,-61.8971132596259,-16.7424285342284,-2.08298627572003,0.517075496414563,-59.9127694033646,65.1833779596593,-76.4355944804374,2,0,0,-21.866042162013,7.83540656522114,-6.84333634718452,-0.0232454506541883,1.1057796954753,0.036575236601924,-0.163745515941099,-51.4083818918337,-72.6242222864336,-95.5377180507477,0.824868096880053,3.42679202216138,-0.141230019818273,-0.671618362365468,2.4971854891885,9.16841113207974,-0.942845433255282,-12.1482893426763,-0.179071434045176,29.5338311072037,-7.7599273549942,4.81191037038721,0.314652236192915,19.7203809389071,-6.34757755944554,-141.539569134932,-3.22910312925554,9.17691981180154,-1.59232746468151,-3.3687580533295,-12.648010123809,-39.5925239749382,997.59706464155,0.144791683533254,0.0752997337319684
26.935,-23.9544489673739,38.7144520583037,53.1642142922544,0.0396233844129241,4.75253669034531,5.24563759755297,5.52152942399508,-17.2864925381692,-9.2431146806574,3.39680018391058,-0.122294958686019,-2.11362051972861,-2.45181805287325,-2.1884853958769,1.97765086428207,8.77135866278738,-0.579077756860073,-0.513092871143357,-1.50890890510191,-57.6536602131635,-0.773221975012846,9.67880837469339,-1.13733207827029,-5.67986483069678,21.6791474304662,-70.4626659595492,-15.9917802637768,-1.08133710934599,0.546591610623967,-58.2999314208441,59.8691118078337,-84.7480157286682,1.93624279764961,0,0,-21.8037679491071,12.4790431366541,-4.11449387276675,-0.0230019935507543,1.17516942138634,0.0937823760939805,-0.102934254149427,-52.0798059363319,-69.406478341785,-85.4961012589822,0.858117469512004,3.88332168600356,0.074842129986353,-0.45478933923635,3.03466415654057,9.29020115237604,-0.791525700268146,-11.9352262106745,1.14169577187433,21.8136196172973,-7.59543818814535,5.30196211991557,0.21494882765704,21.7322508238552,-4.79559122131999,-141.139058449173,-3.3133491673454,9.20716304114217,-1.48622641450388,-4.71149148248458,-14.3385502405627,-37.8093368007981,1038.21973871869,0.157110951381066,0.0714990099022913
26.94,-23.6354183327464,35.7958260701532,50.1068311836868,0.0277718317293936,4.58506596322967,5.2582591426346,5.5313676203706,-17.4329325376788,-11.3033208846719,-0.224602340208847,-0.114457922992791,-2.05878433546819,-2.41184982678141,-2.1525997541491,2.03507889782647,8.93167858976554,-0.346972787951401,0.0836387531349982,-0.78810436884488,-56.8146909988316,-0.572223857607396,9.8199856238234,-1.19236727708369,-4.38891572272826,17.3247790434053,-73.2868017655399,-15.4542230918476,-0.335175727732925,0.262912746379989,-46.1395449344414,49.2413365873474,-92.2016962809043,1.45767585144617,0,0,-21.5736480150773,17.2861906417567,-0.718493868152007,-0.0232911257758111,1.17572983719746,0.236826566165438,0.0487228046422841,-52.5766566029636,-65.2860650209619,-80.1995557534527,0.882340990863819,4.32220962581521,0.537632144614895,0.0210278187073925,3.14473455416737,9.3667718637686,-1.25334280335446,-12.0977026430275,-3.07678323540039,19.3026202082052,-6.81058839637172,5.69199418107137,0.552338524730454,20.5565122770098,-5.11463585212229,-139.58814704944,-3.19529289694125,9.2484252097936,-1.38822827903494,-5.39823513700194,-13.7271808937643,-37.6167135319276,1062.38736950197,0.166117115494998,0.0699347216463162
26.945,-23.3164029103369,32.8773392497497,47.0495938591698,0.0159208441589988,4.4176032215578,5.27088008588784,5.53615926476465,-17.5793655545449,-13.3634288526478,-3.84583218635173,-0.106621260989993,-2.00395076594095,-2.37188350647948,-2.12205175108211,2.09250419305152,9.09199087226882,-0.114878886416795,0.680341923683415,-0.0673342024398585,-55.9757617887536,-0.371235324319694,9.96115614125165,-1.24739985167437,-3.09802817060125,12.970618284057,-76.1108029093235,-14.916691552055,0.410950074947202,-0.0207525913112414,-33.9797382871806,38.6140681270756,-99.6550214220898,0.979131724570711,0,0,-21.3435390537699,22.0931089294501,2.67734420626988,-0.0235802442142846,1.17629022628648,0.3798639355145,0.205200416509079,-53.0734835784517,-61.1658481722598,-74.9032628011134,0.906563357174561,4.76107663829806,1.00040009220097,0.508290473340662,3.25479970334874,9.44333892406868,-1.71513788578929,-12.2601713280778,-7.29506109452484,16.791740530155,-6.02577602829597,6.08200764447487,0.889712134177648,19.3808297924638,-5.43366527003927,-138.037309601232,-3.07724225576989,9.28968541095652,-1.29023481637428,-6.08494604577952,-13.1158406986609,-37.4240994478402,1086.55384790918,0.175122850171389,0.0683705079797106
26.95,-22.9973722757094,29.9587132615993,43.9922107506023,0.0040692914754682,4.25013249444215,5.28350163096947,5.536500478127,-17.7258055540545,-15.4236350566623,-7.46723471047116,-0.0987842252967645,-1.94911458168053,-2.33191528038764,-2.09646710723015,2.14993222659592,9.25231079924697,0.117226082491877,1.27707354796177,0.653470333817168,-55.1367925744216,-0.170237206914244,10.1023333903817,-1.30243505048777,-1.80707906263273,8.61624989699608,-78.9349387153141,-14.3791343801258,1.15711145656027,-0.30443145555522,-21.8193518007779,27.9862929065893,-107.108701974326,0.500564778367277,0,0,-21.1134191197401,26.9002564345527,6.07334421088463,-0.0238693764393414,1.1768506420976,0.522908125585957,0.366209520393246,-53.5703342450834,-57.0454348514367,-69.6067172955838,0.930786878526376,5.19996457810972,1.46319010682951,1.00599106417192,3.36487010097554,9.51990963546125,-2.1769549888756,-12.4226477604309,-11.5135401017996,14.2807411210629,-5.24092623652234,6.47203970563067,1.22710183125106,18.2050912456184,-5.75270990084157,-136.486398201499,-2.95918598536573,9.33094757960795,-1.19223668090534,-6.77168970029688,-12.5044713518625,-37.2314761789698,1110.72147869245,0.184129014285321,0.0668062197237355
26.955,-22.6783568532999,27.0402264411957,40.9349734260853,-0.00778169609492659,4.08266975277029,5.29612257422271,5.53307220032602,-17.8722385709206,-17.4837430246381,-11.088464556614,-0.090947563293966,-1.89428101215329,-2.29194896008571,-2.07535655082185,2.20735752182096,9.41262308175026,0.349319984026484,1.87377671851019,1.37424050022219,-54.2978633643437,0.0307513263734584,10.2435039078099,-1.35746762507845,-0.516191510505717,4.26208913764773,-81.7589398590977,-13.8416028403333,1.90323725924039,-0.58809679324645,-9.65954515351715,17.3590244463176,-114.562027115511,0.0220206514918135,0,0,-20.8833101584327,31.7071747222462,9.46918228530652,-0.0241584948778148,1.17741103118663,0.665945494935019,0.531326100159884,-54.0671612205714,-52.9252180027346,-64.3104243432446,0.955009244837118,5.63883159059256,1.92595805441558,1.51283001163272,3.4749352501569,9.59647669576133,-2.63875007131043,-12.5851164454812,-15.731817960924,11.7698614430126,-4.45611386844659,6.86205316903417,1.56447544069826,17.0294087610725,-6.07173931875856,-134.935560753291,-2.84113534419438,9.37220778077088,-1.09424321824468,-7.45840060907447,-11.893131156759,-37.0388620948824,1134.88795709966,0.193134748961712,0.0652420060571299
26.96,-22.4149601018148,27.6654256092474,38.1542862104753,-0.0113513947907601,3.8426341443093,5.11989170018808,5.33776557899222,-18.0872055388851,-19.8570284287023,-13.3153931862029,-0.0827971487306042,-1.82755489634514,-2.20635699145406,-2.01249566173366,2.4640504219465,9.81166106716754,0.180047617787901,3.06432549142176,-1.48071724537957,-54.1514446511801,-0.0579152667918646,10.6469537842914,-1.51348879659269,0.209700181032491,-3.43628753044289,-84.1922009705799,-13.31552585717,3.18427135383751,-0.311499629698621,6.07157323395827,10.7198633494722,-122.546359126907,0,0,0,-20.5777307989269,30.7891257087445,13.4920977725744,-0.0314557514525167,1.07518515382356,0.835380332694193,0.726452835876349,-54.5585372827507,-52.7356224060059,-61.4718386009307,0.977162070908564,6.07443808099917,2.46838178999452,2.10707401329773,3.95369818258777,9.92285574455704,-2.37419327531019,-12.3344909550698,-17.3438513776336,10.8016054510283,-5.6002759186265,6.76091386471257,1.2280343112616,16.6453305990664,1.25150781496733,-126.996998250422,-2.86866116040926,9.27396495826459,-1.54417432723659,-8.6107331342708,-12.2632767649757,-40.6978519076705,1162.19894976323,0.198081391076627,0.060946479349907
26.965,-22.1542591774998,28.4615165541618,35.3870768547299,-0.0145214826772444,3.59911011775248,4.93456072254927,5.13110779500927,-18.30546736844,-22.245300734372,-15.4749590126426,-0.0746320082809835,-1.76025850108254,-2.11856863362515,-1.95063379471789,2.73034178989974,10.2221935927621,-0.00857543451230455,4.28345778297719,-4.50800080081494,-54.0384351971876,-0.160548398190506,11.0630340467183,-1.6743731647311,0.908304078440657,-11.2955813762847,-86.6064938513287,-12.790027657639,4.49104171412189,-0.00789308360807378,21.9741608427522,4.27339294922326,-130.555904178625,0,0,0,-20.2685265403908,29.5949895559097,17.5450580835494,-0.0390906676485953,0.968006683805473,1.00607993389506,0.925882589627287,-55.0496258701759,-52.7356224060059,-58.7519376211209,0.999213969346832,6.50986553355432,3.01462046092996,2.71136425554577,4.45022062908389,10.2612676913309,-2.0746154863628,-12.0639531712696,-18.8300969240803,9.90780340581493,-6.83742123224254,6.6360897859845,0.859109811909731,16.2994531792712,8.94299974427484,-118.750732637878,-2.90320720732147,9.16899838032178,-2.02051105828756,-9.78546644555794,-12.6807439933551,-44.5424337017987,1189.66024708341,0.202832003253824,0.0565194275985752
26.97,-21.8935458216878,29.2576454605918,32.619735544888,-0.0176917217290469,3.35557447877726,4.74922090742166,4.92297246198499,-18.5237396057881,-24.6336869245635,-17.634627817759,-0.0664664784774718,-1.69295889679819,-2.03077608961734,-1.89122212847872,2.99664585592975,10.6327456945583,-0.197207481283556,5.50264820873183,-7.53542871195844,-53.9254203543508,-0.26318642363957,11.4791341498902,-1.83526520462422,1.60694128870455,-19.1552499917534,-89.0209018573877,-12.2645043997799,5.79787438761787,0.295727939929714,37.8775067648173,-2.17338485031045,-138.565831164684,0,0,0,-19.959307537481,28.400796460814,21.5982116595243,-0.0467259479148755,0.860823102992955,1.17678767488903,1.12773102611098,-55.5407378751104,-52.7356224060059,-56.0319069431097,1.02126691932763,6.94531374942322,3.56088517920081,3.32033512775369,4.94676675220231,10.599695775244,-1.77502341207904,-11.7934024869026,-20.3164133419947,9.01395873974201,-8.0746255390069,6.51125975503294,0.490167720430674,15.9535592663464,16.6348584415919,-110.504073802999,-2.93775490155842,9.0640267970584,-2.49687050340705,-10.9602557738834,-13.0982311286168,-48.3871988244184,1217.12285389275,0.207582841963479,0.0520921647437314
26.975,-21.6381141178373,29.6386372220372,30.4669153268827,-0.0194989890545461,3.11043901017748,4.57139056980597,4.72164266346406,-18.7494531054133,-26.2570678407026,-19.5543779852633,-0.057410954830534,-1.6223924717179,-1.95933114007112,-1.849832703007,3.18243475306143,10.9439998954481,-0.261652312557986,6.30220073744607,-9.20976989378783,-53.8766505046809,-0.380695531711894,11.8112172458408,-1.94382607786505,2.22469097079531,-25.1619946636566,-91.1617807194302,-11.7253921463347,6.99060315668411,0.888322260760335,46.4322211980985,-7.34421500208449,-141.47335229074,0,0,0,-19.6973881710915,26.1822022393268,24.5875069456087,-0.0550907916460413,0.731230622200389,1.29548019601143,1.27931364935236,-55.9900544619276,-51.0885154720332,-53.660798193484,1.03742978842757,7.35898129645537,4.07204921908917,3.89727009577625,5.21930446828808,10.7913044160121,-1.49391324803637,-11.7377345500725,-20.7808922313237,6.49780384476814,-8.87521740266868,6.56104316687796,0.156261092306283,16.9872219148589,18.3461162588415,-106.504451927652,-2.96024417877197,8.99569416046143,-2.80696296691895,-11.7250003814697,-13.3699998855591,-50.8899993896484,1235,0.210675463080406,0.0492101795971394
26.98,-21.3924992852636,29.2453331354747,29.4600561862831,-0.0187641764865942,2.86228591492067,4.40754322941053,4.53431713655217,-18.9890774980713,-26.4537198839839,-21.0268744991933,-0.0466941042982159,-1.5457228626055,-1.91836930497226,-1.83980484150449,3.21806552792191,11.0700780218775,-0.0944617535972279,6.31911943396102,-8.36045132873724,-53.9477090300437,-0.525959459989278,11.9866302913078,-1.95478939320674,2.69164699460798,-27.7133340981113,-92.7927430634716,-11.1608589228125,7.97065891379437,2.02001427922213,41.2808333810116,-10.1357492859717,-134.863844139623,0,0,0,-19.5236601858207,22.0525077621055,25.5928147910185,-0.064817619974331,0.559821514135187,1.31716587341671,1.33496366624661,-56.3614721921319,-46.3688643421966,-51.9402033197388,1.04260820318725,7.7320782705387,4.51781043109968,4.41030618125051,5.07404054001071,10.7090795509495,-1.24723865284838,-12.0828759589776,-19.3394192882498,0.955238866469922,-8.86151325849157,6.9365367173308,-0.112340133565097,20.5942880118467,8.90209986419542,-110.426205779818,-2.96024417877197,8.99569416046143,-2.80696296691895,-11.7250003814697,-13.3699998855591,-50.8899993896484,1235,0.210675463080406,0.0492101795971394
26.985,-21.1468961642497,28.8520478026832,28.4532450553699,-0.0180293989564341,2.6141446522547,4.24370370168629,4.3476874349954,-19.2286904648094,-26.6503625503796,-22.4993008006251,-0.0359777647734571,-1.46905690930127,-1.8774094230412,-1.82986628638116,3.25369460381354,11.196150136571,0.0727208332788948,6.33603732374812,-7.51117326142483,-54.0187641671495,-0.671216461701324,12.1620349726205,-1.96575218578879,3.15858075273193,-30.264551878006,-94.423627638948,-10.596352617716,8.95066793927403,3.15165233563842,36.1296911956154,-12.9271504621781,-128.254651147202,0,0,0,-19.3499404843563,17.9230101995552,26.5980747007119,-0.0745439845019184,0.388420579306114,1.33885051679198,1.39101593618026,-56.7328722121639,-41.6494382577123,-50.2196904884728,1.04778637102651,8.10515745437914,4.96355038804573,4.92333057481844,4.92878353829868,10.6268586065841,-1.00057581975247,-12.4280009106344,-17.898015078389,-4.58706182778393,-8.84780976776401,7.31201236326569,-0.380928551825096,24.2011821144563,-0.541466214963622,-114.347772632468,-2.96024417877197,8.99569416046143,-2.80696296691895,-11.7250003814697,-13.3699998855591,-50.8899993896484,1235,0.210675463080406,0.0492101795971394
26.99,-20.901281331676,28.4587437161207,27.4463859147704,-0.0172945863884822,2.36599155699789,4.07985636129085,4.16233069436751,-19.4683148574675,-26.8470145936608,-23.9717973145551,-0.0252609142411391,-1.39238730018886,-1.83644758794234,-1.81924750028881,3.28932537867403,11.3222282630004,0.239911392239652,6.35295602026307,-6.66185469637424,-54.0898226925123,-0.816480389978709,12.3374480180875,-1.97671550113048,3.6255367765446,-32.8158913124607,-96.0545899829893,-10.0318193941939,9.93072369638429,4.28334435410022,30.9783033785285,-15.7186847460654,-121.645142996085,0,0,0,-19.1762124990855,13.7933157223339,27.6033825461217,-0.0842708128302081,0.217011471240912,1.36053619419726,1.44682235561309,-57.1042899423681,-36.9297871278757,-48.4990956147276,1.05296478578619,8.47825442846248,5.40931160005625,5.4349899784266,4.78351961002131,10.5446337415215,-0.753901224564481,-12.7731423195394,-16.4565421353151,-10.1296268060822,-8.8341056235869,7.68750591371853,-0.649529777696476,27.808248211444,-9.98548260960973,-118.269526484633,-2.96024417877197,8.99569416046143,-2.80696296691895,-11.7250003814697,-13.3699998855591,-50.8899993896484,1235,0.210675463080406,0.0492101795971394
26.995,-20.6636764204142,27.8400515403171,27.1095225460484,-0.0172041285930393,2.15639232593855,3.86200417966122,3.92475681639436,-19.7308257357818,-26.6554986157305,-24.8592655017849,-0.0152361358922669,-1.31544405646536,-1.79809395141146,-1.80983722582366,3.19179853379752,11.3652355548163,0.605878473913736,5.60824153248774,-4.68807706034277,-54.4084389154907,-1.00485034991624,12.32019260245,-2.00268740420377,4.00458707185335,-32.7335090358905,-98.5620225772945,-9.66248071092705,9.92172459220186,4.62238788604736,18.7579579574122,-14.2888775973,-114.925077982777,0.349036987749961,0,0,-19.093649706028,10.8030834068821,26.2936019987927,-0.086740650113413,0.0746680537929653,1.26423968980758,1.38378477559125,-57.4787593765182,-37.6444915828685,-47.1107812519478,1.06142556933719,8.79040948822525,5.91567471926426,6.00459408672474,4.65274075306252,10.7660710763637,-0.566562978981264,-13.1630982677207,-12.6614398896439,-11.613450413608,-8.51237634114752,8.20313772085122,-0.628779273552522,27.1307766542965,-13.0001060552253,-117.94056902809,-3.19138445182866,9.12902810990201,-2.62138197167442,-11.5539721709267,-15.2757420184224,-53.7425043850703,1244.0749616815,0.215120345706589,0.0436831693986776
27,-20.4294816896188,27.1249042952816,27.059236422107,-0.0173892965177677,1.96327078615927,3.62103583043518,3.6662674206381,-20.0031445049089,-26.2979252308523,-25.4965399588629,-0.00550671870558433,-1.23837852315135,-1.76085339753079,-1.79947996026099,3.03730499150459,11.3727110487982,1.056899944156,4.53767696223803,-2.2331617527012,-54.8329731416242,-1.21167235008258,12.2205193493578,-2.03508121145873,4.34606025374335,-31.5245093919016,-101.444548446042,-9.37661411083976,9.48964265219385,4.62238788604736,3.51293382091347,-11.0532345261146,-108.15726318528,0.847403253211031,0,0,-19.0500784938449,8.30006858394687,23.9934204334814,-0.0861063748626456,-0.0552517940246198,1.11746808024891,1.26884268071803,-57.8545597151703,-40.6838672554496,-45.8645100629175,1.07129100865477,9.0765170335125,6.44799563708619,6.59637281412137,4.52814918669725,11.1174192935138,-0.404593942706407,-13.5722508189943,-7.85928099838013,-11.3611909459055,-8.05886303957795,8.77875075745875,-0.484253056568802,24.6204873171593,-13.2646708628158,-115.793287217646,-3.52141398658796,9.3194066221343,-2.35640344278906,-11.3097725772782,-17.9968220844905,-57.8154029937295,1257.03248458349,0.221466892441087,0.035791526024349
27.005,-20.1952981258429,26.4097911503436,27.00895269594,-0.0175744556132035,1.77015845492186,3.38007897121245,3.41030458142001,-20.2754502891623,-25.9403688960115,-26.1337840290223,0.00422223455695236,-1.16131666452424,-1.72361461937746,-1.78647959302421,2.88281881586921,11.3801861863289,1.50789990851089,3.46716343931668,0.221636498135686,-55.2574871248517,-1.41848448843316,12.1208508489479,-2.06747347409196,4.68751715329585,-30.3155673961887,-104.32693686839,-9.0907611416222,9.05758131498671,4.62238788604736,-11.7313633928246,-7.81774573888256,-101.389771094954,1.34574575526063,0,0,-19.0065093592515,5.79717311132739,21.6933485468638,-0.0854721298557869,-0.185165446922893,0.970703469145773,1.15196755623148,-58.230342134676,-43.723098002622,-44.6182982993683,1.08115597756231,9.36261093644112,6.9802911724497,7.18337586789039,4.40356356118485,11.4687507574587,-0.242632629540281,-13.9813838608004,-3.05735108665532,-11.1089435065965,-7.60537136271282,9.35433634732604,-0.339733730974409,22.1103176772058,-13.5292230552618,-113.646107795235,-3.85142778467291,9.50977605661948,-2.09143754877538,-11.0655846277072,-20.7177724023198,-61.8881073958939,1269.98938963678,0.227813136555581,0.0279002589442877
27.01,-19.9611033950475,25.694643905308,26.9586665719986,-0.0177596235379319,1.57703691514259,3.13911062198641,3.15706005575348,-20.5477690582894,-25.5827955111333,-26.7710584861003,0.0139516517436349,-1.08425113121024,-1.68637406549678,-1.77033545071117,2.72832527357628,11.3876616803108,1.95892137875316,2.39659886906697,2.67655180577725,-55.6820213509852,-1.6253064885995,12.0211775958557,-2.09986728134692,5.02899033518585,-29.1065677521998,-107.209462737137,-8.8048945415349,8.62549937497869,4.62238788604736,-26.9763875293234,-4.58210266769713,-94.6219562974568,1.84411202072169,0,0,-18.9629381470683,3.29415828839212,19.3931669815524,-0.0848378546050195,-0.315085294740478,0.823931859587101,1.0326989370379,-58.6061424733281,-46.7624736752031,-43.372027110338,1.09102141687988,9.64871848172837,7.51261209027163,7.7648534917894,4.27897199481959,11.8200989746088,-0.0806635932654246,-14.390536412074,1.74480780460845,-10.856684038894,-7.15185806114325,9.92994938393357,-0.195207513990689,19.6000283400685,-13.7937878628523,-111.498825984792,-4.18145731943222,9.70015456885177,-1.82645901989002,-10.8213850340587,-23.438852468388,-65.9610060045531,1282.94691253876,0.234159683290079,0.020008615569959
27.015,-19.7743089081084,23.474287424542,26.4800479899107,-0.0188492955447804,1.40263760535191,2.91694934677705,2.92546939548674,-20.758653519202,-23.6073980216383,-26.5913558751066,0.0234061113566145,-0.998631460094039,-1.64047502828352,-1.74199085885612,2.22732562630347,11.4233940111743,2.34488941527848,1.02875863925753,2.95200875154445,-56.2362481519944,-1.76235369087772,11.9343433147094,-1.66474651767554,2.90724465894183,-25.2309564428526,-108.525673252576,-8.71547603607178,8.4903450012207,4.62238788604736,-31.7450008392334,-3.5699999332428,-92.504997253418,2,0,0,-18.9411994939582,2.11188823194752,16.4288011450426,-0.0817126393331338,-0.396260649272506,0.683426013432524,0.91693210362964,-59.0926927720451,-51.7065043927111,-43.7130347120903,1.07130716535682,9.89838350023939,7.89277748186337,8.18799266597888,4.3494581477381,11.9485522284302,-0.527199721928963,-16.1492823015176,6.59318589339533,-11.1304991578085,-6.95248809186641,10.6981056412369,-0.0906328690233828,17.3970580989772,-11.8403788796993,-110.105684943764,-4.29979715206961,9.77614490144693,-1.61560737701347,-10.1021652306086,-24.7640100546798,-75.4814655814002,1282.17642060815,0.23781111884027,0.0148125642498771
27.02,-19.6090784212532,20.5685938441387,25.8064159081333,-0.0203507805035901,1.23674869937883,2.70333378277956,2.70529510335082,-20.9415872357232,-20.8954172607688,-26.0397464381356,0.0327360641883937,-0.909111937221995,-1.59063139668411,-1.70586364094879,1.56855892273231,11.4719915548804,2.70127140245631,-0.474498714064621,2.23537830594742,-56.8495504868309,-1.86764836890753,11.8533474085327,-1.01677926826128,-0.335924752992658,-20.141213696682,-109.128976092823,-8.71547603607178,8.4903450012207,4.62238788604736,-31.7450008392334,-3.5699999332428,-92.504997253418,2,0,0,-18.9293976841529,1.5307494917282,13.1618877278722,-0.0774533118029864,-0.455252761795046,0.545762641921253,0.800937957470524,-59.6296910818872,-57.5178920684758,-44.7766077066076,1.03812663903214,10.1314769199277,8.20370686716282,8.53524553347211,4.50875009655243,11.9755508638224,-1.25076315044154,-18.5224956841459,11.4629397585919,-11.6438065467477,-6.86879232215041,11.5539623831715,-0.00423723576815155,15.3338290486303,-8.87719531627717,-109.055738011843,-4.32178238710189,9.80007011239286,-1.42938008501993,-9.16666260180965,-25.4538247563873,-87.482358189327,1275.15677540616,0.240235972062136,0.0108432069707736
27.025,-19.4438558130213,17.6630388148312,25.1328159469015,-0.0218521938676565,1.07086770342415,2.48972840453278,2.48793929203633,-21.1245122294847,-18.1835658142595,-25.4881633033501,0.0420655721435359,-0.819596682875741,-1.54079014175986,-1.66571258473175,0.909823630886489,11.520586781328,3.05763639640569,-1.97768438813094,1.51878203117079,-57.4628235778025,-1.97293802621076,11.7723553644533,-0.368842915626035,-3.57893952209804,-15.0517136428034,-109.732250166007,-8.71547603607178,8.4903450012207,4.62238788604736,-31.7450008392334,-3.5699999332428,-92.504997253418,2,0,0,-18.9175964370889,0.949638461729179,9.89513008570749,-0.0731941873687541,-0.51424206141884,0.408105834560827,0.681647213448055,-60.1666637862405,-63.3290026420244,-45.8401299871731,1.00494769484203,10.3645592251101,8.51462142653315,8.87552201541158,4.66803444990859,12.0025482118489,-1.97429207755089,-20.8955959057318,16.3324614211438,-12.1570894598435,-6.78510054326835,12.4097783156106,0.082154277916545,13.2706983784595,-5.91415304522404,-108.005841144147,-4.34376657382047,9.82399418252194,-1.2431616728324,-8.23120458023123,-26.1436065659194,-99.4826785631984,1268.13746491928,0.242660709660636,0.0068740389610425
27.03,-19.2786253261662,14.7573452344279,24.4591838651241,-0.0233536788264662,0.904978797451071,2.27611284053529,2.27324171662283,-21.3074459460059,-15.4715850533901,-24.936553866379,0.0513955249753151,-0.730077160003697,-1.49094651016044,-1.62145387695792,0.251056927315336,11.5691843250341,3.41401838358353,-3.48094174145309,0.802151585573751,-58.076125912639,-2.07823270424057,11.6913594582765,0.279124333788223,-6.82210893403253,-9.96197089663281,-110.335553006253,-8.71547603607178,8.4903450012207,4.62238788604736,-31.7450008392334,-3.5699999332428,-92.504997253418,2,0,0,-18.9057946272836,0.368499721509856,6.62821666853714,-0.0689348598386067,-0.57323417394138,0.270442463049557,0.55888489405404,-60.7036620960826,-69.1403903177891,-46.9037029816904,0.971767168517353,10.5976526447984,8.8255508118326,9.20868375071576,4.82732639872292,12.0295468472411,-2.69785550606347,-23.2688092883601,21.2022152863403,-12.6703968487828,-6.70140477355235,13.2656350575452,0.168549911171776,11.2074693281127,-2.95096948180187,-106.955894212226,-4.36575180885275,9.84791939346788,-1.05693438083886,-7.29570195143229,-26.8334212676268,-111.483571171125,1261.11781971729,0.245085562882501,0.00290468168193895
27.035,-19.1397596026105,14.7085752487183,22.9434854423612,-0.0277728805663226,0.760669953107218,2.06071259400892,2.059220586887,-21.4051894321956,-12.9009701731976,-23.0116149535276,0.0605639663710854,-0.633323307903329,-1.39491222959176,-1.52692790019892,0.158784465101629,11.8759118481172,2.56723688356705,-4.58570443506897,4.18580178834367,-57.4146369335566,-2.23701670080352,12.0067405861037,-0.089005829525749,-9.43667077087066,2.04843738754772,-106.822996963667,-8.79846839831911,16.0316059182568,3.56683175582031,47.8177964988235,-16.5414746320678,-41.4434374488769,7.6850874428864,0,0,-19.0298551789039,-4.69144676722339,3.87036790884632,-0.0688906343577269,-0.559049797251707,0.158654525303781,0.458440337415682,-61.4937295149765,-75.0650751156865,-51.4517150101982,0.939338490983965,10.7338126550408,9.17110134842678,9.5692959736273,5.38226563730895,12.1788951473137,-2.23082834409956,-22.3327186752952,22.7879420042909,-10.4096564528396,-6.07464038128248,14.7500011816606,0.63022136442415,11.3533184726137,-0.89257051547633,-110.016440643679,-4.59240399420083,10.6296140617961,-1.39809635476426,-10.548925308744,-27.6219614910783,-134.216892967266,1232.84528123523,0.248256092453535,-0.00142605870903669
27.04,-19.0013372337742,14.7085752487183,21.4133380623041,-0.0322421068228223,0.616722516826275,1.84527143335012,1.84735599749314,-21.5014833224984,-10.3326439672919,-21.0631377064008,0.0697300951627488,-0.536441261528726,-1.29808474165521,-1.42766455595514,0.0761785095320653,12.1870609474292,1.69987435008665,-5.68371775395654,7.63961458088166,-56.7313531035368,-2.39672154823802,12.328903812825,-0.474500288850374,-12.0406280534337,14.1775752259095,-103.240006133613,-8.88288160075624,23.7019742170143,2.49320436539779,128.742719423006,-29.7350226888968,10.492302995414,13.4675043327556,0,0,-19.156241139699,-9.82809922006573,1.12107596135169,-0.068918365407031,-0.543615490469431,0.0473029018675124,0.354847427133423,-62.2881555542596,-80.9919814215031,-56.0594326768065,0.906921075980138,10.8683244573141,9.51725968344924,9.92341228412857,5.94398613518197,12.3303393991912,-1.74345320623916,-21.3400874396445,24.3176819222457,-8.10144888774774,-5.43857452339687,16.2451689774696,1.09832177931832,11.5368872627683,1.15048213050333,-113.147308342427,-4.82256117099837,11.4242830035454,-1.74827827066441,-13.8738148366007,-28.4122253637793,-157.134537397679,1204.20854997111,0.251439505704888,-0.0057631785362493
27.045,-18.8629148649379,14.7085752487183,19.883190682247,-0.036711333079322,0.472775080545332,1.62983027269131,1.63738039786226,-21.5977772128012,-7.76431776138609,-19.114660459274,0.0788962239544122,-0.439559215154122,-1.20125725371867,-1.32468710768509,-0.00642744603749826,12.4982100467412,0.832511816606259,-6.78173107284411,11.0934273734197,-56.048069273517,-2.55642639567251,12.6510670395463,-0.859994748174998,-14.6445853359968,26.3067130642713,-99.6570153035587,-8.96729480319336,31.3723425157718,1.41957697497528,209.667642347189,-42.9285707457258,62.4280434397049,19.2499212226249,0,0,-19.282627100494,-14.9647516729081,-1.62821598614294,-0.0689460964563351,-0.528181183687154,-0.0640487215687567,0.247704017612913,-63.0825815935427,-86.9188877273198,-60.6671503434148,0.874503660976311,11.0028362595875,9.86341801847169,10.2705794246089,6.50570663305499,12.4817836510687,-1.25607806837876,-20.3474562039938,25.8474218402006,-5.79324132265592,-4.80250866551125,17.7403367732787,1.5664221942125,11.7204560529228,3.19353477648299,-116.278176041174,-5.05271834779591,12.2189519452946,-2.09846018656457,-17.1987043644574,-29.2024892364804,-180.052181828091,1175.571818707,0.25462291895624,-0.0101002983634619
27.05,-18.7341486457014,14.5064585384833,18.4621668167656,-0.0413327974817871,0.335631394349371,1.43315097672162,1.44771417378179,-21.6684362044357,-5.76181644400548,-17.0174208324616,0.0876047723866184,-0.341875664744438,-1.09388502389906,-1.20777020456584,-0.0581220059117357,12.7807537457955,0.240891091631823,-6.90608456620246,14.6212663160901,-55.2189061534609,-2.38487386606872,12.9585946896341,-0.772900061155856,-16.3449258894337,33.81926654511,-95.508665003127,-8.7737590081465,33.8386007184441,0.777494808029975,250.811604588565,-42.9236951320984,103.008342051212,51.2638110284375,0.0219025628588279,-0.0176254561661325,-19.4631056682838,-20.5193158540384,-4.69315253636615,-0.0699198577597875,-0.506581950863215,-0.143693169762497,0.16880735429386,-63.9261692559135,-93.390189209622,-65.9155081652507,0.844217218041878,11.1000543305612,10.169636186262,10.5710783452105,6.79675823055754,12.5621590561614,-1.00103480786871,-21.1214733147852,27.9489137916498,-0.917066193023461,-4.10642289267148,19.2198753949648,2.15357710732851,11.7838619035575,4.44432615947584,-119.880592582526,-5.20198249816895,12.7343196868896,-2.32556414604187,-19.3549995422363,-29.7150001525879,-194.914993286133,1157,0.256687462329865,-0.0129130566492677
27.055,-18.6231849399637,13.9313172023846,17.2423326253519,-0.046235837527085,0.211025111303969,1.27106916275202,1.29383009276569,-21.6917967431808,-4.80324752927252,-14.6453624314656,0.0954700586857789,-0.242699720856933,-0.967038383417119,-1.06838287158253,-0.052778004280918,13.0105458159209,0.158059066354073,-5.23360998174133,18.286195829574,-54.1204169293474,-1.60197762715322,13.2391547752523,0.186348231576799,-16.3779135538215,32.8131427812823,-90.3164066284883,-8.06725471234324,26.7012449240128,0.931722614266022,218.547194742474,-18.5617279014436,122.638195063115,131.691035572317,0.0842282817564315,-0.0677802820434909,-19.7434341718001,-26.8458708059459,-8.34101272000344,-0.0726396070209027,-0.473602696556847,-0.164834273855094,0.145093735187382,-64.8605969214427,-100.867025304796,-72.3468503980867,0.817859277776767,11.1284617066456,10.4021881401642,10.7914501623613,6.58834216695545,12.5113910406686,-1.17471486087044,-25.1558646694124,31.1058332735617,8.69883797601834,-3.29947864641728,20.6707718377331,2.96052135358271,11.6255211144961,4.23320510739396,-124.353719873511,-5.20198249816895,12.7343196868896,-2.32556414604187,-19.3549995422363,-29.7150001525879,-194.914993286133,1157,0.256687462329865,-0.0129130566492677
27.06,-18.5122265252668,13.3562032905343,16.0225565988339,-0.0511386437825658,0.0864247698131672,1.10899507726868,1.14076541247934,-21.7151561680342,-3.84472432162113,-12.2734171364396,0.103334969947447,-0.143528505938714,-0.840197791315895,-0.926472065304972,-0.0474342574661232,13.2403269289573,0.0752309907246771,-3.56121514525772,21.9509505896002,-53.021980084083,-0.819118718785058,13.5197014830293,1.14555078483336,-16.4108996452709,31.8070669920762,-85.1243958343557,-7.36078410451899,19.5642294574374,1.0859430665155,186.28432334812,5.79907768667686,142.267112072109,212.114425135052,0.146551028800187,-0.117932716407123,-20.0237493085176,-33.1721240911094,-11.9886989640935,-0.0753592265972352,-0.440625014787878,-0.185974369884364,0.118244768039495,-65.7949800310085,-108.343504884802,-78.7778859676463,0.791502594327424,11.1568677281918,10.6347290053789,11.0056441709524,6.37993604117826,12.460625445928,-1.34838663235143,-29.1900636536717,34.2626022252674,18.3142836335129,-2.49257287738253,22.1215990979513,3.76742712261746,11.4671878755391,4.02209412211792,-128.826633874047,-5.20198249816895,12.7343196868896,-2.32556414604187,-19.3549995422363,-29.7150001525879,-194.914993286133,1157,0.256687462329865,-0.0129130566492677
27.065,-18.4012628195291,12.7810619544356,14.8027224074202,-0.0560416838278638,-0.0381815132322338,0.94691326329907,0.988132133311006,-21.7385167067793,-2.88615540688816,-9.90135873544368,0.111200256246607,-0.0443525620512089,-0.713351150833951,-0.782547339584221,-0.0420902558353055,13.4701189990827,-0.00760103455307293,-1.8887405607966,25.6158801030841,-51.9234908599695,-0.0362224798695531,13.8002615686475,2.10479907756601,-16.4438873096587,30.8009432282485,-79.932137459717,-6.65427980871573,12.4268736630062,1.24017087275155,154.019913502029,30.1610449173317,161.896965084012,292.541649678932,0.208876747697791,-0.168087542284481,-20.3040778120338,-39.4986790430168,-15.6365591477308,-0.0780789758583505,-0.407645760481511,-0.20711547397696,0.088479717888191,-66.7294076965378,-115.820340979975,-85.2092282004823,0.765144654062313,11.1852751042762,10.8672809592811,11.213987125914,6.17151997757617,12.4098574304352,-1.52206668535315,-33.2244550082988,37.4195217071793,27.9301878025547,-1.68562863112833,23.5724955407196,4.57437136887166,11.3088470864777,3.81097307003604,-133.299761165031,-5.20198249816895,12.7343196868896,-2.32556414604187,-19.3549995422363,-29.7150001525879,-194.914993286133,1157,0.256687462329865,-0.0129130566492677
27.07,-18.2909663972635,12.2093760625557,13.9631150197954,-0.0561980871943017,-0.137180774760911,0.807046815361955,0.857790997022748,-21.7863824149029,-2.85794496112742,-8.08685451734904,0.118423903790044,0.0564522610917718,-0.617004813797107,-0.667678360126069,0.121081953976564,13.3699232943076,0.298272103350811,-1.10928193703057,29.4019747105469,-49.6861296769788,0.223286233346778,13.9067783609205,2.12400888171176,-17.7414684230725,28.7926105354446,-75.3298893025713,-6.08164719472646,10.0842289664739,1.14463467686033,133.067225105492,37.231888279397,171.114136296605,353.961243439645,0.234928681303476,-0.17933112629537,-20.7552392031716,-46.1339481216696,-20.4575433848168,-0.0865137612578606,-0.413174708785967,-0.221049039870152,0.0632592057366155,-67.8483429404695,-119.322710510796,-91.422942427147,0.737498036639569,11.1332098017223,10.9893958496383,11.3063325531628,5.44245054501411,12.2901291885345,-1.35804198627369,-37.9405842391982,40.2333218698446,39.037490592463,-1.53108195397659,23.7099111828825,4.83201049656841,12.7722204777783,5.77274381096209,-135.089156038019,-5.48554146265762,13.1093118811597,-2.32479255258147,-24.5362007393681,-32.8947581944564,-216.615150584104,1129.77714977796,0.258979271761968,-0.0162119194211007
27.075,-18.1810900431291,11.6398653996101,13.367724491827,-0.0533049523187814,-0.219736161114137,0.681442020081215,0.741444871582843,-21.8499955987565,-3.42745556099116,-6.63041753438293,0.12523588630641,0.158311478137933,-0.540246324725735,-0.571543617395147,0.385666128381086,13.0577139685103,0.853898869600312,-0.90349424582706,33.2662102453685,-46.7169072753281,0.146556822769476,13.9014866774324,1.53927785627776,-19.8516088757308,26.1402358488215,-71.1063419259658,-5.5949776738846,10.8218374412581,0.888626234286318,119.380286893972,33.1943342220798,173.642240182401,403.173899878886,0.237677998303898,-0.165576458939825,-21.3161901728299,-52.9680750677073,-26.0325969823881,-0.0986209210487126,-0.443444283262486,-0.230353102138357,0.0402816231236591,-69.0859055810866,-120.27189654711,-97.4973248226403,0.709021323247096,11.0294394985284,11.0405682965927,11.3224645567852,4.37882216390794,12.1260870004037,-0.977040775131183,-43.0950759331529,42.8269000732667,51.1038355338248,-1.79566612838111,23.0034714372225,4.73676019378278,15.2776039563989,9.13067629599725,-135.154485463798,-5.95129949862696,13.7252530072743,-2.32352517648094,-33.0465509513236,-38.1176502412974,-252.258610707307,1085.06242430359,0.262743669272155,-0.0216304462108002
27.08,-18.0712189281877,11.0703818924277,12.7723623536416,-0.0504119553955249,-0.302287611009879,0.555843213966758,0.624521228812296,-21.9136057493665,-3.99693900509484,-5.17404999815452,0.132047544009571,0.2601658382693,-0.46349149570057,-0.475163201717023,0.650237686717783,12.745519529673,1.40949914210738,-0.697716367120741,37.1302615232983,-43.747826453994,0.0698310708518438,13.8961952462656,0.954574712353647,-21.9616487113543,23.4879876343845,-66.8829959391837,-5.10833135872273,11.5594107449343,0.632629998866732,105.694001311586,29.1569726859363,176.17022352157,452.384209729511,0.24042718420967,-0.151822447442917,-21.8771143948738,-59.8018761446363,-31.6073847467724,-0.110727503538411,-0.473712414406252,-0.239656720764455,0.015212517406465,-70.3234092114691,-121.221037323743,-103.571417575639,0.680545967699053,10.9256741433748,11.0917383035104,11.3335957047208,3.31524449939442,11.9620526342349,-0.596057731126339,-48.249321847416,45.4203546080733,63.1696051201922,-2.06023768671781,22.2970653764635,4.64151443278157,17.78286797176,12.4884486659988,-135.219811774498,-6.41703532603079,14.3411647636995,-2.32225786081222,-41.556495367446,-43.3402932469384,-287.900371256787,1040.34983094469,0.266507887285989,-0.0270487146309217
27.085,-17.9613425740533,10.5008712294822,12.1769718256732,-0.0475188205200046,-0.384842997363106,0.430238418686018,0.50672418064471,-21.97721893322,-4.56644960495857,-3.71761301518841,0.138859526525936,0.362025055315461,-0.386733006629198,-0.379133077800449,0.914821861122305,12.4333102038757,1.96512590835688,-0.491928675917226,40.9944970581199,-40.7786040523433,-0.00689833972545781,13.8909035627775,0.369843686919644,-24.0717891640126,20.8356129477614,-62.6594485625782,-4.62166183788087,12.2970192197185,0.376621556292722,92.0070631000656,25.1194186286191,178.698327407367,501.596866168753,0.243176501210092,-0.138067780087371,-22.4380653645321,-66.636003090674,-37.1824383443437,-0.122834663329263,-0.503981988882771,-0.248960783032661,-0.0116419425924834,-71.5609718520862,-122.170223360058,-109.645799971132,0.65206925430658,10.8219038401809,11.1429107504648,11.3399867198888,2.25161611828824,11.7980104461041,-0.215056519983829,-53.4038135413707,48.0139328114954,75.235950061554,-2.32482186112233,21.5906256308034,4.54626412999594,20.2882514503805,15.846381151034,-135.285141200277,-6.88279336200013,14.9571058898142,-2.32099048471169,-50.0668455794014,-48.5631852937794,-323.54383137999,995.635105470327,0.270272284796176,-0.0324672414206212
27.09,-17.9035114848943,8.47986797385514,11.4437263911248,-0.0424262765887931,-0.413064672464813,0.340041769276689,0.423222024336009,-22.0271500914994,-4.66369438171387,-3.30626029207117,0.142988350584406,0.464668446792313,-0.298984126236324,-0.273054667201595,1.1164049852242,11.9554721829629,2.28567005010921,-2.46495289670588,38.7027630654339,-38.3103360759363,0.384418604651181,13.3381138378517,-0.0629191828344028,-19.3179040104819,15.7760789184405,-59.7977024949915,-4.53856229782104,12.4229669570923,0.332907736301422,89.6699981689453,24.4300003051758,179.130004882812,510,0.243645951151848,-0.135719150304794,-23.0319775264857,-69.5663865300296,-43.1603956459455,-0.138937068246785,-0.597985772200121,-0.264299353409224,-0.0460014678878303,-72.6220367702708,-120.408538985004,-113.164034846335,0.618197244987419,10.5714816169791,11.1359343637189,11.2837306695713,1.66111268148529,11.9174675574971,0.236543749196982,-56.6396800243646,47.2016883901761,85.2903288744224,-3.52516253372736,19.56856225106,3.3681343954773,17.2541753711397,26.6260748735373,-128.929758273413,-7.37758524932822,16.1298689520575,-2.01574833038823,-51.2462920745571,-51.3005802816709,-346.334059486747,946.217525375819,0.273918179678117,-0.038616250413546
27.095,-17.8563943843947,6.159852873625,10.6820513035634,-0.0368805310260484,-0.430099412643196,0.257131282818259,0.345688809342841,-22.0742666780466,-4.66369438171387,-3.11009074214517,0.146564888178605,0.567479220214407,-0.208967026165319,-0.16620940146248,1.30502633945779,11.4434999357574,2.55782371836053,-4.88675793871735,35.1432419185214,-35.9450841736421,0.87213953488374,12.6725499164846,-0.464413208274467,-13.1502851260186,10.220564605035,-57.2162179996606,-4.53856229782104,12.4229669570923,0.332907736301422,89.6699981689453,24.4300003051758,179.130004882812,510,0.243645951151848,-0.135719150304794,-23.6327113067125,-71.6930681226922,-49.2216638228456,-0.155863111761404,-0.705119297072522,-0.280881449496334,-0.0827579011629048,-73.6468177736129,-118.088522888991,-116.156102611976,0.583212272659471,10.2908459982759,11.1169833967622,11.2112446783833,1.1680025697032,12.0953105486316,0.702707953231405,-59.4806436313396,45.688060238919,94.9309758685835,-4.91826596428114,17.2754655017346,1.96694719259923,13.0792229978919,38.934699400244,-121.25183789297,-7.87838432547765,17.4173618657292,-1.64789324202391,-50.9162051158103,-53.5263118093491,-366.47882275033,895.828677887704,0.277539881804632,-0.0449160360469964
27.1,-17.8092795305621,3.83994839780361,9.92041253466905,-0.0313350498990067,-0.447133340560462,0.174224749749418,0.266682705397167,-22.1213810179513,-4.66369438171387,-2.91393054609815,0.150141255234105,0.670285091349002,-0.118954218345891,-0.0613869536429662,1.4936386997302,10.9315521007324,2.82996440961069,-7.30844750270851,31.583890498919,-33.5799450527661,1.35983720930235,12.0070177309521,-0.865888089425697,-6.98296032981029,4.66531519313222,-54.6348565962854,-4.53856229782104,12.4229669570923,0.332907736301422,89.6699981689453,24.4300003051758,179.130004882812,510,0.243645951151848,-0.135719150304794,-24.2334164423761,-73.8196483095952,-55.2826429825715,-0.172788348197847,-0.81224771353729,-0.297462754905584,-0.120350714896136,-74.6715499127072,-115.768617417435,-119.148027707973,0.548228968506821,10.0102237610154,11.0980333334374,11.1347599039522,0.674915970705389,12.2731450597456,1.16884992933316,-62.3214717737138,44.1745042614245,104.571163171394,-6.31130296800721,14.9824780932802,0.56582680200435,8.90446969733021,51.2427370194298,-113.574283615921,-8.37915952221281,18.7047933883598,-1.28005569395562,-50.5861338964759,-55.7519372083068,-386.622625458732,845.44223307208,0.281161411238884,-0.0512155212901344
27.105,-17.7677229309082,1.79372870922089,9.10943286967012,-0.026323136292022,-0.459271582751031,0.101098902523518,0.195866357349762,-22.1629371643066,-4.66369438171387,-2.7793081225119,0.153921772514541,0.772080351408151,-0.0395604409277439,0.0303353507352803,1.66698103773224,10.4863463979384,3.04366244855571,-9.48988778770695,28.1443616777284,-31.3680744606037,1.78460556175239,11.4345967152583,-1.21936536020619,-1.36261176237071,-0.852362317828954,-52.1500038700444,-4.51758664270296,12.3174807031208,0.361103267090849,88.8448078641617,24.2500799212017,178.721296700639,517.583945536367,0.243818916356047,-0.134950931883623,-24.7632549285889,-75.6953506469727,-61.0792061642488,-0.190117893349923,-0.916641229281518,-0.312087923288345,-0.15651250233882,-75.5753919029236,-113.722396850586,-121.730012004541,0.513445289862731,9.71855278530457,11.0813188552856,11.0567970514645,0.227624524020164,12.4252402015462,1.55905688680332,-64.7934697393394,42.5276708173486,113.409806360074,-7.61234893649758,12.802926651025,-0.749329974229794,4.71764441082493,62.9633642129636,-106.226984038797,-8.83309284559263,19.8586591172344,-0.909785598709041,-46.1101871491799,-55.1972254522718,-401.567929254275,786.435016731413,0.284641033639366,-0.0574743878617186
27.11,-17.7677229309082,1.79372870922089,7.93002994180985,-0.0253008834252803,-0.434816840243063,0.101098902523518,0.19651633225762,-22.1629371643066,-4.66369438171387,-3.10464480988748,0.159226486236738,0.86628164446827,-0.0395604409277439,0.0397863119369887,1.72613228713927,10.5401202610357,2.82050091670192,-9.87493520247773,25.6017209905351,-30.3025553214535,1.73889777811969,11.5582766003821,-1.21398797389645,0.167619773916614,-6.0870155341524,-50.3874161351885,-4.3398571625085,11.4236818214902,0.600007701913095,81.8528620534071,22.7255908818802,175.258258604335,581.843711937639,0.245284473243827,-0.128441716323873,-24.7632549285889,-75.6953506469727,-64.8973051402102,-0.2104620521456,-1.00055318860409,-0.312087923288345,-0.178269128571329,-75.5753919029236,-113.722396850586,-121.247246017734,0.480167573525914,9.34442651903126,11.0813188552856,10.9921708467346,0.122765490980436,12.3849098042232,1.38160313858225,-64.5080035525266,39.8854489021974,116.254510105406,-8.22537097580677,11.4720235393669,-1.42150326294603,0.442290357163165,70.2892232164042,-101.350823243123,-8.93676836502216,20.0138499560747,-0.521485380205278,-10.6517015356378,-33.8637897996139,-377.656029132662,663.024000923112,0.287058702898018,-0.0634271605204538
27.115,-17.7677229309082,1.79372870922089,6.75057077424103,-0.0242785818125146,-0.410360931613188,0.101098902523518,0.195482513190901,-22.1629371643066,-4.66369438171387,-3.42999701090987,0.164531452913668,0.960487429507459,-0.0395604409277439,0.0460398395476225,1.78528635716759,10.5938966883342,2.59732874341321,-10.2600009781953,23.0589590577795,-29.2369853731316,1.69318781491597,11.6819623831686,-1.20861033116659,1.69792427913895,-11.3219183643815,-48.6247443515159,-4.16211920730187,10.5298403191509,0.838923528868995,74.8605828324283,21.201029147454,171.795055373411,646.106542559329,0.246750100016539,-0.121932190372841,-24.7632549285889,-75.6953506469727,-68.7155861818325,-0.230807181050419,-1.08446914925991,-0.312087923288345,-0.199950379131477,-75.5753919029236,-113.722396850586,-120.764457010281,0.446888270344582,8.97028241258502,11.0813188552856,10.9245721102747,0.0179014577483918,12.3445774837494,1.20414092849725,-64.2225237532877,37.2431009929632,119.099349500147,-8.83842224700951,10.1410569637294,-2.0937086041771,-3.83326756632138,77.6154315526855,-96.4744299282166,-9.04044882820828,20.1690481951743,-0.133166645645128,24.8084749121809,-12.5293368642489,-353.742988774527,539.607100273087,0.289476487442981,-0.0693802170365472
27.12,-17.7677229309082,1.79372870922089,5.57116784638075,-0.0232563289457729,-0.38590618910522,0.101098902523518,0.19278278576547,-22.1629371643066,-4.66369438171387,-3.75533369828545,0.169836166635864,1.05468872256758,-0.0395604409277439,0.0488617799061603,1.84443760657461,10.6476705514315,2.37416721155943,-10.6450483929661,20.5163183705863,-28.1714662339815,1.64748003128326,11.8056422682924,-1.20323294485685,3.22815581542627,-16.556571580705,-46.86215661666,-3.98438972710741,9.63604143752024,1.07782796369124,67.8686370216736,19.6765401081325,168.332017277107,710.366308960601,0.248215656904319,-0.115422974813091,-24.7632549285889,-75.6953506469727,-72.533685157794,-0.251151339846096,-1.16838110858248,-0.312087923288345,-0.221273731571422,-75.5753919029236,-113.722396850586,-120.281691023474,0.413610554007765,8.5961561463117,11.0813188552856,10.8544935029584,-0.0869575752913368,12.3042470864264,1.02668718027618,-63.9370575664749,34.600879077812,121.944053245479,-9.4514442863187,8.81015385207122,-2.76588189289333,-8.10862161998314,84.9412905561262,-91.5982691325418,-9.14412434763781,20.3242390340146,0.255133572858635,60.266960525723,8.80409878840903,-329.831088652915,416.196084464787,0.291894156701632,-0.0753329896952824
27.125,-17.8236827730574,0.492536442443173,4.29613646877996,-0.0219515178614542,-0.364796906393703,0.0457668964721178,0.133142172065239,-22.2398817437892,-5.96488666120862,-4.26451415107344,0.181603374341746,1.14223592501873,0.0532847896528472,0.140956514616958,1.98561144839549,10.976565481353,2.25706851691241,-11.0793635497307,17.8339490111679,-26.5338836957802,1.36823937554207,12.2683087597572,-1.17866435385949,4.69602646879317,-23.9484436735087,-44.9556283661517,-3.87753677368164,9.0986795425415,1.22145998477936,63.6650009155273,18.7600002288818,166.25,749,0.249096766114235,-0.111509561538696,-25.4394362189102,-76.2311354518867,-75.3191519622558,-0.270807004583996,-1.2159570969718,-0.38336304778755,-0.313248569942059,-76.3728196535499,-110.124982961239,-118.834108487336,0.386708397132984,8.22746156314082,10.9190740949262,10.6202844117841,-0.308950563746726,12.3557415437988,0.793052905464023,-61.8807833563543,31.8665424603557,124.127129442249,-10.2104423243712,7.0050910667823,-3.47723330442326,-13.0364695426852,91.4950478087223,-85.8745944556873,-9.20645523071289,20.4175415039062,0.488584011793137,81.5849990844727,21.6299991607666,-315.454986572266,342,0.29334768652916,-0.0789118632674217
27.13,-17.9639905025781,-2.76993402941185,2.87710599230889,-0.0202209309287226,-0.348733136163819,-0.0929666638942026,-0.0114163786806961,-22.4328043617148,-9.22735716494898,-5.05076215693017,0.203110820801647,1.2197421994928,0.286075001334528,0.369382088160435,2.25041031069843,11.7201420845875,2.29986429263813,-11.5878936007926,14.9412715778547,-24.034161301924,0.737001683587571,13.2419126575175,-1.12516963420233,6.06971803529802,-34.5912511707326,-42.8323502958088,-3.87753677368164,9.0986795425415,1.22145998477936,63.6650009155273,18.7600002288818,166.25,749,0.249096766114235,-0.111509561538696,-27.1348209438418,-77.5745050291049,-76.5476828646289,-0.289422474589089,-1.2087540923536,-0.562070680005725,-0.511788285747072,-78.37220479922,-101.105211718594,-115.932322284121,0.369420056118346,7.86699884930739,10.5122789168417,10.1403433519201,-0.707486225192573,12.5456477985817,0.47475932350392,-57.1554164533052,28.9936778861749,125.312598846998,-11.1893956940972,4.48548977093004,-4.24755726748637,-18.9473058504825,96.8841454927029,-78.8740508956144,-9.20645523071289,20.4175415039062,0.488584011793137,81.5849990844727,21.6299991607666,-315.454986572266,342,0.29334768652916,-0.0789118632674217
27.135,-18.1043049226586,-6.03256007183918,1.45800784951403,-0.0184902614731292,-0.332668599934687,-0.231706839756225,-0.157374090771099,-22.6257361791358,-12.4899832392632,-5.83704765494301,0.224619292841943,1.29725216984569,0.518876313593752,0.594265947307475,2.51522179990817,12.4637541451967,2.34266210907606,-12.0964479010582,12.0484562075127,-21.5343197090599,0.105733891127999,14.2155629814805,-1.07167236365491,7.44347510614538,-45.2345661691486,-40.7089709771673,-3.87753677368164,9.0986795425415,1.22145998477936,63.6650009155273,18.7600002288818,166.25,749,0.249096766114235,-0.111509561538696,-28.8302865130215,-78.9179386647646,-77.7762723493729,-0.308038832270973,-1.20155074426085,-0.740786833879148,-0.709252653988446,-80.3716852853673,-92.0850103690754,-113.030397709526,0.352130890710927,7.50651894684615,10.1054643407707,9.66001713684999,-1.10604089077086,12.735563109025,0.156450563746765,-52.4298242216163,26.1206763197393,126.498124780734,-12.1683957451151,1.9657683281465,-5.01791796336923,-24.8584240159075,102.273500155258,-71.8731735153346,-9.20645523071289,20.4175415039062,0.488584011793137,81.5849990844727,21.6299991607666,-315.454986572266,342,0.29334768652916,-0.0789118632674217
27.14,-18.2446126521793,-9.29503054369421,0.0389773730429684,-0.0167596745403976,-0.316604829704802,-0.370440400122546,-0.304566930302685,-22.8186587970614,-15.7524537430035,-6.62329566079974,0.246126739301843,1.37475844431976,0.751666525275433,0.815752025415513,2.78002066221112,13.2073307484312,2.38545788480178,-12.6049779521201,9.15577877419962,-19.0345973152037,-0.525503800826496,15.1891668792408,-1.01817764399775,8.81716667265023,-55.8773736663725,-38.5856929068245,-3.87753677368164,9.0986795425415,1.22145998477936,63.6650009155273,18.7600002288818,166.25,749,0.249096766114235,-0.111509561538696,-30.5256712379531,-80.2613082419828,-79.004803251746,-0.326654302276066,-1.19434773964265,-0.919494466097323,-0.905442846340171,-82.3710704310374,-83.0652391264301,-110.128611506311,0.334842549696289,7.14605623301273,9.69866916268622,9.18026590664218,-1.50457655221671,12.925469363808,-0.161843018213339,-47.7044573185672,23.2478117455585,127.683594185482,-13.1473491148411,-0.553832967705753,-5.78824192643234,-30.7692603237048,107.662597839238,-64.8726299552618,-9.20645523071289,20.4175415039062,0.488584011793137,81.5849990844727,21.6299991607666,-315.454986572266,342,0.29334768652916,-0.0789118632674217
27.145,-18.2922895812988,-10.4036264419556,-1.36197560086208,-0.0118953422084242,-0.328038977173554,-0.417582422494888,-0.361236616502072,-22.8842144012451,-16.8610496520996,-7.73256196838039,0.264915219714013,1.43287788986929,0.830769240856171,0.880434384134093,2.82761397677826,13.7642710952704,2.42119301161086,-13.5907372178774,4.72477015678498,-17.3105529599746,-0.967067981545064,15.5896341810071,-0.966696696040054,9.55119935276496,-57.6100039061941,-38.8827329213338,-3.78907340722381,9.20490818391947,1.15003667999148,59.2727493515684,16.7307693353804,148.055799739953,810.459733671528,0.245953342251675,-0.102974059863671,-31.1017673492432,-80.7177886962891,-79.5775318679407,-0.334003795240521,-1.16554354859059,-0.980219781398773,-0.982244515807588,-83.05046667099,-80.0002975463867,-106.555151396946,0.317692772703733,6.82342517573939,9.56043910980225,8.97064848087395,-1.45985940130758,13.341198478123,-0.448626812148759,-42.8282389489396,19.9018748921882,126.72214299154,-13.7827573087268,-1.52504777731619,-6.33005051057224,-33.1907985507939,101.69315428009,-59.7559292760205,-5.65559302086807,19.4614844533342,0.563270307017575,79.4762943829938,24.3638975777241,-290.282988786942,314.14632759714,0.285803718290252,-0.0772653438412035
27.15,-18.2922895812988,-10.4036264419556,-2.75352360320427,-0.00541854379363519,-0.353624412189108,-0.417582422494888,-0.371641022794466,-22.8842144012451,-16.8610496520996,-9.00799317208822,0.282302996635172,1.48101548778326,0.830769240856171,0.863269717148984,2.76341657009161,14.2251167646994,2.45329171495418,-14.8220366847507,-0.497637926850235,-15.9858445680281,-1.31098266022348,15.6951013491352,-0.916255876500547,9.95597136141527,-54.7567858312324,-40.4253954717843,-3.65508776097311,9.36580092105203,1.04185972457426,52.6202932236048,13.6573184421535,120.499063234578,903.545973367153,0.241192346886822,-0.090046282481975,-31.1017673492432,-80.7177886962891,-79.8127030798365,-0.335554595305616,-1.12562414373408,-0.980219781398773,-0.996821469656983,-83.05046667099,-80.0002975463867,-102.636264825417,0.300615547856081,6.52028790842016,9.56043910980225,8.90191356665351,-1.18702042288937,13.8731198478123,-0.719173026042448,-37.8747353465755,16.3127077105896,124.655824345982,-14.2413102136313,-1.69929788117991,-6.75421194760895,-33.8163552914353,89.8783405450801,-55.6091391174701,-0.277495996264895,18.0134509124165,0.676389352023475,76.282473330364,28.5046301865654,-252.157756549761,271.959460345921,0.274377706594591,-0.074771543546012
27.155,-18.2922895812988,-10.4036264419556,-4.14513796137128,0.00105856346662681,-0.379211067243526,-0.417582422494888,-0.382716252236847,-22.8842144012451,-16.8610496520996,-10.2834851946032,0.299691602690703,1.52915538113369,0.830769240856171,0.843828745750434,2.69921610215817,14.6859844095074,2.48539194892091,-16.0533948660138,-5.72029504048324,-14.6610730074968,-1.65491373843834,15.8005735464544,-0.865812651695695,10.3607626715776,-51.9034317008573,-41.9681315839415,-3.52109572563051,9.52670133033837,0.933677610749949,45.967519873948,10.5837209917336,92.9410126890269,996.63665187064,0.23643112449439,-0.077117888640531,-31.1017673492432,-80.7177886962891,-80.0478855058476,-0.337105469320454,-1.0857028353248,-0.980219781398773,-1.00985801506039,-83.05046667099,-80.0002975463867,-98.7171913821806,0.283537508682702,6.21713618603119,9.56043910980225,8.83695806533637,-0.914168434172248,14.4050665821179,-0.989732140904803,-32.9209955368965,12.7233693799193,122.589407168231,-14.6998849845845,-1.87355629414211,-7.17839361074059,-34.4419418616862,78.0629634218801,-51.4621512196531,5.10085748234737,16.5653483221669,0.78951379109952,73.0884999807024,32.6455602458196,-214.030706314762,229.770581418232,0.262951150050725,-0.0722776243342072
27.16,-18.2922895812988,-10.4036264419556,-5.53668596371347,0.0075353618814158,-0.404796502259079,-0.417582422494888,-0.394245789733204,-22.8842144012451,-16.8610496520996,-11.558916398311,0.317079379611862,1.57729297904767,0.830769240856171,0.822667602448417,2.63501869547152,15.1468300789365,2.51749065226424,-17.2846943328871,-10.9427031241185,-13.3363646155503,-1.99882841711675,15.9060407145825,-0.815371832156188,10.7655346802279,-49.0502136258957,-43.510794134392,-3.38711007937981,9.68759406747093,0.825500655332739,39.3150637459844,7.51027009850674,65.384276183651,1089.72289156627,0.231670129129537,-0.0641901112588352,-31.1017673492432,-80.7177886962891,-80.2830567177434,-0.338656269385549,-1.04578343046829,-0.980219781398773,-1.02136847669762,-83.05046667099,-80.0002975463867,-94.7983048106516,0.26646028383505,5.91399891871196,9.56043910980225,8.77691911560612,-0.641329455754039,14.9369879518072,-1.26027835479849,-27.9674919345325,9.13420219832072,120.523088522673,-15.158437889489,-2.04780639800583,-7.6025550477773,-35.0674986023276,66.2481496868701,-47.3153610611026,10.4789545069506,15.1173147812492,0.90263283610542,69.8946789280725,36.7862928546609,-175.905474077581,187.583714167013,0.251525138355064,-0.0697838240390157
27.165,-18.3188636596326,-10.2496852383627,-6.7773863352273,0.0109673891008578,-0.438249392296286,-0.411295104143672,-0.399718566081802,-22.9451780460501,-17.0149907874874,-12.7913796541227,0.324364817450885,1.62848998642934,0.854661054853614,0.824311712424735,2.55924715228158,15.4893099276372,2.54357591252541,-17.4232532880618,-14.7055935871346,-12.4047585833145,-2.28648686283015,15.8648556166823,-0.761405254867917,10.8948679772977,-45.3099882283879,-44.8821973600814,-3.29417980861535,9.84615454394133,0.752039148463724,32.9428607580295,5.30994351306889,41.5193075285028,1151.85319697765,0.226830537576082,-0.0532776235722084,-31.3753221202055,-80.5638475609013,-80.4502467633841,-0.331027203088558,-1.02053808728304,-1.00788398640695,-1.05908809299725,-83.2349205939041,-74.6123554888407,-90.2131643037708,0.250367973443014,5.60493438796431,9.40702857613512,8.56949610951721,-0.210413860798494,15.3600627753555,-1.31554568904512,-22.9592750693488,5.07037068037211,118.405687461303,-14.8463483004999,-2.22936014792158,-7.40223297646493,-35.7304399460372,45.920525695341,-36.7964528471829,14.2503671646118,14.1018753051758,0.981958031654358,67.6549987792969,39.689998626709,-149.169998168945,158,0.243512600660324,-0.0680350363254547
27.17,-18.407805819035,-9.73445144938245,-7.66389885360969,0.00725276022705052,-0.490163956712186,-0.390251752649622,-0.390437975240552,-23.1492204269708,-17.5302243481884,-13.922856468323,0.307938606424293,1.68686189309979,0.934625804798456,0.881639933667567,2.45631885315131,15.5539393247655,2.55554431940102,-14.9970651288325,-15.0424820769667,-12.39589309674,-2.44207615221312,15.4794729152875,-0.699169539114729,10.3777145937836,-39.4883187111141,-45.8514905588965,-3.29761952027768,9.99922331086954,0.760065232703019,27.2291428864466,5.15914155904265,26.3218240760773,1141.32099892711,0.221807017378834,-0.0470963704710815,-32.290896754202,-80.0486140002003,-80.4578619692982,-0.301853259321767,-1.0297365271467,-1.10047474724822,-1.16040669959638,-83.8522789838426,-56.579173102812,-84.0647965006948,0.236589120991998,5.28199278097617,8.89357091381993,8.00909457336301,0.591469399867602,15.5276204716141,-0.865533590522053,-17.8232031805053,-0.10707347915254,116.16862968233,-12.7255466021412,-2.42803570205676,-5.73623073937953,-36.4810511426806,5.6150685653429,-11.322954756371,14.2503671646118,14.1018753051758,0.981958031654358,67.6549987792969,39.689998626709,-149.169998168945,158,0.243512600660324,-0.0680350363254547
27.175,-18.4967437374418,-9.21924222810149,-8.55036910074859,0.00353830847649685,-0.542076045705408,-0.369209404557798,-0.380931941492748,-23.3532530786153,-18.045433341201,-15.0542793307393,0.291513178642552,1.74523101644454,1.01458674181416,0.939321390118655,2.35339546191248,15.6185656401945,2.56751215559157,-12.5709926566221,-15.3793545030714,-12.3870280328951,-2.59765802269043,15.0941085899514,-0.636936790923803,9.86058586949998,-33.6669267863217,-46.8207375392681,-3.30105906792553,10.1522847790772,0.768090934237553,21.5156974599273,5.00834679564935,11.1250652795479,1130.78930307942,0.216783736716213,-0.0409154121083248,-33.2064277311971,-79.5334050071877,-80.4654768120992,-0.272680706645181,-1.03893452840461,-1.19306109311901,-1.26057559374943,-84.4696079365129,-38.5468505862466,-77.9167218679318,0.222810925552829,4.95906657269139,8.38013773451361,7.45671810512729,1.39331442463533,15.695170178282,-0.415542949756879,-12.6873761930488,-5.28427076455171,113.931678572143,-10.6048460291734,-2.6267017828201,-4.07030794165315,-37.2316265482122,-34.6884666946795,14.149328691198,14.2503671646118,14.1018753051758,0.981958031654358,67.6549987792969,39.689998626709,-149.169998168945,158,0.243512600660324,-0.0680350363254547
27.18,-18.5856858968442,-8.70400843912126,-9.43688161913097,-0.000176320397310397,-0.593990610121308,-0.348166053063749,-0.370970967361052,-23.557295459536,-18.5606669019019,-16.1857561449396,0.27508696761596,1.80360292311499,1.094551491759,0.998139293936445,2.25046716278222,15.6831950373228,2.57948056246717,-10.1448044973928,-15.7162429929035,-12.3781625463206,-2.7532473120734,14.7087258885566,-0.574701075170615,9.34343248598582,-27.845257269048,-47.7900307380832,-3.30449877958785,10.3053535460054,0.776117018476847,15.8019795883444,4.85754484162311,-4.07241817287754,1120.25710502888,0.211760216518965,-0.0347341590071979,-34.1220023651936,-79.0181714464867,-80.4730920180132,-0.24350676287839,-1.04813296826827,-1.28565185396029,-1.3598377472461,-85.0869663264514,-20.5136682002179,-71.7683540648558,0.209032073101814,4.63612496570325,7.86668007219842,6.91309730143871,2.19519768530142,15.8627278745406,0.0344691487661867,-7.55130430420526,-10.4617149240764,111.694620793171,-8.48404433081472,-2.82537733695528,-2.40430570456776,-37.9822377448556,-74.9939238246777,39.6228267820099,14.2503671646118,14.1018753051758,0.981958031654358,67.6549987792969,39.689998626709,-149.169998168945,158,0.243512600660324,-0.0680350363254547
27.185,-18.6716317855757,-8.23292934520221,-10.2074663147652,-0.00418593495295936,-0.64020048125729,-0.328777231183434,-0.361987574882304,-23.7543989459232,-18.8859643087556,-17.2070314936544,0.259522378937057,1.86897822499964,1.16818437201237,1.05254274838535,2.1252050435305,15.6013281296908,2.58060282197536,-7.85745058578043,-16.0822679579409,-12.6212126266164,-2.98854338036624,14.2254866406485,-0.507301110777526,9.16826445178294,-22.8779597570151,-48.471716127215,-3.30752205848694,10.4398908615112,0.783171415328979,10.7799997329712,4.72499990463257,-17.4300003051758,1111,0.207344874739647,-0.0293012466281652,-34.9922357586117,-78.0368572962316,-80.3610870052281,-0.214327952418932,-1.06993483775909,-1.36814939055991,-1.44837742083453,-85.6095993478146,-3.27876997609569,-65.201708733723,0.196026974954523,4.32281817425782,7.38457252138264,6.41019376767682,2.97847913539475,15.8667565295707,0.416539177424203,-2.68303590290979,-15.1594019517366,108.826617150524,-6.56336295406785,-3.0429222455719,-0.918919843890722,-39.3722398271383,-109.697954494072,64.6226729080727,14.3958073136471,13.9590507560577,0.827211146467765,64.4504341033872,36.9556738032052,-140.133214682468,154.418913239267,0.237327921580209,-0.0663070975463693
27.19,-18.7358502072514,-8.08235159681853,-10.1363934170103,-0.0103395529317541,-0.644996482670028,-0.321397296437914,-0.364120538402185,-23.9011842528585,-17.8319205704316,-17.4283374420751,0.250209453042348,1.98524358176418,1.19585912730808,1.06367736889369,1.83768738116684,14.4554548183729,2.5029520664465,-6.57752154903495,-16.6600496891034,-14.6939722002933,-3.8028269788852,13.0313439407585,-0.402367657360134,11.4768004269656,-24.1138426528199,-47.0648305665818,-3.30752205848694,10.4398908615112,0.783171415328979,10.7799997329712,4.72499990463257,-17.4300003051758,1111,0.207344874739647,-0.0293012466281652,-35.5335074285505,-73.6701038940454,-79.3802594958731,-0.185102299344667,-1.18328155365925,-1.37737430899181,-1.46333945052384,-85.4444663778741,8.16513649932761,-55.5946077997518,0.188636379558378,4.07936372643233,7.12996477266218,6.14451606564492,3.62696787751424,14.6831071750225,0.305309716801761,0.242146045441702,-16.3745572518047,101.375046483156,-6.09535975182628,-3.39759731812269,-0.744730311217854,-45.4065611360051,-103.733588820817,86.1923272216478,15.5976082614672,12.7788630318238,-0.451493217650923,37.970477293624,14.3614026453955,-65.4604710739534,124.827679375563,0.186222685304333,-0.0520287949163539
27.195,-18.8000655668242,-7.93178102837708,-10.0653239081977,-0.0164928774898937,-0.649792255396831,-0.31401771358705,-0.365156256771655,-24.0479625606852,-16.7779270916792,-17.6496328380474,0.240896971212387,2.10150339469137,1.22353256299881,1.07823581912847,1.5501834283999,13.3096361453017,2.42530501350945,-5.29765354266505,-17.2378038701165,-16.7666329393539,-4.61707175022514,11.8372581807265,-0.297439207445193,13.7852263250943,-25.3496666184848,-45.6580120899444,-3.30752205848694,10.4398908615112,0.783171415328979,10.7799997329712,4.72499990463257,-17.4300003051758,1111,0.207344874739647,-0.0293012466281652,-36.0747532892356,-69.3035587101217,-78.3994787549479,-0.155878039826241,-1.29662286489052,-1.38659878755539,-1.47835563698985,-85.2793412819069,19.6084972992562,-45.9879649575665,0.181246136565218,3.83592088715384,6.87536916430739,5.88867870627061,4.27542569798858,13.499514259982,0.194085559891918,3.1671885134409,-17.5896546100789,93.9238311262328,-5.62737886520564,-3.75225547883518,-0.570549084359056,-51.4405947125951,-97.7695075441698,107.760953037497,16.7993519042641,11.5987315820381,-1.73013660978963,11.4917831176969,-8.23179115826788,9.20871194217055,95.2378564995497,0.135119885860245,-0.0377511731132807
27.2,-18.8642839884999,-7.78120327999341,-9.99425101044277,-0.0226464954686885,-0.654588256809568,-0.306637778841529,-0.364902734339465,-24.1947478676205,-15.7238833533552,-17.8709387864681,0.231584045317678,2.21776875145591,1.25120731829452,1.09689722551639,1.26266576603625,12.1637628339838,2.3476542579806,-4.01772450591957,-17.8155856012789,-18.8393925130307,-5.4313553487441,10.6431154808366,-0.192505754027801,16.0937623002769,-26.5855495142896,-44.2511265293113,-3.30752205848694,10.4398908615112,0.783171415328979,10.7799997329712,4.72499990463257,-17.4300003051758,1111,0.207344874739647,-0.0293012466281652,-36.6160249591745,-64.9368053079355,-77.418651245593,-0.126652386751975,-1.40996958079068,-1.39582370598729,-1.49381321402781,-85.1142083119664,31.0524037746795,-36.3808640235954,0.173855541169073,3.59246643932835,6.62076141558693,5.64248376078244,4.92391444010807,12.3158649054338,0.0828560992694761,6.09237046179239,-18.804809910147,86.4722604588644,-5.15937566296407,-4.10693055138597,-0.396359551686189,-57.4749160214619,-91.8051418709146,129.330607351072,18.0011528520843,10.4185438578043,-3.00884097390832,-14.9881736920663,-30.8260623160776,83.8814555506848,65.6466226358451,0.084014649584369,-0.0234728704832653
27.205,-18.9284993480727,-7.63063271155196,-9.92318150163016,-0.0287998200268281,-0.659384029536371,-0.299258195990666,-0.363186580575848,-24.3415261754471,-14.6698898746029,-18.0922341824404,0.222271563487716,2.33402856438311,1.27888075398526,1.12025323683369,0.975161813269309,11.0179441609126,2.27000720504355,-2.73785649954968,-18.393339782292,-20.9120532520913,-6.24560012008404,9.44902972080457,-0.0875773041128608,18.4021881984056,-27.8213734799545,-42.8443080526739,-3.30752205848694,10.4398908615112,0.783171415328979,10.7799997329712,4.72499990463257,-17.4300003051758,1111,0.207344874739647,-0.0293012466281652,-37.1572708198595,-60.5702601240119,-76.4378705046678,-0.0974281272335497,-1.52331089202195,-1.40504818455087,-1.51011383925275,-84.9490832159992,42.495764574608,-26.7742211814101,0.166465298175912,3.34902360004986,6.36616580723213,5.40549848749094,5.57237226058241,11.1322719903933,-0.028368057640367,9.01741292979158,-20.0199072684212,79.0210451019417,-4.69139477634343,-4.46158871209847,-0.222178324827391,-63.5089495980519,-85.8410605942678,150.899233166921,19.2028964948812,9.2384124080185,-4.28748436604703,-41.4668678679934,-53.419256119741,158.550638566809,36.0567997598319,0.0329118501402816,-0.00919524868019204
27.21,-18.9849830673836,-6.46959455016369,-9.52860744060744,-0.0309553965638401,-0.642293353685258,-0.315365798681991,-0.383341294473889,-24.4511830948494,-12.3595163892518,-17.7569698829132,0.213133266671793,2.47570102085504,1.31756362760459,1.15980523131244,0.692119606960318,10.0723749238552,2.14881425960751,-2.83025533324373,-18.4590599993395,-23.7580237758218,-6.75220356490185,8.49709219482481,0.118416717429896,20.0353616057459,-27.1964985971042,-40.9605662199177,-3.31367869974746,10.3101280175879,0.754045828619249,10.2886204068387,4.14018927726288,-17.1877710685313,1096.26850650211,0.207207475177934,-0.0289089104903761,-37.6873725857469,-54.1402402460491,-74.1586474529976,-0.0706642211596999,-1.70238080010055,-1.39447465065308,-1.50786615404672,-84.3867712682887,58.094433551882,-14.143619002515,0.151435448119348,3.11156554085583,6.07616709239541,5.14157293067606,5.90497258786451,10.0961326376566,-0.0337577138014355,10.7388939733847,-19.1778425846634,70.2308406878685,-4.29508567947664,-4.86400958762613,0.0561000609158437,-67.6855659501614,-78.9851032446931,173.447881629014,19.1762597129283,8.30929919119169,-5.28241032657663,-56.6652162329961,-65.0217251696191,210.782120081152,16.2090473289721,0,0
27.215,-19.0274726777878,-3.48077521114641,-8.54886623411342,-0.0258787549988045,-0.585612363901988,-0.373959581433604,-0.444236940426032,-24.4936727052536,-7.77665991493241,-16.41493355243,0.204311294674569,2.66332599423814,1.3761574020798,1.22482234767892,0.417186614402644,9.48918372752071,1.94886299229284,-5.40507360747756,-17.5985015614797,-28.002531130684,-6.70221574807318,7.98332852186349,0.507210848319526,20.4467839664757,-23.2057016980254,-38.2143219620464,-3.33097188537219,9.94564146522837,0.672235933241568,8.90840130044636,2.49753408484797,-16.5073813924434,1054.88970257171,0.206821538102031,-0.0278068905137386,-38.1972436730777,-43.9782542285454,-69.5308464980498,-0.0483546812161091,-2.00032980797984,-1.34808791252688,-1.47145043947898,-83.1060233029383,81.2079690673624,3.95563629711716,0.122587555851658,2.8849657589026,5.72216297206312,4.8211123704054,5.66614190746087,9.32687567868211,0.152308048838609,10.2829008569092,-14.6144829002357,59.0195813579822,-4.02848398972375,-5.3527793521731,0.522653017983409,-68.5015536322755,-70.5166596530052,197.766371667816,16.9274853231682,7.83440260543382,-5.76395796440692,-51.4553742858222,-56.7404102664203,222.41678563453,13.9873665810313,0,0
27.22,-19.0699643143047,-0.491813350583227,-7.56907830875971,-0.0208018713546327,-0.528928671291491,-0.432556158223783,-0.503289251730239,-24.5361643417706,-3.19358490756859,-15.0728332270809,0.195488902002508,2.850959914499,1.43475397059317,1.29562491479246,0.142240511693211,8.90596472177344,1.74890219032233,-7.98001466165866,-16.7379020879785,-32.2472408844473,-6.65222554758056,7.46954035013374,0.896023518817706,20.8582259458389,-19.2147144982028,-35.4679467497973,-3.34826589562073,9.5811375323647,0.590422136767356,7.52811637844648,0.854800562587435,-15.8269592720431,1013.50892549726,0.206435582622758,-0.0267048179873906,-38.7071390735594,-33.815783637773,-64.9028248668845,-0.0260440774443773,-2.29829302352723,-1.30169896245378,-1.43704626906547,-81.8252142652516,104.322606749431,22.0557546578957,0.0937382879751616,2.65835517156184,5.36814197108039,4.50688971911404,5.42729983844055,8.55758203776785,0.338382684005603,9.82688599644835,-10.050905612466,47.8077874203361,-3.76186958709643,-5.84157242365653,0.989228222581234,-69.3175802246791,-62.0478122444469,222.08602133134,14.6786037008303,7.3594833742806,-6.24552856478729,-46.2452839078655,-48.4587004695633,234.05200598575,11.7655798924703,0,0
27.225,-19.1124539247089,2.49700598843406,-6.58933710226568,-0.015725229789597,-0.472247681508221,-0.491149940975396,-0.560423347202359,-24.5786539521748,1.38927156675082,-13.7307968965977,0.186666930005284,3.0385848878821,1.49334774506838,1.37228393992203,-0.132692480864463,8.322773525439,1.54895092300766,-10.5548329358925,-15.8773436501187,-36.4917482393094,-6.60223773075189,6.95577667717243,1.28481764970734,21.2696483065686,-15.223917599124,-32.7217024919261,-3.36555908124547,9.21665098000517,0.508612241389675,6.14789727205416,-0.78785462982748,-15.1465695959552,972.130121566862,0.206049645546856,-0.0256027980107531,-39.2170101608902,-23.6537976202692,-60.2750239119367,-0.00373453750078655,-2.59624203140652,-1.25531222432758,-1.40498219390555,-80.5444662999012,127.436142264911,40.1550099575279,0.0648903957074711,2.43175538960861,5.0141378507481,4.19754834436493,5.18846915803692,7.78832507879336,0.524448446645647,9.37089287997285,-5.48754592803821,36.5965280904497,-3.49526789734354,-6.3303421882035,1.4557811796488,-70.1335679067932,-53.579368652759,246.404511370142,12.4298293110703,6.88458678852272,-6.72707620261758,-41.0354419606916,-40.1773855663645,245.686671539128,9.54389914452949,0,0
27.23,-19.1185075172877,2.51502335233056,-5.34910570673209,-0.00813989147654126,-0.418314939359741,-0.533477282602572,-0.599341178837135,-24.4151278291043,5.36597325143242,-11.0171338903482,0.170587160242377,3.11149263874638,1.69482696183344,1.59760410262933,0.158091744963085,8.335173089484,1.2811661558559,-13.1156386251095,-12.8692284121198,-37.1796493859416,-5.37845626287492,7.41886198060593,1.302413455258,20.753902414364,-5.11287243129178,-30.3841824205421,-3.22828262531355,9.06309683133758,0.65868196402211,6.18599624842943,0.0424323991777332,-14.5970412307137,917.835351454555,0.206217304657858,-0.0240421705606795,-39.4418428121305,-16.7411312479916,-53.5545652978457,0.0144897641362968,-2.92300499031351,-1.34014678400904,-1.50673847386895,-78.0742056522476,144.085464333791,58.9393192399395,0.0468311512761115,2.27883126957414,4.50598240774349,3.73741551280805,4.53119102647842,7.26975983520074,0.219865849369437,8.97190168614073,-3.15462679179205,25.638828565456,-3.61501406823093,-5.92479877405415,1.49639225242425,-71.7553849131249,-46.9870451938817,264.886323669799,11.8792972564697,6.7683253288269,-6.84496593475342,-39.7599983215332,-38.1500015258789,248.535003662109,9,0,0
27.235,-19.1127497341177,1.57003305379279,-4.02451287672863,0.000258179742564685,-0.365276466443435,-0.570529069483283,-0.631037054294387,-24.1848305701874,9.14593447698502,-7.85901971031564,0.152155739137175,3.14720938518065,1.9426107865982,1.8747572754135,0.632238858463565,8.54063683866753,0.991409586494488,-15.6717403480957,-9.16515734026078,-36.7146079783245,-3.77425852886498,8.19857056725117,1.19968158066623,19.9376409226725,6.98145620456746,-28.1793007816304,-3.04090999162587,8.97792761225093,0.883907633689605,6.68385068243522,1.67428876002674,-14.0899671840888,859.357207456162,0.206564405312266,-0.022332980783218,-39.5742640374624,-10.8821913389646,-46.1561811904205,0.0313886561403932,-3.25908756417297,-1.46751230141149,-1.65380419401539,-75.2185120048278,158.638314552884,77.9445076004106,0.032270263786042,2.14979929327063,3.94788980504972,3.22915693749638,3.7383116866804,6.83249083052807,-0.243744661608805,8.59141326172678,-1.54486807311758,14.7640141104108,-3.85999007687284,-5.22938300758679,1.3989286790936,-73.6383148083017,-41.0032956133544,281.474968566684,11.8792972564697,6.7683253288269,-6.84496593475342,-39.7599983215332,-38.1500015258789,248.535003662109,9,0,0
27.24,-19.1069916763884,0.624997693488842,-2.69985688365093,0.00865665142284173,-0.312235464392947,-0.60758262317468,-0.660831944740797,-23.9545223295692,12.9260759496038,-4.7007549359299,0.133723439131535,3.18292783476434,2.19040642690941,2.15704103837447,1.10640858162088,8.74611038536903,0.701639200120568,-18.2279639585322,-5.46090964014981,-36.2495443952553,-2.16998429884941,8.97831633422098,1.09694480731549,19.1213405076349,19.0763615572564,-25.9743140031622,-2.85352842309322,8.89275433187873,1.10914404322023,7.18172885657902,3.30622293578017,-13.5828689576896,800.876274933427,0.206911522518133,-0.0206237095032159,-39.7066915772868,-5.02297204698455,-38.7574442918023,0.0482883539664344,-3.59518616409576,-1.59488389222567,-1.80373386083947,-72.3626821839471,173.191858723158,96.9506022213538,0.017708681961535,2.02076116409046,3.38977058976701,2.72116699061694,2.94539453851178,6.39520097472743,-0.707377279807065,8.21090669376105,0.0649674067375043,3.8886810909454,-4.10497776717079,-4.5339340802894,1.30146045822237,-75.5213344907989,-35.0192606983376,298.064404491413,11.8792972564697,6.7683253288269,-6.84496593475342,-39.7599983215332,-38.1500015258789,248.535003662109,9,0,0
27.245,-19.1012338932185,-0.319992605048927,-1.37526405364748,0.0170547226419477,-0.259196991476641,-0.644634410055392,-0.688807925289099,-23.7242250706523,16.7060371751564,-1.54264075589731,0.115292018026334,3.21864458119861,2.43819025167417,2.44386625631311,1.58055569512136,8.95157413455256,0.41188263075916,-20.7840656815183,-1.75683856829081,-35.7845029876382,-0.565786564839471,9.75802492086622,0.994212932723719,18.3050790159434,31.1706901931156,-23.7694323642505,-2.66615578940554,8.80758511279208,1.33436971288772,7.67958329058482,4.93807929662917,-13.0757949110647,742.398130935035,0.207258623172541,-0.0189145197257544,-39.8391128026187,0.835967862042434,-31.3590601843771,0.0651872459705308,-3.93126873795523,-1.72224940962811,-1.95647786486783,-69.5069885365273,187.744708942252,115.955790581825,0.00314779447146549,1.89172918778695,2.83167798707325,2.21209283408499,2.15251519871377,5.95793197005476,-1.17098779078531,7.8304182693471,1.67472612541197,-6.98613336409984,-4.3499537758127,-3.83851831382204,1.20399688489171,-77.4042643859757,-29.0355111178103,314.653049388299,11.8792972564697,6.7683253288269,-6.84496593475342,-39.7599983215332,-38.1500015258789,248.535003662109,9,0,0
27.25,-19.0894759692428,0.208605045996326,-0.583578616060226,0.0249687659165742,-0.203180950437071,-0.588224033343846,-0.62163307434152,-23.5995587558326,14.7807634405956,1.65737022804416,0.0988152214779813,3.09371278626342,2.67080215364275,2.71936284042229,2.27740246124008,8.87565416825025,0.621407808343039,-21.0385767075806,-1.14936664949991,-33.3997137468342,0.0614269425841698,10.0825746038819,0.465474358806345,17.5101495127532,29.0373675905175,-22.7385823543336,-2.65847182273865,8.80409240722656,1.34360599517822,7.69999980926514,5.00500011444092,-13.0550003051758,740,0.207272857427597,-0.0188444275408983,-39.879109680699,0.130652577236839,-24.6331748635218,0.0805514821541721,-4.18034816488917,-1.99163255048417,-2.25389129905555,-67.2813290871191,195.527950782556,132.981657984343,-0.0122836087840647,1.80933964324234,2.62573291027954,2.05283411963861,1.90122799889913,5.84247513203937,-1.12146901170334,10.2879179062422,2.01082963098875,-11.6103413567384,-4.92669855706854,-3.3408263108921,0.991771227867841,-77.6116448020829,-29.9453229271279,321.516091061902,10.4317699584255,6.57894103405802,-7.21805305577696,-40.0367588863466,-27.0242587695304,246.93902028557,9.79074217265376,0,0
27.255,-19.0774620606227,0.80018783223402,0.185280049305693,0.0328617183958782,-0.147040372178678,-0.527819968768704,-0.548947153384857,-23.4794154759293,12.6116265003883,4.85901363244992,0.0824228249850905,2.96191778459678,2.90275373015852,2.99720399628686,2.98373733667092,8.78770585691256,0.852272125604492,-21.1946578156644,-0.674337190114223,-30.9329536255957,0.646832889925689,10.3876453088345,-0.0814542023249372,16.7161717020657,26.2957689963487,-21.7579858274588,-2.65847182273865,8.80409240722656,1.34360599517822,7.69999980926514,5.00500011444092,-13.0550003051758,740,0.207272857427597,-0.0188444275408983,-39.9151524549849,-0.855318741350142,-17.9363803760879,0.0958493316909471,-4.42569490557695,-2.26707504759666,-2.55970550586279,-65.082720904106,203.021333511505,149.92204199927,-0.0277514684912179,1.72894865084854,2.43485609210509,1.90534179461738,1.673112066367,5.74078489705516,-1.05001100874147,12.8666492571931,2.29245423905311,-15.9670401128186,-5.51760127386866,-2.85161382907617,0.774648834252921,-77.7473675047645,-31.1498619134274,327.962919439279,8.92241758336159,6.38146798087593,-7.60707503345121,-40.3253401216638,-15.423326423499,245.274871151252,10.6152575914446,0,0
27.26,-19.0654475791206,1.39179882803665,0.954175377618795,0.0407550472498177,-0.0908971168625263,-0.467413023831893,-0.4749539214043,-23.3592664670059,10.4423861251069,8.06080970689547,0.0660296468224417,2.83011649829891,3.13471636726161,3.27711463925018,3.69010589360839,8.69975335176859,1.08314745160741,-21.3507463664601,-0.199285078997122,-28.4660758771519,1.23226675229021,10.6927305610526,-0.628408843688975,15.9221560306271,23.55403966933,-20.7773425409385,-2.65847182273865,8.80409240722656,1.34360599517822,7.69999980926514,5.00500011444092,-13.0550003051758,740,0.207272857427597,-0.0188444275408983,-39.9511969479668,-1.84133707587907,-11.2392665526906,0.11114791070412,-4.67105334559908,-2.54253067915657,-2.86741616582928,-62.8840078806856,210.515073561646,166.863233814684,-0.0432200657816864,1.64855382501846,2.24397017198901,1.75387429088391,1.44498525614984,5.63908981298245,-0.978549598311998,15.4455035746859,2.57409227635823,-20.3239466176354,-6.10853216780467,-2.36237801921285,0.557516087178766,-77.8830966793694,-32.3544583380457,334.410055233011,7.41299323498333,6.1839855112114,-7.99611556159886,-40.6139351179479,-3.8218408881897,243.610642662152,11.4398123271693,0,0
27.265,-19.0463055124437,2.09408332220644,1.56767024158219,0.0484825818495315,-0.0376477887874084,-0.41680522713388,-0.409707685195833,-23.2904490799387,7.22658638724948,10.1799865192218,0.0542319319789439,2.68591082713197,3.30482014310167,3.49619438574583,4.17167447073476,8.64502341220422,1.18892864259029,-21.2490317174792,-0.438834617099473,-26.3611695340006,1.66683835616438,10.8455797011208,-1.07786288916563,15.3310348538659,21.573524898913,-20.6062169641621,-2.68273467813898,8.82374329642965,1.31854105696435,7.86702825547452,5.37129058766632,-14.1362896990984,735.562652552927,0.208701478861189,-0.0181360673029231,-39.9793448633928,-1.97058190738873,-5.84792064740171,0.126071664727712,-4.8252144936516,-2.84743527387177,-3.2058530769531,-60.6893744402419,216.807603846036,181.518974238026,-0.0607067438813859,1.55865945258263,2.07159590667093,1.6166313725871,1.14097210460774,5.54655740971357,-0.877254171855549,17.491080054733,3.28224405393354,-25.2922818750673,-6.55772241594021,-1.98478929016187,0.35892864259031,-77.1732164875544,-34.3470362683148,339.678006395769,5.82465916886907,6.22186525485584,-8.23515723770612,-34.2900309498788,5.75958779443691,240.645614008541,11.4139352428394,0,0
27.27,-19.0120551643989,3.03102173415543,1.85191740047485,0.0558598994330909,0.00947638295836623,-0.386957159174483,-0.364457020158202,-23.3304081514199,1.79234345472913,10.0050922219449,0.0521715908758029,2.51539519295958,3.34385223197165,3.58414321056068,4.17689788293899,8.66069364881692,1.02961457036115,-20.6009416847316,-2.19286933259538,-25.0230731977307,1.78175342465753,10.6758188044832,-1.32075155666252,15.1698184278093,21.2059514475039,-22.1506703257845,-2.75842121740059,8.88504308050923,1.24035246790866,8.38806359295827,6.51391200734254,-17.509307870948,721.720610211706,0.213157978742981,-0.0159263795279987,-39.9907618121222,-0.284092747200174,-3.22307629667226,0.140203274961697,-4.78612488239503,-3.21479617256305,-3.60727586597622,-58.5030603906672,220.555355874866,191.33335578976,-0.0824729254836919,1.44861939601606,1.93842760346746,1.51434779837926,0.676088418430894,5.4734296388543,-0.712716687422175,18.4067893547345,4.89440831449963,-31.5571521916271,-6.70658966376089,-1.84375716064756,0.199614570361166,-74.6711375551558,-38.009873468321,342.447704595421,4.06885611683056,6.75855188455855,-8.15634310506795,-13.9513696796422,11.0613513560847,234.923368967515,9.58574097135741,0,0
27.275,-18.9778064495006,3.96791547042198,2.13615100571697,0.0632368652467865,0.0565983076999569,-0.357110514449301,-0.318762411232942,-23.3703653175478,-3.64164035882629,9.83020626408717,0.050111348015133,2.34488768942014,3.3828824596892,3.67091675559141,4.18212104607722,8.67636313823162,0.870308094645082,-19.9528825546177,-3.94682041111266,-23.685040665406,1.89666301369862,10.5060660024907,-1.56362864259029,15.008609688975,20.8383955229617,-23.6950500438172,-2.83410414772936,8.94633994165423,1.1621676070901,8.9090740861097,7.65647894383071,-20.8821652084389,707.879227895392,0.217614266127162,-0.0137167971167866,-40.0021782164615,1.40231599675911,-0.598357105410235,0.154334211363419,-4.74703713503372,-3.58213955452255,-4.00833455652631,-56.3168505902843,224.302929201043,201.147269366026,-0.104238069217335,1.33858458644819,1.80526565007819,1.40822288307628,0.211226899128272,5.40030535491906,-0.54818704856788,19.3224549913134,6.50649570284273,-37.8217237827283,-6.85544981320048,-1.70273175591531,0.0403080946450977,-72.1691779284473,-41.6725360146365,345.217270728595,2.31313678608959,7.29521292363424,-8.07753273049446,6.38632178984721,16.3628621157317,229.201396778149,7.75763387297634,0,0
27.28,-18.9435561014558,4.90485388237097,2.42039816460963,0.0706141828303459,0.103722479445732,-0.327262446489904,-0.272964370022082,-23.410324389029,-9.07588329134665,9.6553119668103,0.0480510069119921,2.17437205524775,3.42191454855918,3.75540909104411,4.18734445828144,8.69203337484432,0.710994022415937,-19.3047925218701,-5.70085512660857,-22.3469443291361,2.01157808219177,10.336305105853,-1.80651731008718,14.8473932629184,20.4708220715527,-25.2395034054395,-2.90979068699097,9.00763972573381,1.08397901803441,9.43010942359345,8.79910036350692,-24.2551833802885,694.037185554172,0.222070766008954,-0.0115071093418623,-40.0135951651909,3.08880515694767,2.02648724531921,0.168465821597405,-4.70794752377715,-3.94950045321383,-4.40808000959755,-54.1305365407096,228.050681229873,210.96165091776,-0.126004250819641,1.22854452988162,1.67209734687473,1.29897667922905,-0.253656787048573,5.32717758405979,-0.383649564134506,20.238164291315,8.11865996340883,-44.0865940992881,-7.00431706102116,-1.561699626401,-0.119005977584047,-69.6670989960487,-45.3353732146426,347.986968928247,0.557333734051079,7.83189955333695,-7.99871859785629,26.7249830600838,21.6646256773795,223.479151737123,5.9294396014944,0,0
27.285,-18.9261434936523,5.38118600845337,2.78042541078484,0.077310842293779,0.118944337915577,-0.312087923288345,-0.242098310797112,-23.4306392669678,-11.8386096954346,7.99586481944007,0.0417472279351796,2.00147821904928,3.44175815582275,3.81735721862575,4.06354221584236,8.54260041759101,0.549282265431286,-17.5187355305194,-7.19714517248992,-21.5587108488279,2.17896894166775,10.1100892600809,-1.96632298055592,14.7338757827818,20.8336948588939,-27.9280354694597,-2.92088206359772,9.06876880635049,1.00588664003752,9.51136687947178,9.15399041659338,-26.2148433237525,682.156935925878,0.226035850694904,-0.00914069258223539,-40.0193994522095,3.94620299339294,3.55600923261374,0.182089678218876,-4.50590461164928,-4.13626384735107,-4.62483244039593,-53.0190316581726,229.956008911133,218.046046777764,-0.145367718722066,1.07679402393997,1.60439562797546,1.2531032843336,-0.584170690330165,5.25636761059639,-0.0390126582278597,20.3781753914513,8.50146575737511,-50.5501400830993,-7.12977593631735,-1.33125512201488,-0.308968941667743,-66.682716371598,-47.4366945221789,350.187291345458,-1.44625154591199,8.72433914796624,-7.67318009365699,46.4726511449364,25.0286124193216,216.261697009959,4.32735221192744,0,0
27.29,-18.9261434936523,5.38118600845337,3.21886252385817,0.0833041861866113,0.101172963066043,-0.312087923288345,-0.227034126103392,-23.4306392669678,-11.8386096954346,4.80086990460036,0.0310540961221984,1.8261079754555,3.44175815582275,3.85510286794443,3.80628422288921,8.2223963199791,0.385075035886715,-14.5555721496432,-8.4270100192846,-21.339092126186,2.40064870155291,9.82546339553699,-2.04021623385097,14.6696795407788,21.952060969578,-31.8000824871154,-2.86516749075743,9.12972726797009,0.927886192386057,9.13779549489798,8.69421009034848,-26.712939025185,672.304502153204,0.22949307780656,-0.00661195058721637,-40.0193994522095,3.94620299339294,3.95285127840511,0.195189716316728,-4.13530896532781,-4.13626384735107,-4.65131444752123,-53.0190316581726,229.956008911133,222.307664186959,-0.162248077690528,0.881890102367031,1.60439562797546,1.27408359969122,-0.775745791465488,5.18794793161949,0.491924050632899,19.7159404739465,7.61285461807015,-57.2197917522551,-7.23103706120317,-1.00831423724391,-0.530648701552906,-63.1992255555394,-47.9232344615702,351.798954894692,-3.70629794716827,9.98479994267719,-7.09243732249785,65.611004875877,26.3887954494621,207.497133627414,2.9589586323894,0,0
27.295,-18.9261434936523,5.38118600845337,3.65729963693151,0.0892975300794435,0.0834015882165086,-0.312087923288345,-0.2129650816877,-23.4306392669678,-11.8386096954346,1.60587498976065,0.0203609643092172,1.65073773186172,3.44175815582275,3.88758758914773,3.54902622993606,7.9021922223672,0.220867806342144,-11.592408768767,-9.65687486607928,-21.1194734035441,2.62232846143807,9.54083753099307,-2.11410948714602,14.6054832987758,23.0704270802622,-35.6721295047712,-2.80945291791715,9.19068572958969,0.849885744734593,8.76422411032419,8.23442976410358,-27.2110347266174,662.45206838053,0.232950304918216,-0.00408320859219736,-40.0193994522095,3.94620299339294,4.34969332419649,0.208289754414579,-3.76471331900635,-4.13626384735107,-4.67317043027271,-53.0190316581726,229.956008911133,226.569281596155,-0.179128436658991,0.686986180794092,1.60439562797546,1.29560784201573,-0.96732089260081,5.11952825264259,1.02286075949366,19.0537055564416,6.7242434787652,-63.8894434214109,-7.33229818608899,-0.685373352472926,-0.752328461438069,-59.7157347394809,-48.4097744009615,353.410618443926,-5.96634434842455,11.2452607373881,-6.51169455133871,84.7493586068176,27.7489784796027,198.73257024487,1.59056505285136,0,0
27.3,-18.9261434936523,5.38118600845337,4.09571584417263,0.0952905881939097,0.0656310607527673,-0.312087923288345,-0.200247503558676,-23.4306392669678,-11.8386096954346,-1.58896757933641,0.00966834237282444,1.47537585038141,3.44175815582275,3.91403998652803,3.29178050371917,7.58200339292703,0.0566684066292312,-8.62938667929751,-10.8866810696903,-20.8998651528992,2.8439976510505,9.25622523815736,-2.18799921701682,14.541290117818,24.1887398643151,-39.5439918930632,-2.75374100169391,9.25164128454986,0.771889016349182,8.39067053861443,7.77467136139131,-27.7091066775396,652.600104397755,0.23640736718021,-0.00155458717423322,-40.0193994522095,3.94620299339294,4.74651644751764,0.221389167868233,-3.3941353436579,-4.13626384735107,-4.68931720846278,-53.0190316581726,229.956008911133,230.830695800248,-0.196007990727636,0.492091552751649,1.60439562797546,1.31912601706744,-1.15888685893253,5.05111183609554,1.55377215189872,18.3915022160357,5.83567471077148,-70.5587770640709,-7.43355448257861,-0.362447866370876,-0.973997651050493,-56.2324100254067,-48.8962911408516,355.022205144812,-8.22628298473704,12.5056614300204,-5.93097947151904,103.886799770825,29.1090966526466,189.968424779709,0.222236721910479,0,0
27.305,-18.916043232952,3.88926050392371,4.18151758517374,0.0920299938528838,-0.000998056614644291,-0.240998573425234,-0.118126110232842,-23.7033304415924,-18.9666981436305,-5.56108118538424,0.00026429221335036,1.30412257715989,3.34020195141539,3.8322895750291,3.17837748257267,7.07947126134418,-0.136349072734467,-5.46123411323991,-13.165783162267,-18.4910420350641,3.12028199394976,8.96047639089831,-2.09141102196501,13.7835484043823,23.397718899135,-46.8188158345553,-2.83986807634654,9.25656108314326,0.706653308054655,8.00654337135535,7.16629654746236,-27.4908036073572,641.065263711693,0.239668331356891,0.000546329747493485,-39.9285023940012,8.0904404876139,5.47872523690911,0.229896369556305,-2.89559408014117,-4.36781199339987,-4.93030114597208,-50.8425528321999,233.602939831795,232.695130106945,-0.211929091393223,0.277534712551732,1.5759598907414,1.31761846863593,-0.804162567407596,5.07696646060767,2.06049348941206,12.6277398622701,1.47273184886406,-77.261105509034,-7.25361567802183,0.67192160989083,-1.2341091674339,-50.2785768450725,-45.2501390776545,357.60861615704,-10.3994526560175,13.0440368629766,-5.55279619825775,99.7657490824737,27.631853051407,180.143217050215,0,0,0
27.31,-18.9039851339456,2.10813960243836,4.19894344812895,0.0869753268903695,-0.0770969296517891,-0.156129237436432,-0.0242111718185393,-24.0288801753425,-27.4764979186002,-9.68367942300718,-0.00888937200041358,1.13367570112626,3.21896005441966,3.72377191095367,3.09287162961989,6.54161186373798,-0.334943311850598,-2.25348765838047,-15.6482111512187,-15.6578731917063,3.40714033933974,8.66258503222411,-1.96177311587532,12.8913726388057,22.23652830348,-54.7530506963626,-2.95349244553682,9.25061541970868,0.643895640870105,7.62038788010255,6.52914004608093,-27.1336097812364,629.204774431146,0.2428910870033,0.00256419632018761,-39.8199858160846,13.0379985253748,6.27592271865206,0.237512669475319,-2.37226946137921,-4.64424351855013,-5.20858292196395,-48.2441845377975,237.95679320406,234.094690340726,-0.227663444171329,0.0591776367963015,1.5420121595826,1.31530124004758,-0.343534262790993,5.12109851374458,2.56249559384452,5.87512710219976,-3.56363440032606,-83.9694500059269,-7.01916414573195,1.84417927134026,-1.50165973957649,-43.8460576802854,-40.802881253826,360.383895733166,-12.5556743445717,13.4423828976697,-5.21390482505403,91.1351741883593,25.6045367552107,170.112831541797,0,0,0
27.315,-18.89192645995,0.326933768384162,4.21637014203465,0.0819204188965757,-0.153199431455947,-0.0712558544619827,0.0674642398698104,-24.3544454328985,-35.9867034825058,-13.8064742463074,-0.0180434727057236,0.963220697350709,3.09771237601642,3.60792816876497,3.00736169932921,6.00372681836116,-0.533547020912802,0.954411757542088,-18.1307575144964,-12.8245692489807,3.69401236354072,8.3646794686308,-1.83212902801527,11.9991543299185,21.0752823365696,-62.6876639013515,-3.06712223289359,9.24466947275574,0.581134981092585,7.23421397506446,5.8919531619566,-26.7763989223644,617.343719584375,0.246113996326484,0.00458215911464382,-39.7114640635659,17.985792486937,7.07315821467578,0.245129332576819,-1.84891988793608,-4.92068822530952,-5.47858884808269,-45.6456923404675,242.31085418938,235.494317312395,-0.243398547240446,-0.159189851294056,1.50806280962969,1.31877122862815,0.11711600683942,5.16523267131395,3.06452163619622,-0.877807655522582,-8.60024080812805,-90.6781143895441,-6.78470143364463,3.01649283177693,-1.76922306984086,-37.4132317814768,-36.355411362961,363.159307648216,-14.7119988523376,13.8407479274528,-4.87499729184968,82.5041877461596,23.5771237866433,160.081967735466,0,0,0
27.32,-18.8836085163859,-1.07623720169067,4.08885338529263,0.0762319613176598,-0.21950988560395,0.00368231321680152,0.146757374488326,-24.7160573971166,-43.8153904563063,-18.1190319624274,-0.0253482321883873,0.804019913432609,2.9632336722969,3.47150120154384,2.92918984574274,5.52432770557511,-0.622977043605002,4.24953626852488,-20.5601981186823,-9.74579717577411,3.96107858617759,8.10243410664399,-1.66730110530792,11.1114560043667,18.7771944583152,-70.38563114716,-3.16272004007149,9.20347984468721,0.530270374604597,6.75406457450285,5.04380468438669,-25.959627912529,605.837969148549,0.248984783464339,0.00664636124034948,-39.5432775204373,23.9776618389462,8.4805874380901,0.251876034606432,-1.3477342019785,-5.13656090346371,-5.67924079004086,-43.1296824463277,245.663267567687,236.8425421107,-0.257757054501159,-0.371284966636613,1.47134010889949,1.32606823004503,0.768090610955926,5.14540872100084,3.26811976193366,-7.19113084500346,-15.0962762025153,-97.3462623318083,-6.66702295639502,4.17998542451111,-1.91513907445647,-31.3740997161378,-34.0636567982209,364.795161897393,-16.8231111515137,14.0731401151576,-4.73281027679091,76.7889900656962,20.6708898859095,149.380177404616,0,0,0
27.325,-18.8891764805781,-1.07623720169067,3.42319319823428,0.0681901192098943,-0.249481438881573,0.0417519969108676,0.186593772555016,-25.2115770585769,-49.1156414884996,-23.1370695234895,-0.0257887980575994,0.686565593667564,2.77960345218324,3.27874899027756,2.87824365358922,5.26195481598445,-0.307110652253123,7.86923177276631,-22.7930250587443,-5.75501212374771,4.154674116361,7.97252131665249,-1.37181319081745,10.2403390150748,12.2579687586692,-77.2067602077157,-3.19139408393979,9.03143582440778,0.523559438181752,5.92491532878512,3.41225291832415,-23.4365175712156,595.648730717843,0.250548932436647,0.00888269464553785,-39.1535426195085,33.8470955493658,12.1537285714918,0.255394448958151,-0.928721190057512,-5.12760333175085,-5.64603104339014,-40.9193296580556,245.297733147773,238.000234980612,-0.267008060448749,-0.560141031405894,1.42431285740697,1.33014495425407,2.12580663184746,4.88813045062552,2.36382485120854,-11.8737777657815,-27.0120244784239,-103.865488031454,-6.98288934774688,5.31099089031944,-1.60946192153529,-26.7952320756726,-39.774662042098,362.200679889574,-18.7668437235413,13.6893963631341,-5.32093281078119,81.8976195616289,14.5013061302944,136.185110916032,0,0,0
27.33,-18.8947441792752,-1.07623720169067,2.75756475160065,0.0601486605582659,-0.279451563036877,0.0798198653425031,0.223768160453355,-25.7070730923593,-54.4156397908133,-28.1548678113511,-0.0262293429194747,0.569116874432739,2.59598198804041,3.07921654970668,2.82729989068384,4.99959443702174,0.00874067776024068,11.4887546804264,-25.0257455317579,-1.76441736282621,4.34826041540144,7.84261472124378,-1.07633936596624,9.36926356292729,5.73905391281399,-84.0275640189361,-3.22006676055443,8.85940000763875,0.516848821753968,5.09580561907949,1.78077894893174,-20.9135275384251,585.459978136767,0.252113006826226,0.0111189214164803,-38.7638263021627,43.7160586592842,15.8266945598843,0.258912695542639,-0.509728157776615,-5.11864618715851,-5.60380837105152,-38.7090822652054,244.9322161575,239.15787264869,-0.276258625284096,-0.748988091022363,1.37728784829722,1.34143103183018,3.48345791327585,4.63086444795335,1.45957305963805,-16.5562014056649,-38.9272045801824,-110.384402877309,-7.29874067776023,6.4419424268189,-1.30379934410299,-22.2165827676334,-45.4853949702567,359.606321593467,-20.7104836132986,13.3056709090198,-5.90902730154554,87.0060054647,8.33201655662467,122.990673602848,0,0,0
27.335,-18.9003121434674,-1.07623720169067,2.0919045645423,0.0521068184505005,-0.309423116314499,0.117889549036569,0.258286266342079,-26.2025927538196,-59.7158908230066,-33.1729053724132,-0.0266699087886868,0.451662554667694,2.41235176792675,2.8734653353613,2.77635369853031,4.73722154743108,0.324607069112119,15.1084501846678,-27.25857247182,2.22636768920019,4.54185594558485,7.71270193125228,-0.780851451475766,8.49814657363547,-0.780171786831974,-90.8486930794919,-3.24874080442273,8.68735598735932,0.510137885331123,4.26665637336176,0.149227182869197,-18.3904171971118,575.270739706061,0.253677155798534,0.0133552548216687,-38.3740914012339,53.5854923697038,19.499835693286,0.262431109894358,-0.0907151458556305,-5.10968861544565,-5.55287117869705,-36.4987294769333,244.566681737586,240.315565518602,-0.285509631231686,-0.937844155791643,1.3302605968047,1.35967076888625,4.84117393416738,4.37358617757804,0.555278148912928,-21.238848326443,-50.842952856091,-116.903628576955,-7.61460706911209,7.57294789262723,-0.99812219118181,-17.6377151271681,-51.1964002141337,357.011839585648,-22.6542161853262,12.9219271569963,-6.49714983553581,92.1146349606328,2.16243280100964,109.795607114264,0,0,0
27.34,-19.0008188631769,-3.13600898484457,1.06769816463025,0.0482307009663432,-0.310092769861022,0.130818260916079,0.265083676146867,-26.9986264576385,-66.5612440888163,-38.7416640028043,-0.0260947513615432,0.347425901181325,2.20236975269606,2.6359055587348,2.70761153054222,4.58827728208649,0.497736787920393,17.978528517078,-28.7119016751824,6.52537558148403,4.72342999313659,7.75102608098833,-0.49859814687714,8.16644000440616,-5.23853131328538,-96.9701483684554,-3.26920175552368,8.56459045410156,0.505349159240723,3.67499995231628,-1.01499998569489,-16.5900001525879,568,0.254793286323547,0.014951036311686,-37.5505734688465,65.3813484286149,24.7063671168093,0.264905891715838,0.290187432215069,-4.85091907015056,-5.24399015492114,-33.7807820686299,240.397561797886,240.703610703784,-0.29428780334592,-1.12702421671922,1.20416485147286,1.30518022720001,5.93808167467399,4.16423644474948,-0.187901509951934,-23.2561728395062,-61.5930607454858,-123.124088055111,-7.82159746053532,8.41386067261496,-0.833735415236762,-11.9794033910369,-65.8178503944347,348.848195598939,-24.4010301166474,12.5447884520686,-6.83589601868542,101.801556179437,-3.04124657712575,96.9998189393347,0,0,0
27.345,-19.3378988401351,-10.3284055609857,-0.850059397745226,0.0547335699748289,-0.23775172413642,0.0811059946915315,0.206814416423021,-28.5435760251937,-77.2576297021681,-45.6835677482704,-0.0229886458346007,0.27610602078968,1.92669266654599,2.32809408000334,2.59451612903227,4.72193548387097,0.31524193548387,18.9812823576264,-28.2232178414974,11.5930904022302,4.87508064516129,8.20854838709677,-0.24927419354839,9.17871365989647,-4.56262445240941,-101.349263241736,-3.26920175552368,8.56459045410156,0.505349159240723,3.67499995231628,-1.01499998569489,-16.5900001525879,568,0.254793286323547,0.014951036311686,-35.6460720892875,81.979186888664,33.7344756670548,0.26478069251281,0.576194615681797,-3.96965619248729,-4.30533851281463,-29.7976213009896,226.750448780675,239.17400861011,-0.301889288789481,-1.31704306928347,0.8810351224496,1.0590366949655,6.38532258064517,4.07427419354838,-0.529758064516118,-18.6327160493827,-69.4405615292712,-128.601154918359,-7.75733870967739,8.53209677419354,-1.02137096774191,-3.63052568697732,-102.64366786141,326.806650736758,-25.6574776403366,12.1840445841512,-6.55333378622609,122.897705262707,-5.83907258702863,85.1967720523957,0,0,0
27.35,-19.6749627442355,-17.520459184782,-2.76772551640707,0.0612361289094537,-0.165414127822734,0.0313960988783055,0.146347906117731,-30.0884519254989,-87.9535052837817,-52.6251404855472,-0.0198826884149216,0.204789541117107,1.65102872540289,2.01675216397131,2.48142612020787,4.85558731248162,0.132755784880861,19.98398838424,-27.7345573095402,16.6605635810337,5.0267240660849,8.6660488773409,3.78713599267499e-05,10.1909390475222,-3.88674982054644,-105.728169307327,-3.26920175552368,8.56459045410156,0.505349159240723,3.67499995231628,-1.01499998569489,-16.5900001525879,568,0.254793286323547,0.014951036311686,-33.7416615213526,98.5762339202151,42.7621537333908,0.264655499279608,0.862188161575405,-3.08843533575085,-3.36055555744573,-25.8146504609083,213.103986493629,237.644479451879,-0.309490411774267,-1.50705286125013,0.557920801099857,0.817036770359459,6.83254216099618,3.98431623198351,-0.871598318462593,-14.0094797178131,-77.2876881236238,-134.077960620685,-7.69308302284535,8.65032723796449,-1.20899757329148,4.71795392068211,-139.467729376761,304.766156873283,-26.9138652533103,11.8233179174483,-6.27078502707557,143.992848426223,-8.63676518924459,73.3942879657089,0,0,0
27.355,-20.0120427211938,-24.7128557609231,-4.68548307878255,0.0677389979179393,-0.0930730820981322,-0.0183161673462416,0.0839708927365354,-31.6334014930542,-98.6498908971335,-59.5670442310133,-0.0167765828879791,0.133469660725462,1.37535163925283,1.70294026075471,2.36833071869792,4.9892455142661,-0.049739067555662,20.9867422247884,-27.2458734758552,21.7282784017799,5.1783747181096,9.12357118344934,0.249361824688677,11.2032127030125,-3.21084295967047,-110.107284180608,-3.26920175552368,8.56459045410156,0.505349159240723,3.67499995231628,-1.01499998569489,-16.5900001525879,568,0.254793286323547,0.014951036311686,-31.8371601417937,115.174072380264,51.7902622836364,0.264530300076579,1.14819534504213,-2.20717245808757,-2.41087622250476,-21.8314896932679,199.456873476418,236.114877358205,-0.317091897217828,-1.69707171381438,0.234791072076597,0.57765886075986,7.27978306696736,3.89435398078241,-1.21345487302678,-9.38602292768961,-85.1351889074092,-139.555027483934,-7.62882427198742,8.76856333954307,-1.39663312579663,13.0668316247417,-176.293546843736,282.724612011103,-28.1703127769994,11.4625740495309,-5.98822279461623,165.088997509494,-11.4345911991475,61.59124107877,0,0,0
27.36,-20.3240591676363,-29.7253445796454,-7.32199254743584,0.0764751912754428,0.00556390775535076,-0.0610633598717652,0.0269982909815349,-32.96189147807,-107.928471237308,-67.1420837474828,7.67628045018343e-05,0.065304129738136,1.15158855694339,1.43970319168065,2.12132102237377,5.05657325601652,-0.0071416838804641,22.0222994038396,-25.9343670508234,27.9931605780141,5.26483586769865,9.51051243124858,0.409295438142386,12.1182872809181,-4.82349375249835,-114.484664608695,-3.26920175552368,8.56459045410156,0.505349159240723,3.67499995231628,-1.01499998569489,-16.5900001525879,568,0.254793286323547,0.014951036311686,-30.2598295260637,125.498681204253,61.8930005666267,0.262194451987263,1.3971572886683,-1.50039326539566,-1.63231611665863,-18.849269705385,187.876773468813,232.207605312182,-0.31829925086232,-1.88369598700404,-0.0203661962193797,0.40722911199657,7.18437943306539,3.84516413230131,-1.48816654637765,-4.79598458948568,-90.9106447645392,-144.325455707983,-7.10973569597569,8.98253005151687,-1.7465172594012,22.2921456336005,-212.689107099019,260.769917973024,-29.1147171878841,10.713032288536,-5.02593783200023,185.086480408862,-14.3323741872113,55.66737346868,0,0,0
