time,hip_angle_l,hip_angle_l_velocity,hip_angle_l_velocity_filt,hip_angle_l_torque_estimated,hip_angle_l_torque_desired,hip_angle_l_torque_measured,hip_angle_l_torque_interaction,knee_angle_l,knee_angle_l_velocity,knee_angle_l_velocity_filt,knee_angle_l_torque_estimated,knee_angle_l_torque_desired,knee_angle_l_torque_measured,knee_angle_l_torque_interaction,thigh_imu_l_accel_x,thigh_imu_l_accel_y,thigh_imu_l_accel_z,thigh_imu_l_gyro_x,thigh_imu_l_gyro_y,thigh_imu_l_gyro_z,shank_imu_l_accel_x,shank_imu_l_accel_y,shank_imu_l_accel_z,shank_imu_l_gyro_x,shank_imu_l_gyro_y,shank_imu_l_gyro_z,foot_imu_l_accel_x,foot_imu_l_accel_y,foot_imu_l_accel_z,foot_imu_l_gyro_x,foot_imu_l_gyro_y,foot_imu_l_gyro_z,insole_l_force_y,insole_l_cop_x,insole_l_cop_z,hip_angle_r,hip_angle_r_velocity,hip_angle_r_velocity_filt,hip_angle_r_torque_estimated,hip_angle_r_torque_desired,hip_angle_r_torque_measured,hip_angle_r_torque_interaction,knee_angle_r,knee_angle_r_velocity,knee_angle_r_velocity_filt,knee_angle_r_torque_estimated,knee_angle_r_torque_desired,knee_angle_r_torque_measured,knee_angle_r_torque_interaction,thigh_imu_r_accel_x,thigh_imu_r_accel_y,thigh_imu_r_accel_z,thigh_imu_r_gyro_x,thigh_imu_r_gyro_y,thigh_imu_r_gyro_z,shank_imu_r_accel_x,shank_imu_r_accel_y,shank_imu_r_accel_z,shank_imu_r_gyro_x,shank_imu_r_gyro_y,shank_imu_r_gyro_z,foot_imu_r_accel_x,foot_imu_r_accel_y,foot_imu_r_accel_z,foot_imu_r_gyro_x,foot_imu_r_gyro_y,foot_imu_r_gyro_z,insole_r_force_y,insole_r_cop_x,insole_r_cop_z
99.495,-63.6454351806641,-74.9778594970703,-76.8026345487547,0.161165748456031,-2.86852326226304,-3.79340648651123,-3.78184161962378,-99.8424968719482,54.1706047058105,45.6411678111589,-0.00536267843368946,0.760927781230993,0.0395604409277439,-0.0551303547170403,4.18456777820366,7.29582010987604,0.937326178612493,-18.6083156279229,-24.7853094779546,161.14138838809,-7.71036105787657,-5.79554363102084,-2.65323086750988,-39.1712552465587,18.8841181286051,246.305251684971,-2.23154105869033,3.72523183352313,-1.17134786854763,-88.5027371052842,-113.727105529832,284.90098312454,13.0334227673438,0,0,-20.6760089874268,64.2154846191406,65.3500089668761,0.245020381643805,4.95557657153583,7.05494499206543,7.04380995971481,-22.3537473225594,100.090057373047,95.7544659575144,0.301325932475299,8.81479622657175,8.32087898254395,8.30972060550545,3.97345368595889,10.9182442826115,-1.67345368595888,10.9292982348219,-37.4791050920603,-125.084532332682,-5.29587785869427,12.1783288616328,-1.5804456368979,-24.2872566787647,-108.367535296465,9.55893795929567,-2.29394853608246,9.46653896527713,-1.26098101098251,-5.63802562748714,-7.90756667074884,-20.6707737930101,1130.71301903667,-0.017653484496245,0.096128697908479
99.5,-64.2398982741827,-71.4027348764967,-75.2370946875337,0.191747433867027,-2.71519874962405,-3.74777634877398,-3.75666370722485,-99.1300500549469,63.4063431769597,50.8628611984214,-0.0133389721823055,0.772279616907133,0.0286092069040122,-0.0911882212487547,4.06788674489712,7.14297268820757,0.728230518138998,-19.6735240736149,-23.0574174565718,153.989035188399,-7.28268955045037,-6.3356522188249,-2.26383212131227,-39.601830044655,17.4809778755148,251.842490060509,-2.26329350471497,3.74820566177368,-1.20229983329773,-88.7249984741211,-113.855003356934,284.970001220703,13,0,0,-20.0951607103043,65.1092669622788,65.7472975255055,0.230431748691255,4.85325867764056,7.00748964881869,7.00843826765894,-21.4643237694639,99.1962766139017,97.4852497597832,0.263406465566371,8.38519703953761,8.56728177582486,8.58176831405646,3.57137509296755,10.6338692050244,-1.92536908106769,11.8195334586163,-36.2653841484379,-128.27103514555,-4.33458030328072,12.1052578299314,-1.20213680687545,-24.9715637979108,-111.910751050061,8.85879648758748,-2.29442882537842,9.47230243682861,-1.25978028774261,-5.67000007629395,-7.94500017166138,-20.7549991607666,1130,-0.0175092536956072,0.0961274728178978
99.505,-64.8601818702458,-67.6723247295903,-73.7441466066353,0.2229736914417,-2.55891780643318,-3.70016426615169,-3.75776054114799,-98.3866581127531,73.0432359187349,55.8174330325484,-0.021293051958563,0.781377307653451,0.017182306065876,-0.130824591270578,3.95090385092141,6.9999935955706,0.507262829518227,-20.7112324152376,-21.2494513768376,146.725076797041,-6.84725322287414,-6.89457049004215,-1.86089104206264,-40.0752176128695,15.9217408570458,257.474999770451,-2.26329350471497,3.74820566177368,-1.20229983329773,-88.7249984741211,-113.855003356934,284.970001220703,13,0,0,-19.4890832901434,66.0418707386008,66.075384057578,0.215246619858403,4.75755111391179,6.95797308289151,6.9785619978483,-20.5362681072162,98.2636744903736,99.0251032758975,0.225242921645119,7.94745276796829,8.82438707363506,8.88350035891975,3.15543591438726,10.345744669862,-2.19183011734567,12.7261910045186,-35.0351113722874,-131.555328556665,-3.3272276051566,12.0272692339476,-0.807861127179559,-25.6375158006531,-115.41167945002,8.00295455635234,-2.29442882537842,9.47230243682861,-1.25978028774261,-5.67000007629395,-7.94500017166138,-20.7549991607666,1130,-0.0175092536956072,0.0961274728178978
99.51,-65.4804358895591,-63.9420924584301,-72.2512697134196,0.254198460066461,-2.40264431512783,-3.65255445379845,-3.76721685197548,-97.6433016174382,82.6796691481727,60.7717686196873,-0.0292467524634217,0.790474564597997,0.00575595009236104,-0.148546464123984,3.8339265349971,6.85702132055201,0.286305677216768,-21.748891276203,-19.4415715056709,139.461464770282,-6.41183765804478,-7.45346211056938,-1.45796917610115,-40.5485826087223,14.3625781870899,263.107240907547,-2.26329350471497,3.74820566177368,-1.20229983329773,-88.7249984741211,-113.855003356934,284.970001220703,13,0,0,-18.8830347693446,66.9744300459271,66.4034549456236,0.200062215092346,4.66184811377084,6.90845887804414,6.94257014177673,-19.6082566970981,97.3311168357623,100.564883367755,0.187081197461799,7.50972936919468,9.0814801119899,9.1765988616723,2.73951656887862,10.0576338732336,-2.45827844806213,13.6328053186095,-33.8048972587716,-134.83946536405,-2.31992294025286,11.9492843566647,-0.413604247582833,-26.3034360490562,-118.912440916525,7.14715343390659,-2.29442882537842,9.47230243682861,-1.25978028774261,-5.67000007629395,-7.94500017166138,-20.7549991607666,1130,-0.0175092536956072,0.0961274728178978
99.515,-66.1007194856222,-60.2116823115237,-70.7583216325212,0.285424717641134,-2.24636337193697,-3.60494237117615,-3.77727316400289,-96.8999096752445,92.3165618899479,65.7263404538142,-0.0372008322396792,0.799572255344315,-0.00567095074577522,-0.165967211368836,3.71694364102139,6.71404222791505,0.0653379885959972,-22.7865996178257,-17.6336054259367,132.197506378924,-5.97640133046855,-8.01238038178663,-1.05502809685151,-41.0219701769367,12.8033411686209,268.739750617488,-2.26329350471497,3.74820566177368,-1.20229983329773,-88.7249984741211,-113.855003356934,284.970001220703,13,0,0,-18.2769573491838,67.907033822249,66.7315414776961,0.184877086259493,4.56614055004207,6.85894231211695,6.90326981582701,-18.6802010348503,96.3985147122341,102.104736883869,0.148917653540548,7.07198509762537,9.33858540980011,9.46546967755898,2.32357739029834,9.76950933807122,-2.72473948434012,14.5394628645118,-32.5746244826211,-138.123758775165,-1.31257024212873,11.8712957606809,-0.0193285678869415,-26.9693880517986,-122.413369316483,6.29131150267145,-2.29442882537842,9.47230243682861,-1.25978028774261,-5.67000007629395,-7.94500017166138,-20.7549991607666,1130,-0.0175092536956072,0.0961274728178978
99.52,-66.6406206753964,-55.7264752921384,-68.8945370633133,0.313964863589195,-2.06213228305461,-3.56969589287935,-3.79929215139409,-96.0575411627515,100.57973850993,70.6809354426781,-0.0490449402505355,0.783983178869533,0.00712018820778508,-0.15791991746564,3.87769835337111,6.48214985776283,-0.165690628958229,-23.5307705006999,-16.1151127733006,122.527613904456,-5.68925486409601,-8.1750876264042,-0.754233476608753,-41.3259739663804,10.3748984523744,273.153703434534,-2.68963805352506,3.92488255818428,-1.32650905382559,-89.6195344906906,-112.446696384704,286.234869872512,12.7019456384061,0,0,-17.6991691731182,67.2907929370668,66.7794522495581,0.169542619162847,4.47329402986378,6.75431648300554,6.80535618678131,-17.781518064164,94.6089273886555,102.691646258755,0.117178316746978,6.61800436626312,9.54044552610182,9.6942752786153,2.06937353350361,9.49654477875369,-2.89180350505615,15.7613486601353,-31.3339892111496,-139.468900727246,-0.348965094790154,11.7678404867211,0.318239269918405,-26.9805641241371,-119.468820745273,6.10556261806635,-2.30085344237741,9.51905939928972,-1.26745413385081,-5.61262461310836,-8.08322288327178,-21.0157967271613,1129.10583691522,-0.0152217115915724,0.0952719860256929
99.525,-67.0261042796671,-49.7899441448452,-66.3177550990504,0.337346352210861,-1.82415610001629,-3.55821086081182,-3.84367884258414,-95.0248249869981,106.203821217777,75.6362652777772,-0.0683672276644944,0.720944631010562,0.0664595272485149,-0.10117763919351,4.57227963620506,6.07933626113499,-0.41608827010527,-23.7108740107037,-15.1527686452207,108.232233811918,-5.68707749330343,-7.5763106584439,-0.649719678564769,-41.3044690696635,6.27552751572146,275.226237855622,-3.93546470500135,4.44115229087523,-1.68946234529979,-92.2334691903557,-108.331465254482,289.930958121883,11.830997321373,0,0,-17.1756716539947,63.6976286156752,66.288879459267,0.153918991347534,4.38593342137771,6.5437575617676,6.59791189306189,-16.9391633956131,91.1719883252384,101.447104529455,0.0977817100331715,6.13275434311948,9.63615402283939,9.81167217843252,2.12598517411077,9.25267924998441,-2.86785242633775,17.5892648810691,-30.0732646411232,-137.087233415853,0.530692705413331,11.6154245312403,0.546863203139613,-25.7332801145588,-104.135829386146,7.20768857480584,-2.31962689475345,9.65568849455714,-1.28987797397635,-5.44496706623248,-8.48712516944891,-21.7778765045653,1126.49299196412,-0.00853725666530551,0.0927721575449736
99.53,-67.4115695030678,-43.8536960669373,-63.7410960025142,0.360726725941786,-1.58619126430694,-3.54672637638077,-3.88571902789431,-93.9921580538624,111.8276357546,80.5913588297446,-0.087688593741079,0.657909088994994,0.125796036833826,-0.0414894407945169,5.26682779958054,5.6765418717166,-0.666473971635625,-23.8909689328995,-14.1904704042345,93.93753536062,-5.68490022633361,-6.9775622417409,-0.545210864012968,-41.2829651983566,2.17635204783333,277.298673452829,-5.18123195219328,4.9573974064704,-2.0523983302085,-94.8472792507542,-104.21643034928,293.626870132066,10.9600905334413,0,0,-16.6521990966068,60.1046356257887,65.7983300607741,0.138296108507799,4.29857697847472,6.33320868053162,6.38689644539988,-16.0968488927435,87.735213144096,100.202622143171,0.0783860282004784,5.64752745797046,9.73185795594466,9.9235299477803,2.18259411532632,9.00882534936355,-2.84390248966964,19.4170939421602,-28.812600185753,-134.705679668608,1.41030856122428,11.4630158433522,0.775476234971671,-24.4860555787554,-88.8035691442877,8.30976197928724,-2.33839945196202,9.79231107499072,-1.31230074487435,-5.27731751370844,-8.89100819650502,-22.5399199440055,1123.88027160032,-0.00185312047139252,0.0902724482626371
99.535,-67.7970531073385,-37.9171649196442,-61.1643140382513,0.384108214563452,-1.34821508126862,-3.53524134431325,-3.92451705557654,-92.959441878109,117.451718462447,85.5466886648437,-0.107010881155038,0.594870541136023,0.185135375874556,0.0218197193046062,5.96140908241449,5.27372827508876,-0.916871612782666,-24.0710724429033,-13.2281262761547,79.6421552680819,-5.68272285554102,-6.3787852737806,-0.440697065968985,-41.2614603016397,-1.92301888881966,279.371207873918,-6.42705860366957,5.47366713916135,-2.4153516216827,-97.4612139504193,-100.101199219058,297.322958381438,10.0891422164081,0,0,-16.1287015774833,56.5114713043971,65.3077572704831,0.122672480692486,4.21121636998865,6.12264975929367,6.1724191056427,-15.2544942241926,84.2982740806789,98.9580804138713,0.0589894214866717,5.16227743482682,9.82756645268223,10.0297530295766,2.23920575593348,8.76495982059426,-2.81995141095123,21.245010163094,-27.5518756157266,-132.324012357215,2.28996636142777,11.3105998878714,1.00410016819288,-23.2387715691771,-73.4705777851607,9.41188793602673,-2.35717290433806,9.92894017025814,-1.3347245849999,-5.10965996683256,-9.29491048268215,-23.3019997214095,1121.26742664922,0.00483133445487437,0.0877726197819179
99.54,-68.1825183307392,-31.9809168417362,-58.5876549417151,0.407488588294377,-1.11025024555927,-3.52375685988219,-3.95925705268858,-91.9267749449732,123.07553299927,90.5017822168112,-0.126332247231622,0.531834999120455,0.244471885459867,0.0892503749771935,6.65595724578997,4.87093388567037,-1.16725731431302,-24.251167365099,-12.2658280351685,65.3474568167841,-5.6805455885712,-5.78003685707759,-0.336188251417184,-41.2399564303328,-6.02219435670779,281.443643471125,-7.6728258508615,5.98991225475652,-2.77828760659141,-100.075024010818,-95.9861643138564,301.018870391621,9.21823542847651,0,0,-15.6052290200954,52.9184783145106,64.8172078719902,0.107049597852751,4.12385992708567,5.91210087805769,5.95474273124785,-14.412179721323,80.8614988995365,97.7135980275874,0.0395937396539787,4.67705054967779,9.9232703857875,10.1304098648604,2.29581469714903,8.5211059199734,-2.79600147428312,23.0728392241851,-26.2912111603564,-129.94245860997,3.16958221723872,11.1581911999834,1.23271320002494,-21.9915470333737,-58.1383175433024,10.5139613405081,-2.37594546154663,10.0655627506917,-1.3571473558979,-4.94201041430853,-9.69879350973826,-24.0640431608497,1118.65470628543,0.0115154706487874,0.0852729104995813
99.545,-68.3313591071935,-22.5772415376343,-53.3618632999644,0.420902682943829,-0.833523978980691,-3.44328369870252,-3.9202263829198,-90.4702945777603,128.310908517156,96.7716297665579,-0.149750123744878,0.426770394735597,0.311070900182029,0.1683886388253,7.0745667587046,4.66702452265067,-1.35871934668665,-22.3621008222749,-13.588847087603,50.0149675758374,-6.02938108386372,-5.29716854642456,-0.604215649569456,-39.3866393615005,-11.0312827881544,277.672318073408,-9.4779774642524,5.25255282829508,-2.84501115286542,-88.2699702048471,-93.5905770928795,302.105906507577,9.36776956196181,0,0,-15.0841971133452,51.2265170383703,63.344780728264,0.0906118506088674,3.99000990848708,5.66373572566343,5.69639503849619,-13.6384268200326,75.3825458385488,94.5916846628732,0.00696757089709095,4.20634047537955,9.7451811415544,9.95197685046341,2.07646632815426,8.76157104080867,-2.75322304380383,23.3356285041437,-25.9208242624254,-127.123170363206,3.27783028360163,11.2468804988768,1.37642584706104,-18.1420680398981,-40.3369442191162,10.0909072525664,-2.41764381032776,9.94345345454955,-1.57460221629945,-6.5154279559092,-10.0445669354102,-27.1061325355533,1114.32230438038,0.0267193262749341,0.0798730518056871
99.55,-68.4010747128468,-12.0148256088365,-47.250663136647,0.430983685357625,-0.543855382889406,-3.3397492011894,-3.8527353020341,-88.8722042903522,133.416075826093,103.480668154937,-0.174536184038001,0.307660001832178,0.380093905836266,0.254518260088437,7.40088918008237,4.52962560838635,-1.53046798951705,-19.7813275649292,-15.6758808602688,34.3364671298029,-6.49555597154623,-4.85307562710595,-0.996783976038949,-36.9209710146937,-16.3442831325023,271.947363312395,-11.4700451362271,4.09609595899589,-2.81269142824985,-71.6447010547291,-91.770041928136,302.320592311115,9.85847997004867,0,0,-14.5640143922544,50.1702759134685,61.5441551291037,0.0739026982179102,3.84062321684264,5.4027424546852,5.42302457441939,-12.8876468123733,69.2211364687538,90.8422483689558,-0.0300801530304964,3.74051406533626,9.47556011277788,9.67716832305649,1.7648652190191,9.16395357543991,-2.70415200299513,23.0751279171347,-25.8481264241903,-124.157704378533,3.12816360913514,11.4161755896668,1.49174279296145,-13.4227667078035,-21.7111522479674,9.15795166188277,-2.46700477515299,9.73484457820063,-1.85725248138898,-8.67087350298697,-10.3708893380688,-30.9103647683364,1109.41520029951,0.0447707941528314,0.0735038678398553
99.555,-68.4707936428817,-1.45190601231051,-41.1391715613721,0.441065168482996,-0.254172973980607,-3.2362097666443,-3.77933881576154,-87.2740377981714,138.521486574414,110.190026463128,-0.199323426251886,0.188543929161799,0.4491202028455,0.345138548844372,7.72722716211158,4.39222014226879,-1.70222482216399,-17.2004312436735,-17.7630141529274,18.6572190560709,-6.9617530887308,-4.40896153126169,-1.38937102208912,-34.4551850927428,-21.6575368267306,266.222135557497,-13.462207799746,2.93958394416862,-2.7803701624715,-55.0186391303442,-89.9494199513586,302.535288351924,10.3492137776114,0,0,-14.0438068663034,49.1139844218161,59.7434436672951,0.0571927490527223,3.69122940170901,5.1417367382694,5.14780619211761,-12.1368310038457,63.0594332927802,87.0926332835503,-0.0671296435750274,3.27466544240803,9.20592622715005,9.39813950787998,1.45324925121679,9.56635529764134,-2.65507862223885,22.8146149081816,-25.7754251193662,-121.192096985916,2.97848979782851,11.5854787532759,1.60706523773868,-8.70324033630535,-3.0844721078248,8.22495158330675,-2.5163680937508,9.52622575435867,-2.13991622462763,-10.8264218322662,-10.697227301378,-34.7147784055462,1104.50786222389,0.0628231228131366,0.0671343801601346
99.56,-68.540509248535,9.11050991648728,-35.0279713980548,0.451146170896792,0.0354956221106787,-3.13267526913118,-3.69966696638465,-85.6759475107632,143.626653883351,116.899064851507,-0.224109486545009,0.0694335362583792,0.518143208499737,0.439966039704585,8.05354958348935,4.25482122800447,-1.87397346499439,-14.6196579863278,-19.8500479255932,2.97871861003647,-7.42792797641331,-3.96486861194309,-1.78193934855862,-31.989516745936,-26.9705371710785,260.497180796484,-15.4542754717207,1.78312707486943,-2.74805043785593,-38.3933699802262,-88.1288847866151,302.749974155462,10.8399241856982,0,0,-13.5236241452125,48.0577432969142,57.9428180681348,0.0404835966617651,3.54184271006456,4.88074346729117,4.87141250656946,-11.3860509961864,56.8980239229852,83.3431969896329,-0.104177367502615,2.80883903236474,8.93630519837353,9.11572584033845,1.14164814208164,9.96873783227258,-2.60600758143015,22.5541143211725,-25.7027272811311,-118.226631001243,2.82882312336201,11.7547738440659,1.72238218363908,-3.98393900421076,15.5413198633239,7.29199599262309,-2.56572905857603,9.31761687800974,-2.42256648971716,-12.981867379344,-11.0235497040367,-38.5190106383293,1099.60075814302,0.0808745906910338,0.0607651961943029
99.565,-68.3518761306463,17.9023469978831,-27.2973114786425,0.462084616921208,0.295678269030356,-2.99576399394614,-3.58008218369855,-84.3022015002073,143.130773906574,122.013633460656,-0.248885168204857,-0.0547123857585823,0.60616532553009,0.557543122332679,8.05219391246791,4.0134124286179,-1.44170183882514,-14.6076576091797,-20.9223169481922,-10.4561306844412,-7.90658902987669,-3.60438782493576,-1.94487844008394,-28.1005375099743,-29.6666774703304,251.217471795858,-18.6074909918166,0.220445311327747,-3.04848369719057,-39.4344032554399,-91.8298073627672,285.635240679159,11.7926918200891,0,0,-13.045534693347,48.6231833415117,56.2984009502845,0.0234538043031019,3.42757068233964,4.73706699036359,4.71187131652657,-10.8639243296435,52.9543474081898,78.8863957273346,-0.14121735656362,2.42205356074413,8.51524675380989,8.67944476162022,0.994023874434851,10.348905231508,-2.38865627769735,21.7410336862391,-28.605121656872,-116.771900584686,2.45658173740363,12.0160998732232,1.64109622698663,-1.08610339964984,24.3848548977925,5.20067251421893,-2.54879707398729,9.45308661258924,-2.34808112589749,-13.7682330002485,-11.6904332070529,-43.1780856674766,1100.85369055232,0.0943280680218208,0.0556889646805676
99.57,-68.0381864007249,25.8364017756798,-18.7831972013274,0.47343738842112,0.541567974124976,-2.84270427740674,-3.43768003752411,-83.0371606728625,139.92338953509,126.355936672571,-0.273654072148204,-0.181287287235152,0.703378929278084,0.687440141151512,7.89220513165721,3.72166818125722,-0.717046772800211,-15.8392342806346,-21.5032493403879,-22.803848680561,-8.39126092468557,-3.28441026331436,-1.99663951622857,-23.5227902594721,-31.0957711551319,240.217516949633,-22.3226100724162,-1.53878459599352,-3.50998572235524,-49.027848522616,-98.2034771955104,260.132322179862,12.9690799142854,0,0,-12.5878569706034,49.9736602158098,54.7297227495498,0.00626999112307313,3.33030620453341,4.65019525935475,4.60945448871935,-10.4525286540598,50.0845831527933,74.0874653200762,-0.178250979888912,2.07356020187005,8.02090529297316,8.16855545046261,0.92579336497146,10.7182910930856,-2.08985370177149,20.6604994367551,-32.947591288535,-116.048639756402,1.97661539497155,12.3219607777142,1.46463801285718,0.929732001269278,28.4920469106162,2.54871614384551,-2.49977301276162,9.75511966948328,-2.10070705271516,-13.8917536603878,-12.5221395537491,-48.2506714527558,1105.08868769143,0.105554646561998,0.051239027410432
99.575,-67.7244817125407,33.7708348880708,-10.2686769293398,0.484790701276785,0.78746940444515,-2.68963726223035,-3.28858806815931,-81.7720595221747,136.715852219809,130.698446946773,-0.298424157194213,-0.307868224423012,0.800597168646876,0.819713365425791,7.73220872179778,3.42991002210181,0.00764284832776296,-17.0708696796977,-22.0842094342855,-35.1521554763564,-8.87595593102441,-2.96441744359551,-2.04840306059485,-18.9448247195584,-32.5249329861202,229.21703757168,-26.0379063080908,-3.29809839201382,-3.971509754197,-58.621751252253,-104.577450956051,234.628187576494,14.1455241044282,0,0,-12.1301574235442,51.3242014874602,53.1609697465547,-0.0109146414653377,3.23303708868047,4.56331938587625,4.50817999987918,-10.0411133611152,47.2146820529805,69.28830607631,-0.215286369158763,1.72505022512562,7.52654025951419,7.65753297109423,0.857559601943171,11.0876945687905,-1.79103687747522,19.5799136621054,-37.2902679904202,-115.3253444395,1.49662616539328,12.6278362671513,1.28817138433576,2.94566352709426,32.5994347744728,-0.103366684797433,-2.45074661382859,10.0571671287929,-1.85332118352532,-14.0152802105972,-13.3538855602779,-53.3234991237717,1109.32388677594,0.116781760440429,0.0467888779454907
99.58,-67.4107770243564,41.7052680004618,-1.75415665735211,0.496144014132449,1.03337083476532,-2.53657024705395,-3.13291253560594,-80.5069583714869,133.508314904528,135.040957220975,-0.323194242240221,-0.434449161610873,0.897815408015668,0.953498216052794,7.57221231193836,3.1381518629464,0.732332469455736,-18.3025050787608,-22.6651695281832,-47.5004622721518,-9.36065093736325,-2.64442462387666,-2.10016660496112,-14.3668591796446,-33.9540948171085,218.216558193727,-29.7532025437655,-5.05741218803411,-4.43303378603876,-68.21565398189,-110.951424716591,209.124052973125,15.321968294571,0,0,-11.672457876485,52.6747427591106,51.5922167435596,-0.0280992740537486,3.13576797282752,4.47644351239776,4.40890229008974,-9.62969806817062,44.3447809531677,64.4891468325437,-0.252321758428614,1.3765402483812,7.03217522605523,7.14769624018719,0.789325838914883,11.4570980444953,-1.49222005317895,18.4993278874558,-41.6329446923054,-114.602049122597,1.01663693581502,12.9337117565885,1.11170475581434,4.96159505291924,36.7068226383295,-2.75544951344038,-2.40172021489556,10.3592145881025,-1.60593531433549,-14.1388067608066,-14.1856315668066,-58.3963267947875,1113.55908586046,0.128008874318861,0.0423387284805493
99.585,-66.9123926620266,49.5571050588574,7.54971865515092,0.506509368455959,1.28132913581641,-2.29795118161643,-2.8853040831088,-79.1913237855997,129.894118087332,137.492812384521,-0.332546182661946,-0.585083375750458,0.920881676594643,1.01371460239778,7.48234356863988,3.05905560831489,1.09492613696315,-19.7747288106227,-22.9840868796059,-59.3738603011579,-9.6657792550385,-2.09323150786112,-1.97649625408884,-10.8141139627194,-34.0978535427552,203.956149195518,-32.6334131579365,-6.47494191158368,-4.93645384501113,-70.7428909970749,-113.427436281989,180.829375300941,15.1797509760473,0,0,-11.1602344719836,53.284964580079,50.599425021523,-0.0431603261622424,3.07042332033549,4.38619804968496,4.30910428799079,-9.22098510892328,42.0181461423588,59.752012859918,-0.276684360584899,1.04527180843498,6.47426581317342,6.57684054225089,0.84491452991453,11.7531966867152,-1.40202490239526,16.3778165982098,-45.3061401417597,-113.480667945917,0.973185079666571,13.1346074707186,1.16116017727128,5.42472614008964,37.8632302768105,-5.3023903225092,-2.42566425218931,10.6194544293854,-1.41059578683314,-13.3610423117659,-14.8085435857448,-66.2086840206225,1111.66439801625,0.140257399783546,0.0374058812472038
99.59,-66.1626888933752,57.2974510470611,17.9285870169585,0.515531736576877,1.53211379378168,-1.94290863007222,-2.51518714264672,-77.8067885619547,125.72623964064,137.37263958011,-0.320922238106936,-0.768459889837099,0.843064131050708,0.972670841191112,7.48787591009814,3.26928458372905,0.964916112693879,-21.5744472973554,-22.9465215980991,-70.6024644460858,-9.72663501107945,-1.22742006964227,-1.61412788857233,-8.65581778887678,-32.4927915147394,185.258884081929,-34.3777840944286,-7.4276217303347,-5.49693161447277,-63.6559608292829,-110.600409459147,148.734878994083,13.2434314656537,0,0,-10.5737717509232,52.8880239766246,50.3901374880527,-0.0553338663156881,3.04850568765335,4.29135798200394,4.20839317263135,-8.8159027658893,40.4303826733306,55.0987332680109,-0.283807924555737,0.737423808250119,5.82983919818705,5.92333814367297,1.06897435897436,11.9495948084837,-1.59565685343462,12.8398500853919,-48.0688958453019,-111.817550482845,1.52365305476418,13.1926970560304,1.51799620132953,3.775268779384,35.0048538567057,-7.70656833894144,-2.5488898751101,10.8228428029456,-1.286045182389,-11.3569516501649,-15.1473996055847,-77.7491486402356,1101.42956631846,0.153896970989848,0.0318157511712272
99.595,-65.4130208725671,65.0374279552539,28.3069604870838,0.524553674487603,1.78288649367628,-1.58788300788867,-2.13937943083862,-76.4223193565828,121.55855992933,137.252472505854,-0.309298847812108,-0.951827660050285,0.765250296051572,0.930299407015479,7.49340798775984,3.47950353487393,0.834912287643766,-23.3740799687873,-22.9089581078036,-81.8305331816992,-9.78748786535824,-0.361649915585083,-1.2517768017305,-6.4976245282601,-30.8878060202934,166.562510503011,-36.1220718547364,-8.3802561228117,-6.05738265888342,-56.5693685849206,-107.773517436363,116.64191303704,11.3072042840561,0,0,-9.98733699394452,52.4911023003398,50.1808599339613,-0.0675068260027903,3.02658910006145,4.19652243654625,4.11215648143147,-8.41083973824456,38.8426949130315,50.445675556687,-0.29093114885635,0.429590487065837,5.18544331115296,5.27504605572415,1.29302350427351,12.1459835654743,-1.78927957159437,9.30205227210258,-50.8315198134014,-110.154512321579,2.07409478210406,13.2507838714783,1.87481521050966,2.12589006913424,32.1466137314903,-10.1106317178562,-2.67210962230978,11.0262214784143,-1.16150051684455,-9.35295654886619,-15.4862394678803,-89.2890629802083,1091.1952226443,0.167535891825599,0.0262258876473236
99.6,-64.6633171039157,72.7777739434576,38.6858288488914,0.53357604260852,2.03367115164154,-1.23284045634446,-1.75829345266625,-75.0377841329378,117.390681482637,137.132299701443,-0.297674903257098,-1.13520417413692,0.687432750507637,0.88567772651703,7.49894032921811,3.68973251028808,0.704902263374491,-25.17379845552,-22.8713928262968,-93.059137326627,-9.84834362139919,0.504161522633761,-0.889408436213985,-4.33932835441752,-29.2827439922776,147.865245389422,-37.8664427912284,-9.33293594156273,-6.61786042834506,-49.4824384171286,-104.946490613521,84.5474167301822,9.37088477366255,0,0,-9.40087427288416,52.0941616968854,49.971572400491,-0.0796803661562359,3.0046714673793,4.10168236886523,4.02110587772227,-8.00575739521058,37.2549314440033,45.7923959647799,-0.298054712827188,0.121742486880975,4.5410166961666,4.63313300600929,1.51708333333334,12.3423816872428,-1.98291152263373,5.76408575928467,-53.5942755169435,-108.491394858507,2.62456275720166,13.3088734567901,2.23165123456791,0.476432708428606,29.2882373113855,-12.5148097342885,-2.79533524523056,11.2296098519745,-1.0369499124004,-7.34886588726515,-15.8250954877202,-100.829527599821,1080.9603909465,0.181175463031901,0.0206357575713469
99.605,-63.9145267554649,78.9431665795959,46.8599833297699,0.538698732174747,2.2990185201387,-0.982272226974648,-1.47692341470772,-74.0506828615113,112.051466148783,133.925797680561,-0.28564440623386,-1.34472945927294,0.606457079043587,0.834808490629262,7.01346966391751,3.93370985616464,0.543534174025648,-25.7529203666763,-24.5831444173546,-100.203124246154,-9.99448806038054,1.19015235117765,-0.798244578467846,-2.79542534574828,-31.7832474480321,131.821585690228,-38.2005615234375,-9.51541328430176,-6.72521495819092,-48.125,-104.404998779297,78.4000015258789,9,0,0,-8.95136484809817,50.741004122506,50.015938720714,-0.0885112386500088,2.95829147787819,3.96702399069225,3.89605672014861,-7.7163508366975,34.9641676900846,42.9084734287011,-0.305384108384916,-0.147183895552183,4.08201434443368,4.18416210774472,1.74195443463248,12.5283324195373,-1.92308948590225,3.03296189578752,-53.9647472054333,-104.793546195231,3.12159758757861,13.5909538863549,2.33955531187664,-2.19573308400887,24.0429370339119,-14.4598536803079,-3.09840852920868,11.0530432287848,-1.01830380223359,-2.27868463836126,-16.1391986647985,-128.32672357938,1057.04680190847,0.196473188070855,0.0138830514399932
99.61,-63.1659086624462,84.7357609249113,54.5122455430294,0.542897752632525,2.56783195891868,-0.75644286654108,-1.21608130402101,-73.1576894752322,106.434404908886,129.98784638726,-0.273516873009024,-1.56046266811962,0.524728360069063,0.779354581163376,6.41163445049754,4.18569777072665,0.374726736115169,-26.0428740979235,-26.7094717798341,-106.379742791993,-10.1608490136836,1.83357780292338,-0.771333247786462,-1.39700266275398,-35.2566515202642,116.405712312252,-38.2005615234375,-9.51541328430176,-6.72521495819092,-48.125,-104.404998779297,78.4000015258789,9,0,0,-8.53427797148426,49.1612052404837,50.1204071936211,-0.0965506362637292,2.90611275844129,3.8229233091322,3.7678993833199,-7.45433487744488,32.506703280972,40.4436038223571,-0.312762705009065,-0.406904237397506,3.66691846097593,3.78755944938906,1.96703101851313,12.7118187650922,-1.80321174013973,0.492846396007355,-53.768424366568,-100.613379903084,3.60600153984345,13.9261222775684,2.3884850040246,-5.11037215331666,18.2317810034992,-16.2962273115402,-3.44411193750857,10.78644146412,-1.0247490986612,3.51826056420811,-16.4474555480113,-159.606253348539,1029.89082276635,0.212164690488057,0.00685449178023433
99.615,-62.4173262655029,90.528079064126,62.1641428763435,0.547096572869988,2.83663257996841,-0.530624274244095,-0.951619569426886,-72.2647386692214,100.81761150521,126.050082865812,-0.261389918056801,-1.77618559024072,0.443003538134353,0.719455011936983,5.80982793416004,4.43767366984357,0.205927347386357,-26.3328140034158,-28.8356977534444,-112.556066820449,-10.3272020344598,2.47697257445494,-0.744423200307953,0.0013533397767147,-38.7298899714743,100.990574003577,-38.2005615234375,-9.51541328430176,-6.72521495819092,-48.125,-104.404998779297,78.4000015258789,9,0,0,-8.11721098266725,47.5814816874182,50.2248706851972,-0.104589650537872,2.85393652702268,3.67882949867083,3.6464607041726,-7.19233141180085,30.049356050212,37.978851747465,-0.320140949802362,-0.666612195095306,3.25184237037931,3.40017812486764,2.19209687015155,12.8952963615366,-1.68333971046275,-2.04714798439937,-53.5721108888909,-96.4334129322367,4.09038239445656,14.2612746870735,2.43741236307642,-8.02487224498429,12.4209020642572,-18.1325133796582,-3.78979886176267,10.5198524117271,-1.03119408776017,9.31492935321641,-16.755697732727,-190.884291627627,1002.73613849259,0.227855444693242,-0.000173732739353841
99.62,-61.6687081724842,96.3206734094415,69.816405089603,0.551295593327767,3.10544601874839,-0.304794913810528,-0.684119929330877,-71.3717452829423,95.2005502653124,122.112131572511,-0.249262384831965,-1.9919187990874,0.36127481915983,0.65462634239178,5.20799272074008,4.68966158440558,0.0371199094758789,-26.622767734663,-30.9620251159239,-118.732685366288,-10.4935629877629,3.12039802620068,-0.717511869626568,1.39977602277102,-42.2032940437064,85.574700625601,-38.2005615234375,-9.51541328430176,-6.72521495819092,-48.125,-104.404998779297,78.4000015258789,9,0,0,-7.70012410605333,46.0016828053959,50.3293391581043,-0.112629048151593,2.80175780758579,3.53472881711077,3.53194798856392,-6.93031545254823,27.5918916410994,35.5139821411211,-0.327519546426511,-0.926332536940629,2.83674648692156,3.02247797127147,2.41717345403219,13.0787827070914,-1.56346196470023,-4.58726348417953,-53.3757880500256,-92.2532466400895,4.5747863467214,14.596443078287,2.48634205522439,-10.9395113142921,6.60974603384458,-19.9688870108905,-4.13550227006256,10.2532506470623,-1.03763938418778,15.1118745557858,-17.0639546159398,-222.163821396786,975.580159350466,0.243546947110444,-0.0072022923991127
99.625,-60.684058152101,100.446273521987,76.0819804651058,0.549608764674708,3.43167765889177,0.0210535645800284,-0.314190676332892,-70.5760618232117,89.3678656398843,116.951442027332,-0.232387193967664,-2.21422980744812,0.250857612480142,0.555862686081436,5.36692020353882,4.96279542037701,0.0651741644501086,-27.1267337419529,-27.9339004321773,-124.404351041609,-10.8162213484446,3.20559523534174,-0.66454585405341,3.38943599935467,-44.7225107687388,70.829669606386,-37.6135361254663,-9.37682161566094,-6.72228401932838,-41.6512807220617,-83.3868271367239,30.5568904024832,7.7762345322077,0,0,-7.27419099813253,44.933535026073,49.8671605833268,-0.124781019085675,2.67233584597023,3.42073367675688,3.45452096525068,-6.77693454885147,22.5157232471308,32.9897740943717,-0.332886362481305,-1.21174745856757,2.4795840487227,2.71264004802575,2.67405423846422,13.0303505261941,-1.48279761767084,-6.71646856756144,-53.2713463743224,-88.2158587792527,5.27642858794956,14.6427976176709,2.2395127789985,-12.9315272405901,0.260941138509462,-23.252759895318,-4.23199987411499,10.1788330078125,-1.03943848609924,16.7299995422363,-17.1499996185303,-230.895004272461,968,0.247926980257034,-0.00916420295834541
99.63,-59.6079405420629,103.926609452584,81.8109811781193,0.545642552048408,3.78016585671334,0.385655616100081,0.0962808393495637,-69.818008622564,83.4512958531464,111.316910422482,-0.213672374670984,-2.43910274935146,0.129323595306791,0.440574754528204,5.82046062218113,5.24413600092518,0.169464207239517,-27.7136085161913,-22.909533742524,-129.88085084815,-11.1994266219498,3.0746263443969,-0.601486758413306,5.60818195706211,-46.8723887682447,56.3434443116645,-36.7991485719669,-9.18455168943647,-6.71821789180142,-32.670210357775,-54.2280591478344,-35.8164460055247,6.07848964958945,0,0,-6.84480404545561,44.0634515060225,49.1855195493498,-0.138526372052457,2.51299317510843,3.31838925037272,3.39558486202852,-6.66561200556485,16.4251360335722,30.4424204871155,-0.337474479281159,-1.50713138760096,2.14483248742451,2.43507301575397,2.94326806985082,12.8921055857523,-1.41731317219843,-8.68669102393323,-53.2024784161209,-84.2334942397777,6.06224193361858,14.5773131721985,1.87813565398404,-14.5663926831114,-6.29648618588906,-27.09738851839,-4.23199987411499,10.1788330078125,-1.03943848609924,16.7299995422363,-17.1499996185303,-230.895004272461,968,0.247926980257034,-0.00916420295834541
99.635,-58.5318742441367,107.40677943163,87.5397087173433,0.541676528541535,4.12863743770306,0.750240282437437,0.507903899829455,-69.0599915678823,77.5350081839837,105.682647486886,-0.194958447746004,-2.66396496872276,0.00779537319433929,0.319884514203169,6.27397941482598,5.52546316641611,0.273749277205981,-28.3004553067002,-17.8854066278606,-135.357089520807,-11.5826136232219,2.9436636983925,-0.538430669596377,7.82682211913931,-49.0221642559255,41.8579097581834,-35.9847998506033,-8.99229093114668,-6.71415195815809,-23.6895682344936,-25.0706815255285,-102.186617558659,4.38082571990286,0,0,-6.41543756707549,43.1934094738378,48.5039110178062,-0.152271069604736,2.35365810212336,3.2160497040394,3.34315746781982,-6.55429477042927,10.3348392351964,27.8951883443648,-0.342062377307561,-1.80250123195339,1.81009688795929,2.16699906272267,3.21246906441539,12.7538672371921,-1.35183184919624,-10.6568195349275,-53.1336137417244,-80.2513195898956,6.84801780964495,14.5118318491963,1.51677576037932,-16.2011801709577,-12.8536008349431,-30.9418338194792,-4.23199987411499,10.1788330078125,-1.03943848609924,16.7299995422363,-17.1499996185303,-230.895004272461,968,0.247926980257034,-0.00916420295834541
99.64,-57.4557566340987,110.887115362226,93.2687094303567,0.537710315915235,4.47712563552464,1.11484233395749,0.920101885918888,-68.3019383672346,71.6184383972457,100.048115882036,-0.176243628449324,-2.88883791062609,-0.113738643979012,0.193934388132237,6.72751983346828,5.80680374696428,0.378039319995389,-28.8873300809386,-12.8610399382073,-140.833589327348,-11.9658188967272,2.81269480744766,-0.475371573956273,10.0455680768468,-51.1720422554315,27.3716844634619,-35.1704122971038,-8.80002100492221,-6.71008583063113,-14.7084978702069,4.0880864633609,-168.559953966667,2.68308083728461,0,0,-5.98605061439857,42.3233259537874,47.8222699838292,-0.166016422571519,2.19431543126156,3.11370527765524,3.29669210259396,-6.44297222714266,4.24425202163779,25.3478347371086,-0.346650494107415,-2.09788516098678,1.4753453266611,1.90768021704622,3.48168289580199,12.6156222967503,-1.28634740372382,-12.6270419912993,-53.064745783523,-76.2689550504207,7.63383115531397,14.4463474037239,1.15539863536486,-17.836045613479,-19.4110281593416,-34.7864624425512,-4.23199987411499,10.1788330078125,-1.03943848609924,16.7299995422363,-17.1499996185303,-230.895004272461,968,0.247926980257034,-0.00916420295834541
99.645,-56.4102184211369,111.36406289548,97.4783632137568,0.529859595279714,4.80427918841915,1.39730118427273,1.25011679853495,-67.7000314240763,66.1600898104463,94.2287908675809,-0.147609470073214,-3.04598900362843,-0.272001754315584,0.0262988884119056,6.23508345788317,5.78987837853257,0.504364567764619,-30.7263659244667,-13.298594745681,-147.437975882761,-12.3216170178781,2.71281303836894,-0.460009355497483,11.6867666192131,-49.9062976921557,12.1393586005009,-31.0869246901655,-5.11101806480549,-6.55605261280872,21.8357796197386,20.1040037168404,-192.142080998078,10.4364567764607,0.0267801998256937,-0.0345856796565753,-5.57888786909041,40.9473045136383,46.8023287313878,-0.182238836200754,1.99145070348193,3.07629859411981,3.32039546067372,-6.42318487345104,0.665187268764776,22.1426785074831,-0.341685947751967,-2.36383140084857,1.1747272021658,1.69023701279506,3.46273819438896,12.4241587468197,-1.11128957546577,-13.465651365597,-53.9249922072734,-70.3186873738392,8.12587867517027,14.1826352839165,0.819822245547575,-19.5865592685978,-25.0062910861208,-38.6264819737649,-4.31453408238432,10.1469837593001,-1.10450699063917,17.3005327728656,-18.0258182245611,-234.673536409139,956.846718159933,0.251172766394946,-0.00963191711815336
99.65,-55.3851847493317,109.818979442596,100.665433438688,0.519392954329628,5.11709502645355,1.62447862766896,1.52423207811867,-67.2032038883825,61.0098088959116,88.2845870439604,-0.112294707108369,-3.1575580484433,-0.455005816636645,-0.170607630416142,5.10571700760991,5.57214035528073,0.645535374048769,-33.4085817040443,-17.4134918612665,-154.802253348055,-12.658991317642,2.63385309587103,-0.476758434209161,12.9392550449189,-46.3408412538845,-3.59650423849675,-24.8021485059891,0.932498732660853,-6.30103987363223,76.9402490831781,27.2726091863787,-186.916369316276,24.5535374048763,0.0715926430351764,-0.0924593630330771,-5.18665536387101,39.2305442087934,45.5545412183022,-0.20013025647512,1.75926801663422,3.0826090786586,3.3921196342697,-6.4650231594665,-1.22324894676587,18.4943926453847,-0.330289554572074,-2.60997956562937,0.89706585750122,1.5021514130498,3.24978562219761,12.1968498214469,-0.86244612032083,-13.5424549011356,-55.4108452217311,-63.0430293726281,8.42018391538979,13.7854428458967,0.501589750025668,-21.4150742108429,-29.9542111640862,-42.4637047685571,-4.45264207056149,10.0936890621164,-1.21338887663703,18.2552302046662,-19.4913626118331,-240.996314353,938.183459024062,0.25660407788336,-0.0104145630416746
99.655,-54.3601999538222,108.273969663347,103.852351695746,0.508926812456452,5.42989594860783,1.85164523864848,1.79716377098473,-66.7064000427295,55.8597735602876,82.3406666555784,-0.0769816280441046,-3.26912177335331,-0.63800115284373,-0.371500035906129,3.97640440849297,5.35441271434928,0.78669944893838,-36.0906695885342,-21.5281927677581,-162.166179665273,-12.9963495305137,2.5548969183904,-0.493506714280809,14.1916837486896,-42.7755548259338,-19.3316167502563,-18.5176719964352,6.97572735938538,-6.04603929413241,132.042091020895,34.4408728379945,-181.690906810122,38.6699448938379,0.116402949469759,-0.150330286840469,-4.79444156132685,37.5138657635854,44.306813203,-0.218020823639611,1.52709640086636,3.08891926229692,3.46704232036471,-6.50685945052269,-3.11159511670164,14.8462807431309,-0.318893704802116,-2.85611599341966,0.619417752458261,1.31884655552609,3.03684320414378,11.9695517347602,-0.613614530684904,-13.61925477448,-56.8966273868174,-55.7677182938852,8.71447512236306,13.3882693470547,0.183372428664332,-23.2435019646967,-34.9018953122366,-46.3007445944958,-4.59074347338732,10.0403969061637,-1.32226557086082,19.2098821139877,-20.9568371181024,-247.318790810214,919.521089801367,0.262035130392589,-0.0111971716465843
99.66,-53.3351662820171,106.728886210464,107.039421920677,0.498460171506366,5.74271178664223,2.07882268204472,2.06840750448749,-66.2095725070357,50.7094926457529,76.3964628319579,-0.04166686507926,-3.38069081816818,-0.821005215164791,-0.575773141634368,2.84703795821972,5.13667469109744,0.92787025522253,-38.7728853681118,-25.6430898833436,-169.530457130567,-13.3337238302776,2.47593697589248,-0.510255792992487,15.4441721743954,-39.2100983876627,-35.0674795892539,-12.2328958122588,13.0192441568517,-5.79102655495592,187.146560484334,41.6094783075328,-176.46519512832,52.7870255222535,0.161215392679242,-0.208203970216971,-4.40220905610744,35.7971054587405,43.0590256899143,-0.235912243913976,1.29491371401865,3.0952297468357,3.54390199080469,-6.54869773653815,-5.00003133223229,11.1979948810326,-0.307497311622223,-3.10226415820046,0.34175640779368,1.13840150895242,2.82389063195243,11.7422428093875,-0.36477107553996,-13.6960583100186,-58.3824804012751,-48.4920602926741,9.00878036258258,12.9910769090349,-0.134860066857575,-25.0720169069418,-39.8498153902019,-50.137967389288,-4.72885146156448,9.98710220898005,-1.43114745685869,20.1645795457883,-22.4223815053744,-253.641568754075,900.857830665495,0.267466441881003,-0.0119798175701055
99.665,-52.2416400907194,105.676745361313,109.065068554561,0.490670212826697,6.00984041543651,2.33397920106715,2.36543873332401,-65.77580897354,45.4910749494884,70.4590647839878,-0.00689812917198064,-3.4135562956345,-1.04201303223575,-0.82073615682339,2.09602045786654,5.10077569410618,1.13174622503652,-40.8066590295442,-26.1608741799113,-174.810249078434,-13.3986422308816,2.6745603994155,-0.401457622990732,14.4601651903568,-34.4316492576356,-51.0280919822242,-7.73889941252184,14.6785376741357,-3.78931368616692,201.633497341749,38.1361514831019,-144.845610633921,69.7571846078909,0.193693453060437,-0.234154942491275,-4.06897822620226,32.1931046228321,41.312509467904,-0.249040656578262,1.04430324617209,3.10077874641911,3.62054369491452,-6.70141976478677,-10.7727694045725,6.88741699664998,-0.294688303565535,-3.30061660455739,0.107927828426557,1.00254734283727,2.58252557233316,11.2746639064783,-0.183689722357549,-14.2219771728215,-59.3563454264461,-39.9571374020554,9.31883341451535,12.6136909400877,-0.373397467121279,-26.5761667658891,-45.312568779203,-54.4759445677208,-5.24478577359734,10.1013774436332,-1.6783951936962,19.5799634717931,-24.5346458760692,-261.801656348614,869.815757428154,0.271814483617552,-0.0133086387660033
99.67,-51.05270104235,105.310276184602,109.47515035518,0.486603219987697,6.21343854123079,2.62808986584036,2.69877798666449,-65.4297318855728,40.1772689645603,64.5304580553634,0.0271149274430013,-3.33693153823853,-1.31591763602514,-1.12055807667656,1.87128397467121,5.31785070628349,1.42288212372137,-41.9385389042233,-21.6743419747073,-177.190664970865,-13.0845219191427,3.25938602045788,-0.117983195323914,10.3645887078831,-27.9651154889262,-67.3032003752413,-5.73575935868507,10.2386009807028,0.642671701923209,159.614159582373,19.8571588381987,-76.5027351736152,90.6985387238188,0.209015375833017,-0.215697357503818,-3.81779371439046,25.9631259396781,38.8719527106814,-0.25554417443777,0.76802710370355,3.10526898557595,3.69517776963887,-7.00842289463346,-21.9500844088404,1.65495364570256,-0.279912576795071,-3.43249730541337,-0.0649463905283752,0.926119921839457,2.30160496833902,10.4727632732587,-0.0968597174866207,-15.3727742598907,-59.6180335311769,-29.6693267305298,9.65083049196299,12.2638170969313,-0.501088650754986,-27.6292249222757,-51.4921914933281,-59.5110759322401,-6.28641847920778,10.4487923605641,-2.11816847144948,16.8537568960548,-27.5468809174725,-272.518776455752,821.548490014613,0.27465595452163,-0.0153974614806539
99.675,-49.8638186857146,104.943824482103,109.885212602023,0.48253642107359,6.41702695893211,2.92218650664519,3.0290461094656,-65.0836712994694,34.8637163558473,58.6021340182672,0.0611263622261782,-3.2603104345121,-1.58980917932418,-1.4215917340194,1.64655820750122,5.53491536775451,1.7140041402825,-43.0703648078993,-17.1880236991334,-179.570967358818,-12.7704165854847,3.84418375547981,0.165477715538228,6.2692075132447,-21.4988900615179,-83.577532728377,-3.73271481982322,5.79887599510373,5.0744457613185,117.5968254153,1.57903778363714,-8.1631184809741,111.638894301023,0.224336568016107,-0.197240652622455,-3.5666211797154,19.7334443182581,36.4315123256101,-0.262047382192478,0.491764134806558,3.10975901062641,3.7673077517959,-7.31541138576521,-33.1268664493946,-3.57726020765994,-0.265137554570038,-3.56437171785142,-0.237812366386847,0.845774153346359,2.02069775937653,9.67090087676573,-0.0100338528982054,-16.5235164739346,-59.8797091579321,-19.3820066088169,9.98281173891867,11.913959936678,-0.628773745737938,-28.6822328660857,-57.671519546824,-64.5459672084814,-7.3280015170371,10.7961907118399,-2.55792077965871,14.1276803130007,-30.5589723276035,-283.235385542478,773.283524111057,0.277497289936919,-0.0174861845947553
99.68,-48.6748796373452,104.577355305393,110.295294402642,0.47846942823459,6.6206250847264,3.2162971714184,3.3559093061618,-64.7375942115022,29.5499103709192,52.6735272896428,0.0951394188411602,-3.18368567711613,-1.86371378311357,-1.72313659832035,1.4218217243059,5.75199037993182,2.00514003896734,-44.2022446825783,-12.7014914939294,-181.951383251249,-12.4562962737457,4.42900937652219,0.448952143205046,2.17363103077099,-15.0323562928085,-99.8526411213942,-1.72957476598646,1.35893930167076,9.50643114940864,75.5774876559239,-16.6999548612661,60.1797569793315,132.580248416951,0.239658490788687,-0.178783067634998,-3.31543666790359,13.5034656351041,33.9909555683874,-0.268550900051986,0.21548799233802,3.11424924978325,3.83535682304527,-7.6224145156119,-44.3041814536626,-8.80972355860736,-0.250361827799574,-3.69625241870741,-0.410686585341779,0.759045196401845,1.73977715538239,8.86900024354606,0.0767961519727234,-17.6743135610038,-60.1413972626629,-9.09419593729138,10.3148088163663,11.5640860935217,-0.756464929371644,-29.7352910224724,-63.851142260949,-69.5810985730007,-8.36963422264753,11.1436056287708,-2.99769405741199,11.4014737372624,-33.5712073690068,-293.952505649617,725.016256697516,0.280338760840997,-0.0195750073094059
99.685,-47.5362634008149,102.898556894678,109.713202115666,0.4858773485973,6.78053430830696,3.58388698217147,3.75252572150258,-64.3982465885835,29.4000205368391,47.7236193267527,0.127029752511913,-3.02242707829901,-2.18457847963424,-2.07144580892495,1.10977512075382,6.17285137382217,2.04293530762529,-45.9722058479944,-8.80059514208428,-181.894696607553,-10.9637770211418,5.31789373663792,0.206235648111466,-2.00137152487564,-2.18465729963079,-108.285355379398,-0.732876002788544,-0.850231945514679,11.7116460800171,54.6700019836426,-25.7950000762939,94.1849975585938,143,0.247282192111015,-0.169599160552025,-3.24819832180409,5.5152079629562,30.0084773232243,-0.271984810810507,-0.0589391434330797,3.02602777117476,3.80505651835593,-8.2371125214879,-59.3432031795034,-16.4393814184023,-0.230080257773672,-3.77223208768849,-0.63238682747312,0.614685844451368,1.33303349433845,8.16966268113076,0.221502890173417,-17.6392351915883,-59.593545719288,3.8009148061145,11.1140454509463,11.3747050439465,-0.736572966980757,-29.9846023604305,-71.0474960139753,-78.4395771441196,-9.72678389297414,12.1043831009472,-3.38734830633102,10.6484556363497,-35.6637221434609,-297.056111599678,678.891836249901,0.282270076439305,-0.0202667863007261
99.69,-46.4473795034367,99.919850135896,108.148391653258,0.504650884675668,6.89718861679862,4.02428644346657,4.217979372035,-64.0655317124528,34.3645303937486,43.742558337332,0.15682073884123,-2.77733064787324,-2.55198355507932,-2.46545797988319,0.711225750257347,6.79558476522291,1.82982210256815,-48.3742995333427,-5.47935038794698,-179.424264552778,-8.3040135138702,6.50800644020377,-0.557650645340112,-6.25543502168731,16.9842553245567,-108.951654481308,-0.732876002788544,-0.850231945514679,11.7116460800171,54.6700019836426,-25.7950000762939,94.1849975585938,143,0.247282192111015,-0.169599160552025,-3.36313641845911,-4.21523170499887,24.4984807404659,-0.272378866198107,-0.331561044034096,2.84597495274472,3.67579552249054,-9.15661412734224,-78.2083400022824,-26.4439779985546,-0.204343699522589,-3.79285381362235,-0.902466079863378,0.410803224447386,0.801634333676475,7.57183862538603,0.423545279383442,-16.4296460527358,-58.2438629231108,19.2795554812606,12.3761184575184,11.3442603003669,-0.570510729273901,-29.4378954050169,-79.2515172636498,-91.0855924065293,-11.3965547360877,13.6727345140365,-3.72740095961257,11.8496391979945,-36.8455318618369,-292.619482486797,634.885343257582,0.28330014495142,-0.0195749795409111
99.695,-45.3585475269003,96.9412854096699,106.583655805119,0.523423525582567,7.0138373629067,4.46466490535954,4.67925881403924,-63.7328327010406,39.328803529799,39.7616871753475,0.186610304658134,-2.53224590428851,-2.91937111168616,-2.85804197828762,0.31269538364083,7.41828846306122,1.61671905930793,-50.7762786805598,-2.158263999476,-176.953950294687,-5.64437683110302,7.69806239607253,-1.32150051468843,-10.5092956735869,36.1522539246825,-109.617921812329,-0.732876002788544,-0.850231945514679,11.7116460800171,54.6700019836426,-25.7950000762939,94.1849975585938,143,0.247282192111015,-0.169599160552025,-3.47806903456403,-13.9452074000535,18.9887468888053,-0.272772902796112,-0.604169945307409,2.66593071970561,3.53803070552839,-10.0760718889468,-97.072577285827,-36.4480975332853,-0.178608368458148,-3.81347455625819,-1.17253245416607,0.193609472199985,0.270260511521114,6.97404307546125,0.625578034682098,-15.220114590268,-56.8942444833515,34.7574580941963,13.6381312851374,11.3138170084725,-0.404456409850361,-28.8912145180258,-87.4551473240601,-103.731004673742,-13.0662459601453,15.2410111440145,-4.06743739829115,13.0507654840547,-38.0272852284239,-288.183064924037,590.880948610341,0.284330164347166,-0.0188832057682581
99.7,-44.269663629522,93.9625786508879,105.018845342711,0.542197061660935,7.13049167139836,4.90506436665463,5.13629537150988,-63.40011782491,44.2933133867085,35.7806261859268,0.216401290987451,-2.28714947386274,-3.28677618713124,-3.24874057654299,-0.0858539868556453,8.04102185446197,1.40360585425079,-53.1783723659081,1.1629807546613,-174.483518239912,-2.98461332383139,8.88817509963838,-2.08538680814001,-14.7633591703985,55.32116654887,-110.284220914239,-0.732876002788544,-0.850231945514679,11.7116460800171,54.6700019836426,-25.7950000762939,94.1849975585938,143,0.247282192111015,-0.169599160552025,-3.59300713121905,-23.6756470680086,13.4787503060469,-0.273166958183712,-0.876791845908425,2.48587790127557,3.39051239519231,-10.9955734948012,-115.937714108606,-46.4526941134375,-0.152871810207065,-3.83409628219205,-1.44261170655633,-0.0388726310643578,-0.261138649140859,6.37621901971653,0.827620423892122,-14.0105254514155,-55.5445616871743,50.2360987693424,14.9002042917096,11.2833722648929,-0.238394172143506,-28.3445075626123,-95.6591685737347,-116.377019936152,-14.7360168032589,16.8093625571038,-4.4074900515727,14.2519490456995,-39.2090949467998,-283.746435811156,546.874455618022,0.285360232859281,-0.0181913990084431
99.705,-43.428911128145,89.1462428980317,102.293934326826,0.564504987733547,7.2034766758216,5.26675478894681,5.51032172151466,-62.9112061869799,48.1217352206845,36.0305914341749,0.247366903092768,-1.9575776681844,-3.35918616758748,-3.3421384827634,0.543388011967406,8.65111536675953,1.10583488084184,-51.9777174695243,4.02786295442939,-168.051998514901,-1.76409148354482,11.0906681367997,-1.98722325389458,-15.2375369841798,49.531838395533,-95.7560747669503,-1.3607072580733,2.37013924993589,9.82181643661818,58.9460146486433,-16.9651997326747,99.1428181177862,164.88511038894,0.245646567770785,-0.173428622467881,-4.10510577596674,-38.7302991423729,4.40889721133585,-0.273282968777228,-1.06393963015701,2.29890845017291,3.22528909894857,-12.3905228011881,-133.557170558391,-61.3530084145056,-0.12775296180947,-3.77076924376948,-1.71143752223048,-0.287036632764004,-0.421008201795107,6.01178530898587,0.833165299700826,-16.7238937543066,-53.978809163543,71.5168738927036,16.4949990972867,11.8740244248427,0.335545109873078,-25.5791160542227,-88.6226352732594,-134.24431179176,-14.9209718704224,16.9830837249756,-4.44515657424927,14.3850002288818,-39.3400001525879,-283.255004882812,542,0.285474330186844,-0.0181147698312998
99.71,-42.6191055608285,84.101244709704,99.424652995983,0.587252087998548,7.27101882234692,5.61862409448127,5.87026366010975,-62.40286224599,51.808465221503,36.807554538379,0.27847734816049,-1.61749946144231,-3.39484858413261,-3.39617482780688,1.30062003507687,9.25960538532963,0.797533271432995,-50.3283672957321,6.83576476851693,-161.127398797401,-0.722897451769304,13.4191566078613,-1.78168884762202,-15.2408757497138,40.6340282474434,-79.336025870776,-2.06671022094404,5.99148110954198,7.69668278592813,63.7544366336147,-7.03599478838602,104.717940373501,189.495151139998,0.243807290702901,-0.177734893358407,-4.66664967707629,-54.4474086448601,-5.1039333700239,-0.273364341029868,-1.24043197322202,2.1110863897019,3.04760411167434,-13.8446265882026,-151.020626936684,-76.8624148989562,-0.102712252083305,-3.69698870283416,-1.98009439353713,-0.553279116475039,-0.53459300526153,5.67643969875167,0.814234499123076,-19.9257699014052,-52.3862180038286,93.519338761713,18.1311611472196,12.5420112452285,0.960261528938383,-22.5375006527556,-79.688098704296,-152.761105443282,-14.9209718704224,16.9830837249756,-4.44515657424927,14.3850002288818,-39.3400001525879,-283.255004882812,542,0.285474330186844,-0.0181147698312998
99.715,-41.809261378016,79.0560059511513,96.5552348437518,0.61000027295671,7.33856418961263,5.97051017886773,6.2260720827139,-61.8944940646711,55.4953710236663,37.5845546919896,0.309589276726617,-1.27740503810555,-3.43051270123644,-3.44738573007917,2.05788816671826,9.86812441968432,0.48921696069329,-48.6789384728447,9.64380047711661,-154.202468881069,0.318346229237614,15.7477561126586,-1.57614464046221,-15.2442146744565,31.7357938081828,-62.9151939862418,-2.7727468494942,9.61299565246596,5.57144779845631,68.5630879076988,2.89368362902955,110.293328478353,214.106365418343,0.241967925929278,-0.182041369593022,-5.2282203553496,-70.1652676161138,-14.6172175697414,-0.273445717162735,-1.41693273230643,1.92325537295505,2.85773064799531,-15.2987997140081,-168.484916058116,-92.372560947876,-0.0776703482934451,-3.62320464368126,-2.24876407571933,-0.838699185955805,-0.648183225007743,5.3410780975962,0.795302795832027,-23.127798729642,-50.793550901567,115.52285281602,19.7674012173733,13.2100299184979,1.58500773754253,-19.4957402121679,-70.7531360928658,-171.278782066223,-14.9209718704224,16.9830837249756,-4.44515657424927,14.3850002288818,-39.3400001525879,-283.255004882812,542,0.285474330186844,-0.0181147698312998
99.72,-40.9892425690932,72.6764754522865,93.1905856064269,0.627461251565763,7.39697348275902,6.31354458760698,6.56906460401957,-61.361979874217,56.2101304844079,38.4419473048246,0.344355941116195,-0.928581041300327,-3.38664216612359,-3.41611462808885,2.79429225224777,10.3645106059284,0.228472895960902,-46.5530745961301,11.3975520789793,-146.34716035219,1.10988215635174,17.8585373670362,-1.44508249055383,-13.5713688814868,21.4569406899053,-48.3500486723749,-3.38437877245617,12.4678231691818,3.72106999619472,70.1696352534294,10.676176754518,109.677959297074,258.056564951179,0.240800632008513,-0.183269129704639,-6.11593429988899,-86.8617255691608,-25.0413026984222,-0.273762085700706,-1.57877153079626,1.66568544124459,2.58563910730467,-17.2957978763572,-188.390997027814,-108.758352836713,-0.0546544186759346,-3.53375045413646,-2.50823129269814,-1.13456809434105,-0.679858587622062,5.07100235687296,0.631150004364554,-27.3909753426657,-47.4779470187766,137.491935072915,20.7872882243643,14.0361728872317,2.01933384045589,-16.0829417912881,-57.7227629836235,-188.491079245831,-14.9209718704224,16.9830837249756,-4.44515657424927,14.3850002288818,-39.3400001525879,-283.255004882812,542,0.285474330186844,-0.0181147698312998
99.725,-40.1261035111953,60.6673621934645,87.7362319640898,0.622625325210526,7.41686167135769,6.61932829438981,6.87109711561816,-60.7274861711856,44.3886595345202,39.6386458050413,0.394546802655197,-0.542849218310936,-3.00728636230901,-3.04637861931676,3.44287575912509,10.3880479106134,0.168322006210177,-42.4170955424172,8.70480693393903,-134.565593164837,0.848356548739909,19.0510941377461,-1.6281504158821,-4.8280189381186,5.35212919894492,-41.608499676159,-3.59796716787202,12.089502230868,3.02956968233363,58.2702211047323,9.40385460863983,82.9500415007961,383.588856604856,0.24246781875551,-0.171511279476135,-8.37952989749808,-107.690033832562,-39.3097076660958,-0.275069722618842,-1.67880696596163,1.1138951421803,2.00683199289416,-21.5829097529758,-218.601422733214,-128.841665021685,-0.0401782497551261,-3.37817795043564,-2.72894739673571,-1.4113689315978,-0.366027858487873,5.07623286902519,-0.145581050242564,-36.1310965748288,-36.8942316885103,159.321251530489,19.2076735543889,15.5294841066953,1.65058273372322,-11.1042691130481,-27.4148509014974,-200.201614786672,-14.9209718704224,16.9830837249756,-4.44515657424927,14.3850002288818,-39.3400001525879,-283.255004882812,542,0.285474330186844,-0.0181147698312998
99.73,-39.2630056100329,48.65882156068,82.282138399649,0.617789629444949,7.43674891163533,6.92509742060298,7.16972307143818,-60.0930227224791,32.5677522633923,40.8352872435327,0.444735270962198,-0.1571357880272,-2.62794864717476,-2.67372970056564,4.09142833983863,10.411584092978,0.108173984611738,-38.2813137030402,6.01219018605424,-122.784587753529,0.586843411355414,20.2435940442194,-1.81120961205125,3.91491409937783,-10.7519143723373,-34.867272134692,-3.81154537883262,11.7111993318895,2.33810234102231,46.3713743513313,8.13159313042069,56.2233981617854,509.115162549413,0.244134926006667,-0.159753989892787,-10.6430175609284,-128.517348947563,-53.5774322787738,-0.276377297185417,-1.77883763117492,0.562131153925627,1.41582837754974,-25.8698172088488,-248.81040792623,-148.924019581624,-0.0257027710960438,-3.22261286484009,-2.94965297645018,-1.70740800335444,-0.0522120936264825,5.08146313177287,-0.922275068274505,-44.8708010550736,-26.3110210175675,181.149527108966,17.6281342045865,17.0227241211607,1.28184921001109,-6.12583383098777,2.89161601983904,-211.911591938444,-14.9209718704224,16.9830837249756,-4.44515657424927,14.3850002288818,-39.3400001525879,-283.255004882812,542,0.285474330186844,-0.0181147698312998
99.735,-38.3998665521349,36.649708301858,76.8277847573118,0.612953703089712,7.456637100234,7.2308811273858,7.4653427845577,-59.4585290194476,20.7462813135046,42.0319857437494,0.494926132501199,0.228596034962191,-2.24859284336019,-2.29825304402221,4.74001184671595,10.4351213976631,0.0480230948610132,-34.1453346493272,3.31944504101394,-111.003020566176,0.325317803743587,21.4361508149294,-1.99427753737952,12.6582640427461,-26.8567258632977,-28.125723138476,-4.02513377424847,11.3328783935757,1.64660202716122,34.4719602026342,6.85927098454248,29.4954803655079,634.64745420309,0.245802112753664,-0.147996139664283,-12.9066131585375,-149.345657210965,-67.8458372464475,-0.277684934103553,-1.87887306634029,0.0103408548613443,0.813133469249108,-30.1569290854675,-279.02083363163,-169.007331766595,-0.0112266021752353,-3.06704036113927,-3.17036908048775,-2.02180765233285,0.261618635507707,5.08669364392511,-1.69900612288162,-53.6109222872368,-15.7273056873012,202.97884356654,16.0485195346111,18.5160353406242,0.913098103278424,-1.14716115274781,33.1995281019652,-223.622127479285,-14.9209718704224,16.9830837249756,-4.44515657424927,14.3850002288818,-39.3400001525879,-283.255004882812,542,0.285474330186844,-0.0181147698312998
99.74,-37.8542517089844,29.0584049224854,70.7356186645339,0.598629500524596,7.44724280715122,7.42417573928833,7.64586697094042,-59.0574474334717,13.2735919952393,41.6541433530241,0.532247764177957,0.610808638776114,-2.00879120826721,-2.05970626318041,5.14999999999998,10.45,0.00999999999999091,-31.5308641975309,1.61728395061726,-103.555555555556,0.160000000000025,22.19,-2.11000000000001,18.1851851851852,-37.037037037037,-23.8641975308642,-4.16014909744263,11.0937309265137,1.20948493480682,26.9500007629395,6.05499982833862,12.6000003814697,714,0.246855989098549,-0.140563666820526,-14.3374965667725,-162.511825561523,-82.4219046651027,-0.280228811657815,-1.98798838515825,-0.338461548089981,0.402594269474101,-32.8669349098206,-298.117706298828,-189.187136799436,-0.00291165662485337,-2.88519458184859,-3.30989003181458,-2.27201319125819,0.45999999999998,5.08999999999997,-2.19,-59.1135672607241,-7.37056668029001,219.89421777779,13.8423473174568,19.79366855907,0.689479220428129,2.95962478408184,58.331103835204,-235.632060595745,-15.45948518459,17.1529016172008,-4.56570905471763,26.7169916181596,-44.9403233934906,-269.536202539642,507.874806458748,0.285792162768092,-0.0217670348489076
99.745,-37.8542517089844,29.0584049224854,63.5465415241044,0.567997234449377,7.38752348763025,7.42417573928833,7.63093551233799,-59.0574474334717,13.2735919952393,38.5703032395082,0.547457643371944,0.987022788350296,-2.00879120826721,-2.05857760183431,5.14999999999998,10.45,0.00999999999999091,-31.5308641975309,1.61728395061726,-103.555555555556,0.160000000000025,22.19,-2.11000000000001,18.1851851851852,-37.037037037037,-23.8641975308642,-4.16014909744263,11.0937309265137,1.20948493480682,26.9500007629395,6.05499982833862,12.6000003814697,714,0.246855989098549,-0.140563666820526,-14.3374965667725,-162.511825561523,-97.5285991488448,-0.284897577206721,-2.11272220707462,-0.338461548089981,0.331115573275994,-32.8669349098206,-298.117706298828,-209.535386930699,-0.0051840876982976,-2.65817293267535,-3.30989003181458,-2.39792574354348,0.45999999999998,5.08999999999997,-2.19,-59.0531165489262,-2.83994491185623,228.36686227873,10.5591100788911,20.7008110300081,0.715250313352498,5.56855024062377,74.5700739939723,-248.158084403556,-16.9235377156663,17.6145843804555,-4.89345427384939,60.2438937980833,-60.1658845820065,-232.238986731894,415.098871930989,0.286656252072464,-0.0316964232270862
99.75,-37.8542517089844,29.0584049224854,56.3578071777402,0.537366429000998,7.32780701568317,7.42417573928833,7.61430605574795,-59.0574474334717,13.2735919952393,35.4866101715823,0.562666797318974,1.36321899904647,-2.00879120826721,-2.05535356257975,5.14999999999998,10.45,0.00999999999999091,-31.5308641975309,1.61728395061726,-103.555555555556,0.160000000000025,22.19,-2.11000000000001,18.1851851851852,-37.037037037037,-23.8641975308642,-4.16014909744263,11.0937309265137,1.20948493480682,26.9500007629395,6.05499982833862,12.6000003814697,714,0.246855989098549,-0.140563666820526,-14.3374965667725,-162.511825561523,-112.634573305747,-0.289566120136633,-2.237450081355,-0.338461548089981,0.251218652933574,-32.8669349098206,-298.117706298828,-229.882666803993,-0.00745641041626436,-2.43116210849016,-3.30989003181458,-2.53690726564629,0.45999999999998,5.08999999999997,-2.19,-58.9926687195769,1.69046082464123,236.839102781745,7.27602939369363,21.6079102460124,0.741020177443521,8.17735129675293,90.8082698360251,-260.683510937679,-18.3875204368757,18.0762451294644,-5.22118386522896,93.7691973273215,-75.3907197758062,-194.94354935328,322.327361203274,0.287520300174791,-0.0416253381459679
99.755,-37.8542517089844,29.0584049224854,49.1687300373106,0.50673416292578,7.2680876961622,7.42417573928833,7.59644544967141,-59.0574474334717,13.2735919952393,32.4027700580665,0.577876676512961,1.73943314862065,-2.00879120826721,-2.05036226629997,5.14999999999998,10.45,0.00999999999999091,-31.5308641975309,1.61728395061726,-103.555555555556,0.160000000000025,22.19,-2.11000000000001,18.1851851851852,-37.037037037037,-23.8641975308642,-4.16014909744263,11.0937309265137,1.20948493480682,26.9500007629395,6.05499982833862,12.6000003814697,714,0.246855989098549,-0.140563666820526,-14.3374965667725,-162.511825561523,-127.741267789489,-0.29423488568554,-2.36218390327137,-0.338461548089981,0.164430013097277,-32.8669349098206,-298.117706298828,-250.230916935256,-0.00972884148970859,-2.20414045931692,-3.30989003181458,-2.68646301485981,0.45999999999998,5.08999999999997,-2.19,-58.9322180077789,6.22108259307501,245.311747282685,3.99279215512793,22.5150527169505,0.76679127036789,10.7862767532949,107.047239994793,-273.20953474549,-19.851572967952,18.5379278927191,-5.54892908436073,127.296099507245,-90.6162809643221,-157.646333545532,229.551426675514,0.288384389479164,-0.0515547265241465
99.76,-37.489578969147,30.8353492950703,43.487199982412,0.475499882435368,7.16927457438561,7.42073802801702,7.57437317237246,-58.8865072420595,15.1440597165995,29.1886792982649,0.596970627772311,2.10925736776724,-1.7234585758495,-1.75863240993541,4.73028028206728,10.1306480407034,0.107760803866302,-30.1935929545201,-3.94261032688241,-100.200308212983,-0.960990551000348,19.8020294308922,-1.88971232195459,20.6843214552161,-42.9364791271423,-25.924013645249,-4.10333136085362,10.8308708518631,1.1969975227332,24.5959205511426,3.80584964795855,7.62267180828422,735.507376850589,0.247377643324041,-0.138500144253915,-16.1893482260398,-162.979441310925,-139.732989015933,-0.298704421819493,-2.51816072622231,-0.603167720588887,-0.192264092513748,-36.2116637020805,-303.54206251674,-267.333795656807,-0.0117032838097424,-1.95222413462902,-3.32364100120912,-2.85757584824798,0.544726030017454,5.93595682278979,-1.7872254880708,-57.6009756456958,10.9184353334432,258.00301317627,0.745827138139021,22.800120120886,0.647045306741792,11.3333242024961,116.564420024178,-285.628844062775,-21.2934497944598,19.2419005441033,-4.32206745235629,141.756380169392,-112.649410154844,-123.684694922409,166.227923642902,0.289871103150197,-0.0657352217971535
99.765,-36.7413969402026,34.4810230753337,39.390383495535,0.443629494800619,7.02934248434766,7.41368503635374,7.54834687407664,-58.5357972347913,18.9816109837063,25.8373083303157,0.620150764179562,2.47239839987146,-1.13805493986199,-1.16581371943353,3.86916093903418,9.47544854056948,0.308332079417494,-27.4499760000668,-15.3495857512341,-93.3165039409795,-3.26087451065402,14.9027417400951,-1.43775838104591,25.8116826228046,-55.0400889406513,-30.1500421671507,-3.98676106426346,10.2915731131064,1.1713776825837,19.7661641236525,-0.80862673464083,-2.58908076820243,779.633057471851,0.248447896935567,-0.134266511377083,-19.9887057879802,-163.938826704826,-148.450316207797,-0.302964894419384,-2.70700655670048,-1.14625301208244,-0.830721235320824,-43.0738875556585,-314.670960834294,-281.02565946892,-0.0133645675827122,-1.67410503324068,-3.35185322290177,-3.04798890289743,0.718554468828496,7.6715669272261,-0.960871832799895,-54.9332951412454,15.791574472761,275.131635029103,-2.46331327068005,22.4310689738718,0.374268371992176,9.71224607417293,119.014195932968,-297.937152132814,-22.7121486937926,20.2007233207227,-1.46033046283912,136.168465330275,-141.843230167393,-93.2272783222676,133.86909118731,0.292012686321416,-0.0843873790255293
99.77,-35.993250586541,38.1265230203033,35.29376235562,0.411760626829595,6.88941706663901,7.40663238099563,7.52238496341587,-58.1851039502967,22.8189792662973,22.4860971645298,0.643329795297074,2.83552211645823,-0.552679217456206,-0.572413501769169,3.00808265643131,8.8202802820673,0.508893791203878,-24.7064898684703,-26.7560172610605,-86.4330279068296,-5.56064880580456,10.0036876601931,-0.985825990487257,30.9387993043561,-67.143121622279,-34.3758691809214,-3.87019632605097,9.75230108948129,1.14575906405542,14.9366379916243,-5.42288308689582,-12.800346421526,823.756634064855,0.249518099514592,-0.130033080370977,-23.7878821865809,-164.898166352713,-157.167227734623,-0.307225163868759,-2.89584338251383,-1.68931240784398,-1.47064632144307,-49.9357842003936,-325.79932849677,-294.716870417032,-0.0150257721413117,-1.395999193301,-3.38006409936165,-3.24015837937987,0.892374619043371,9.40709427321761,-0.134557580240001,-52.2657418388026,20.6644812480154,292.259440144292,-5.67230065926219,22.0620354241849,0.101504443962699,8.09124524310932,121.463855030013,-310.244873310421,-24.1307799458387,21.1595003781557,1.40127007154789,130.580816937603,-171.035658141986,-62.7713140116835,101.511801685773,0.294154167376329,-0.103038646870097
99.775,-35.2450685575966,41.7721968005667,31.196945868743,0.379890239194846,6.74948497660107,7.39957938933235,7.49684900289766,-57.8343939430285,26.6565305334041,19.1347261965806,0.666509931704324,3.19866314856245,0.0327244185313038,0.021202273664492,2.1469633133982,8.16508078193341,0.709465066755069,-21.9628729140169,-38.1629926854122,-79.5492236348257,-7.86053276545823,5.10439996939596,-0.533872049578572,36.0661604719446,-79.246731435788,-38.6018977028231,-3.75362602946081,9.2130033507246,1.12013922390593,10.1068815641342,-10.0373594694952,-23.0120989980126,867.882314686117,0.250588353126118,-0.125799447494145,-27.5872397485213,-165.857551746614,-165.884554926487,-0.311485636468649,-3.084689212992,-2.23239769933753,-2.11017836836464,-56.7980080539716,-336.928226814324,-308.408734229145,-0.0166870559142815,-1.11788009191266,-3.40827632105431,-3.430984541287,1.06620305785441,11.1427043776539,0.691796075030902,-49.5980613343522,25.5376203873332,309.388061997125,-8.88144106808125,21.6929842771707,-0.171272490786917,6.47016711478611,123.913630938803,-322.55318138046,-25.5494788451715,22.1183231547751,4.26300706106506,124.992902098486,-200.229478154535,-32.3138974115418,69.1529692301807,0.296295750547548,-0.121690804098473
99.78,-34.7663429056611,42.6907424926758,30.8205959152535,0.36318497765661,6.6319899634023,7.35585236581225,7.43538138444213,-57.4331403330629,31.7914402130503,19.3153574132165,0.715037001247604,3.56927656651169,0.561417065338417,0.557867108816683,1.86568435809605,8.58713956963934,0.625144621814282,-21.4406544151996,-40.0714059339788,-80.5067996671071,-8.77817579452725,4.08991800134902,-0.231202470540012,31.6487628114728,-75.0860799697477,-39.8075412307733,-3.84847912515511,8.99165876824477,1.39641698972251,7.00928642155273,-12.8120401502294,-24.8951637066613,901.199269947494,0.250049858371904,-0.12434223291775,-29.6328238867132,-161.782397220949,-168.356559723954,-0.309218758435658,-3.25387684782119,-2.4148285055146,-2.38675511198789,-60.631059712667,-323.953276787526,-313.937029089261,-0.0154796188992107,-0.866752020210911,-3.23481740818598,-3.41576772885951,1.40045773763078,11.5385060374813,1.02863128380789,-49.2204818326943,21.9552060734516,313.931664361985,-11.2501729907024,20.3282100488024,-0.0698747536734178,6.07965788503893,113.155883484848,-323.482291344701,-23.8507786252697,23.6687227512932,3.85211078901503,110.456309596821,-204.375448459788,3.56344744081723,52.286267871077,0.235250962177697,-0.100168134597925
99.785,-34.3783502664407,42.6907424926758,31.6974217641777,0.351586863503625,6.52204515221826,7.29976929516044,7.36256694615642,-57.014836066486,37.3636786847878,20.6857177160106,0.772105010534642,3.9424306040965,1.07104091797313,1.07479833209532,1.779700572668,9.37208832048246,0.444856039465159,-21.6666571964919,-38.7804506529604,-84.1057227449596,-9.23028408564891,4.38392707410298,0.0212015447487762,24.0160325160083,-65.4467189191722,-39.9958768818503,-4.01455400053493,8.87739923282203,1.77440338228038,4.494954021007,-14.9671819893767,-23.9729180545688,930.877544272659,0.248969439421903,-0.123820132581484,-31.0877983999322,-156.0111514038,-168.725051324047,-0.304753066886878,-3.41645361261951,-2.47578829303889,-2.53776160189366,-63.4440111083357,-302.858373321474,-316.715864521347,-0.0133058066638287,-0.624699582651586,-2.99341664958979,-3.325380281855,1.78877160730582,11.4830326275277,1.20059885466398,-49.6142745576734,15.5243996603146,314.236425688274,-13.3359732049569,18.6279500337253,0.157566227136251,6.10362787699418,97.9486357315244,-320.578498033551,-21.1019072033372,25.4184875748107,2.33883642998896,92.9045230260917,-200.084579861296,41.26872486343,40.6368517808255,0.152918621566412,-0.065111627709405
99.79,-33.9903761277277,42.6907424926758,32.5742058037443,0.339989302379161,6.41210558349136,7.24368889869663,7.29098122623896,-56.5965517457544,42.935651457571,22.0560126764291,0.829170298669224,4.31556684871747,1.58064047040507,1.590627805635,1.69372088717251,10.1569996429091,0.264576053748801,-21.8926492013785,-37.4895569280778,-87.7044742167145,-9.68237081906071,4.67792212773274,0.273593524751693,16.3836661691559,-55.8078174986297,-40.1842035525891,-4.18062095702884,8.7631451455938,2.15237175145505,1.98074151042887,-17.1222210657049,-23.0507163775694,960.554403459814,0.247889071989112,-0.123298057140333,-32.542703536148,-150.240180774798,-169.093525353494,-0.30028758827399,-3.579022625331,-2.53674517384053,-2.68299998652086,-66.2568283750994,-281.764475715781,-319.494567451268,-0.0111320980815191,-0.38265868678774,-2.75202740161531,-3.22517705484078,2.17706696115644,11.4275618626919,1.37255822565498,-50.0080485055819,9.09389988490472,314.541172482742,-15.4216739627832,16.9277710915079,0.384996362963047,6.12759672599731,82.7421130996845,-317.674843182887,-18.3531668548084,27.1681689649493,0.825634227855847,75.3535733706099,-195.79391586268,78.9722043994595,28.9879911653066,0.0705902067772039,-0.0300567924071373
99.795,-33.5955606856598,42.6355955415558,33.5986183875897,0.329261221542477,6.33061923220103,7.18242819539079,7.2156091674802,-56.1648280076062,47.3547290278093,23.7405058486696,0.88256939855935,4.68242958017636,2.08042245984045,2.0951722676447,1.58848706780249,10.8911043441391,0.0965493582083927,-21.9753985827429,-36.1412212814133,-90.9291371444425,-10.0331068110858,4.98072813475697,0.482313918976227,9.4646911105686,-46.8476669888354,-39.9684917028452,-4.30671908550051,8.65045449397653,2.48206474213732,-0.113127042510591,-18.5019170039282,-21.2996243954311,987.537216204757,0.247030277398641,-0.122939333500594,-33.998484242121,-144.933567229598,-168.839560356654,-0.295309211309393,-3.72568956636412,-2.61840387738505,-2.84168469425307,-69.01046844691,-261.940971332458,-320.580206645296,-0.00716150625370861,-0.15955983383593,-2.50485079883909,-3.10709587452834,2.66641174883397,11.5406390933971,1.55381875650463,-50.2877961799443,2.33718936528944,314.162436833266,-17.1658050341132,15.0176741317504,0.596909378252306,7.42678940488241,66.1828143655868,-311.932834233455,-15.8966549576439,28.223087420484,-0.608316520610155,57.5772101307772,-190.905792350432,109.815052221419,18.6541263539298,0,0
99.8,-33.1597493692422,42.2489400042984,35.5101872543151,0.323763783679845,6.4202123824413,7.09004551394274,7.11063081813099,-55.6524548408963,44.8414670077674,27.3133017803885,0.913910614824117,5.01145516589844,2.52101709313057,2.53870562043755,1.36753832119134,11.3195293528119,0.00224196636215956,-21.1969883643296,-34.4480127293946,-91.9038131871566,-9.77443510773619,5.33640172686274,0.428423980778386,6.83672498857498,-41.97096023587,-37.323892883877,-4.1924943805398,8.54720042757227,2.52143032604513,0.320686975881902,-15.2200199424172,-14.566076550799,998.315203844325,0.247503799783208,-0.123562752109207,-35.4590418919583,-142.420304181687,-164.843762472262,-0.287249106867317,-3.7767089588216,-2.82448846392398,-3.11626099658989,-71.4074322290103,-249.761319853113,-311.487288609545,0.00761008425197659,-0.0504094838778654,-2.22296498506745,-2.94034840940853,3.7630719911601,12.666938801732,1.79093448457514,-49.881958373763,-6.3783438494236,309.674935189508,-16.8559378894756,11.8462512688073,0.715467242287563,16.3918130742151,41.4965655158214,-289.129406681219,-15.1977546605728,25.1009456133747,-1.56535174278502,38.4516709307394,-182.427554698735,99.4035163260546,16.2290791350268,0,0
99.805,-32.7239172712064,41.8622660294111,37.4218472740072,0.318266083672449,6.50980980492183,6.99765842723593,7.00724307448617,-55.1400572417241,42.3280851430819,30.8862680805178,0.94525332559159,5.34049644117208,2.96163273613092,2.98012498871008,1.14657903866169,11.7479747908877,-0.0920699225224526,-20.4185410275043,-32.7547234368985,-92.8785357071985,-9.5157510696527,5.69209227922754,0.374531472844328,4.20863355228438,-37.0940209376396,-34.6791679574833,-4.07826422878566,8.44394143750837,2.56079778709679,0.754521680651696,-11.937966383979,-7.83220761762351,1009.09370543114,0.247977344747641,-0.124186200445474,-36.9196691883385,-139.906921289083,-160.847774048654,-0.279188618079981,-3.82773078413362,-3.03058287758543,-3.38127314116301,-73.8045103100845,-237.581087588327,-302.393936978924,0.0223823791394512,0.0587460709035246,-1.94106572959949,-2.75820494278467,4.85978452761823,13.7932922175539,2.028061519485,-49.4761012152473,-15.0942926634507,305.18721955969,-16.5460559688548,8.6746771768878,0.834030759742495,25.3572642397887,16.8091395047928,-266.324891749862,-14.4988210365123,21.9786549272513,-2.52243260108703,19.3252197313119,-173.948912763138,88.991483957661,13.8039162779941,0,0
99.81,-32.2881059547888,41.4756104921538,39.3334161407326,0.312768645809817,6.59940295516211,6.90527574578788,6.9054961751627,-54.6276840750142,39.81482312304,34.4590640122368,0.976594541856357,5.66952202689416,3.40222736942103,3.41913339139811,0.925630292050531,12.1763997995606,-0.186377314368686,-19.640130809091,-31.0615148848798,-93.8532117499126,-9.25707936630306,6.04776587133331,0.320641534646487,1.58066743029076,-32.2173141846743,-32.034569138515,-3.96403952382494,8.34068737110412,2.6001633710046,1.18833569904419,-8.65606932246801,-1.09865977299142,1019.87169307071,0.248450867132207,-0.124809619054087,-38.3802268381759,-137.393658241172,-156.851976164262,-0.271128513637904,-3.8787501765911,-3.23666746412435,-3.6359198764968,-76.2014740921848,-225.401436108981,-293.301018943174,0.0371539696451364,0.167896420861589,-1.65917991582786,-2.55973341416634,5.95644476994435,14.9195919258888,2.26517724755552,-49.070263409066,-23.8098258781637,300.699717915931,-16.2361888242172,5.50325431394467,0.952588623777751,34.3222879091214,-7.87710934497264,-243.521464197626,-13.7999207394412,18.856513120142,-3.47946782326189,0.19968053127414,-165.47067511144,78.5799480622966,11.3788690590911,0,0
99.815,-31.913244623074,39.5533112645673,40.4010515960857,0.303628112477365,6.77291557601347,6.80998524135194,6.80248621299368,-54.1963248048854,37.7048159314259,37.0678019713682,1.00533307692152,5.97427049149505,3.77894773507661,3.79168942213816,0.785763325247503,12.4674555825084,0.0779524028059971,-18.9133832405364,-27.2338543399275,-93.9738625795533,-8.99136104372912,7.10538687471317,-0.0659168688126721,-0.0541893802716731,-26.0742192792675,-28.1683378214203,-3.91756121216153,8.29533236557434,2.53758779348627,1.24814369843716,-5.65225238139798,3.34454979219101,1028.72869599423,0.248584999131084,-0.125784841408645,-39.7474606959333,-135.879508630939,-152.808282528171,-0.259219861558073,-3.89766597365781,-3.40390910226338,-3.84085520842571,-78.3345213009442,-214.220028644507,-281.578552083955,0.0513294222584754,0.225299523612963,-1.37687248469947,-2.34401331545012,6.4886480036714,15.0984944601062,1.90171638366221,-47.2986644197903,-24.8005474737615,294.821863337146,-15.8322132039599,3.71067750606437,1.08287864682356,40.1740624997471,-23.6184659888805,-225.495091433136,-11.4621197186618,17.4631674505754,-4.31601576336499,-10.8493994881331,-154.130783611456,66.7927136362119,9.05088834983282,0,0
99.82,-31.61874828682,35.6074606373061,40.3563827153803,0.28968749848081,7.05700315872886,6.71087316410398,6.697279368067,-53.8717782074027,36.1264754707318,38.4057578788759,1.0306384655279,6.24699142065014,4.0714491034245,4.07733631073901,0.752766275486799,12.5774457483774,0.814886514128362,-18.2548001486046,-20.5937072893169,-92.9690141506265,-8.71638562905659,9.08795961450206,-0.890843112830242,-0.38008616803171,-18.2628806476443,-22.6925928354106,-3.96036831959501,8.32628524652475,2.3406749222823,0.815057403118636,-3.01523817828981,4.76892239299202,1035.0531305317,0.248271847189758,-0.127223584170397,-40.9915557240467,-135.682218302366,-148.701915898089,-0.242240677495425,-3.87427162624656,-3.51994267692333,-3.98347267738238,-80.1195275870991,-204.355403125303,-266.392002808272,0.0647176817152107,0.214500639317993,-1.0940406218811,-2.11091919077418,6.27691693437356,14.0288400970301,0.746819642037614,-43.7273787872533,-15.6109370105699,287.112367451697,-15.3042604077886,3.73542529338491,1.22861561660001,41.9223629757514,-27.5699645404709,-213.766201831981,-6.96473487510624,18.3482875734191,-4.99368584102735,-11.2536134211281,-139.020885414359,53.1938034756132,6.85108503245263,0,0
99.825,-31.3242379075382,31.6614218525595,40.3117117046438,0.275746219727496,7.34110428813172,6.6117563607067,6.59364837890027,-53.5472161339485,34.5480597470335,39.7437775866748,1.05594506081916,6.51972535447497,4.36396441967036,4.36027858785273,0.719767652265137,12.6874411591162,1.5518557660788,-17.5961856522052,-13.9532436039703,-91.9641178056047,-8.44139710220941,11.0706268930702,-1.71580869337178,-0.705998496146893,-10.4511695331337,-17.2165867390588,-4.00317746828105,8.35723960346014,2.14375266130812,0.381950456124208,-0.378098229427834,6.19336291485549,1041.37786664918,0.247958680315814,-0.128662395538451,-42.2357100767049,-135.484918566025,-144.595353456332,-0.225260683782114,-3.85087616327823,-3.63598178463249,-4.11501186139975,-81.904618991097,-194.490307212434,-251.204729363532,0.0781065795897352,0.203701240079324,-0.811195272254153,-1.86137555702625,6.06517576870124,12.9591347275946,-0.408132170720529,-40.1559228583246,-6.42088834173887,279.402503939723,-14.776282436242,3.76017426080116,1.37435953582902,43.6707468192859,-31.5216515188674,-202.03675293992,-2.46713557421227,19.2334499031256,-5.67138823331837,-11.6578466290233,-123.910266703305,39.594244852368,4.65117681767521,0,0
99.83,-31.0297275282564,27.7153830678129,40.2670406939074,0.261804940974182,7.62520541753457,6.51263955730943,6.49153361453988,-53.2226540604943,32.9696440233353,41.0817972944738,1.08125165611041,6.7924592882998,4.65647973591622,4.64056278016321,0.686769029043474,12.7974365698551,2.28882501802924,-16.9375711558058,-7.3127799186236,-90.9592214605829,-8.16640857536224,13.0532941716383,-2.54077427391331,-1.03191082426208,-2.63945841862315,-11.740580642707,-4.04598661696708,8.38819396039552,1.94683040033393,-0.0511564908702201,2.25904171943414,7.61780343671896,1047.70260276667,0.24764551344187,-0.130101206906505,-43.4798644293631,-135.287618829683,-140.488791014575,-0.208280690068804,-3.8274807003099,-3.75202089234164,-4.23575028775997,-83.689710395095,-184.625211299565,-236.017455918793,0.0914954774642597,0.192901840840656,-0.528349922627205,-1.5962055054536,5.85343460302891,11.8894293581591,-1.56308398347867,-36.5844669293958,2.76916032709211,271.692640427748,-14.2483044646955,3.78492322821742,1.52010345505803,45.4191306628204,-35.4733384972638,-190.307304047858,2.03046372668169,20.1186122328322,-6.34909062560938,-12.0620798369185,-108.799647992251,25.9946862291228,2.45126860289779,0,0
99.835,-30.7858363867241,26.9059295654297,38.7924300913224,0.248535152736878,7.81813543105029,6.5310516529539,6.50838249035703,-52.9083803623244,32.796437439316,40.5183977962341,1.08364611051674,7.08744483945737,4.95263713175913,4.92198294954769,0.879369869567411,12.5282904013698,2.2322356096087,-15.1572466903794,-3.3908066129617,-87.408232597641,-7.42794518305888,13.0045972453039,-2.89467945812558,0.108594661707738,4.11885692578482,-13.2133672424502,-3.87080695932351,8.51266084562863,1.75514516986322,-1.73390966992696,1.73494511277809,4.45040802491686,1053.19726041195,0.246745734791528,-0.131676834398387,-44.7121017850871,-132.536797525852,-137.853681784269,-0.193154803541969,-3.80105781350893,-3.84224225275645,-4.32039506713383,-85.2439097596435,-173.265933238374,-222.553077961579,0.0996328569368173,0.155855920113373,-0.414981183321253,-1.48604023095368,5.89604383844489,11.7266630155613,-1.22707395376946,-32.3334076299865,6.68558775491679,267.37511913888,-13.5964547766531,3.99776439039131,1.32334793775496,42.588378044997,-31.2239200095498,-175.446771110974,4.79417842019329,19.3899304030639,-7.02692338180259,-27.0924945801426,-93.4481943821795,39.0118829713293,2,0,0
99.84,-30.5549946224583,26.9059295654297,36.9486866832461,0.235437869293601,7.98754722448484,6.57979716606633,6.5569033635078,-52.5967430740635,32.9858822748369,39.4642388748811,1.08012745462055,7.38819087074671,5.24975225654933,5.20209792314221,1.13020584680465,12.1612777609911,1.97083811754041,-13.0873201725672,-0.170196534853831,-83.1999252992228,-6.56982210303673,12.4316350657199,-3.1270327844085,1.62762735036995,10.6057132571964,-16.4796134957539,-3.63935739799719,8.66126927286319,1.56480003297914,-3.73927733356653,0.394952905999334,0.0977438158239003,1058.47801782747,0.245694507125606,-0.133287866449163,-45.9413374800364,-129.126788472027,-135.598172806314,-0.178506524743834,-3.77385201230309,-3.92580588160369,-4.38885352708236,-86.7386128524092,-161.520349407182,-209.532543786799,0.106415392400389,0.112033973147878,-0.34534482201408,-1.40657606652521,6.00429936546308,11.7979532406708,-0.506250566550841,-27.9066986359881,9.24121356588496,263.932847638392,-12.9125966913431,4.25916188245958,1.03818703731683,38.575654354561,-24.8576735697273,-159.777264384796,7.11057126678753,18.2446977150622,-7.70483044708832,-45.8985925305014,-78.0336642114755,58.8992158212156,2,0,0
99.845,-30.3241638653337,26.9059295654297,35.1050311896944,0.222341210363172,8.15695093992046,6.62854035486476,6.6066515040342,-52.2851206454865,33.1753180771308,38.410130218592,1.07660896650311,7.68892256167599,5.54685321411061,5.48026675629171,1.3810298635242,11.7942826207383,1.70945308959056,-11.0174923542838,3.05025997611317,-78.991818663941,-5.71173994057513,11.8587002064763,-3.35937503147502,3.14658760756694,17.0922602782736,-19.7457040058641,-3.40791887279339,8.80987061405792,1.37446397225074,-5.74454937601291,-0.944975406434257,-4.25471284681621,1063.75852344261,0.244643329584977,-0.134898821681703,-47.1705145618016,-125.716942016383,-133.342771376947,-0.163858944414076,-3.74664750834126,-4.00936552591781,-4.44872663300079,-88.2332446738087,-149.775325636252,-196.51263046526,0.113197604454869,0.0682141157278239,-0.27571178115137,-1.31574650933786,6.11254973057362,11.8692400664753,0.214538449916908,-23.4802007190921,11.7967175179073,260.490740274444,-12.2287712141814,4.52054691040941,0.75303973409883,34.5631220013218,-18.4917306892429,-144.108504821822,9.42685366169158,17.0995196347607,-8.38270518798605,-64.7037937567542,-62.6198690460247,78.7856003908783,2,0,0
99.85,-30.0919519189816,26.9475784790998,33.2707086313198,0.209310424382285,8.32362062725525,6.67860730291751,6.65883256613316,-51.9724604216266,33.3855664787767,37.360331932883,1.07309382244476,7.99036685169642,5.84359537306466,5.75655693667688,1.63383116480408,11.4308320206393,1.45108356176276,-8.94108151290348,6.25964590872043,-74.8151492474577,-4.8645857881746,11.2848530816269,-3.58852945189336,4.6448613214714,23.4773788627238,-22.9615446868009,-3.17893241873725,8.95790191772133,1.18654033690094,-7.74488763485804,-2.28156918851733,-8.61685238257366,1068.98839040968,0.24358831283139,-0.136508190330638,-48.3995724368399,-122.303144039978,-131.08763379264,-0.149213349119412,-3.71975601393014,-4.09193333906645,-4.50014860709944,-89.7261336159141,-138.039366564251,-183.507110103961,0.119971658154769,0.0248662491034114,-0.206848565025374,-1.21613645530335,6.22383116480411,11.9372136983243,0.931934931719243,-19.0774856239137,14.3546892463827,257.032867194868,-11.5494582191186,4.77529811592223,0.469535616387411,30.5337368881808,-12.1165353819477,-128.406040276164,11.7249409113481,15.9396162143207,-9.0606394630275,-83.2766132609529,-47.1974894938327,98.6219125792654,1.99613013656153,0,0
99.855,-29.6769282866465,32.5464205853487,32.6934931319684,0.205152985219642,8.12440442590886,6.90499031308486,6.8883080637047,-51.5233252850515,36.3716150067606,36.8924212899904,1.07004742888589,8.38496510576356,6.09055872453687,5.98203197389855,2.14885268471776,11.5426801284993,1.59674621385956,-5.99956940265953,7.97124629601302,-74.8601068561295,-5.48105094079855,10.5929554841671,-3.39084442404771,3.37320324761047,16.28737273299,-19.4516399526343,-3.27860814073098,9.02892083320775,1.32172548563013,-9.07405936996999,-3.16464901189292,-14.2430723495799,1067.42771913722,0.242027770179081,-0.137895535306681,-49.604845279157,-118.383954664828,-128.88215862092,-0.134926510785141,-3.73480361119972,-4.04162598969248,-4.41250597779024,-90.9768900943754,-127.588194235687,-172.505496029277,0.12561367106853,0.0447767688168745,-0.241149034383593,-1.2120482608019,6.73885268471778,11.5626525929325,1.19204681046352,-17.8764752208228,17.2255536858566,251.493447554944,-11.4766268930702,4.14322625057364,0.407108765488781,24.2814180250313,-4.54760083626538,-108.306777942085,11.5804112974029,12.8222590957885,-9.74217199743095,-70.7223125998719,-30.728506000286,111.649615788033,1.47590637907297,0,0
99.86,-29.2618848639518,38.1455296718135,32.1162501081546,0.200995347809936,7.92517872495818,7.13138411830301,7.11863251433856,-51.0741687315133,39.3578059241646,36.4244883348264,1.06700089006006,8.77958217620828,6.33753385243135,6.20702455299184,2.66389876338018,11.654533569825,1.74241581186509,-3.05791702671007,9.68292830079582,-74.9050666086004,-6.09754548950053,9.90102489364078,-3.19314996961163,2.10148453486376,9.09702374854588,-15.9415678490177,-3.37828861575137,9.09994313522393,1.45691708064938,-10.4032944865008,-4.04777094483998,-19.8695606023124,1065.8669734443,0.240467153112454,-0.139282946438128,-50.8101755947869,-114.464578403532,-126.676578281341,-0.120638991184439,-3.74985192601245,-3.99131624141768,-4.32006041412999,-92.2277062150321,-117.136523544035,-161.503357343745,0.131255953021102,0.0646882379614431,-0.275451139356203,-1.20225540248595,7.25389876338018,11.1880736266326,1.45217109261626,-16.6754075476731,20.096555022209,245.953763768358,-11.4037920940674,3.51112424494251,0.344678937772122,18.0288010206933,3.02169463329015,-88.206557176727,11.4358747915778,9.70475332639943,-10.4237370306439,-58.167413288242,-14.258737184938,124.677940221502,0.955657814767498,0,0
99.865,-28.8468612316167,43.7443717780625,31.5390346088032,0.196837908647293,7.72596252361179,7.35776712847036,7.34963559353507,-50.6250335949382,42.3438544521486,35.9565776919338,1.06395449650119,9.17418043027543,6.58449720390356,6.43209614073674,3.17892028329386,11.766381677685,1.88807846396189,-0.11640491646612,11.3945286880884,-74.9500242172722,-6.71401064212447,9.20912729618099,-2.99546494176598,0.829826461002831,1.90701761881205,-12.4316631148511,-3.4779643377451,9.17096205071036,1.59210222937857,-11.7324662216128,-4.93085076821557,-25.4957805693186,1064.30630217184,0.238906610460145,-0.14067029141417,-52.0154484371041,-110.545389028383,-124.471103109621,-0.106352152850168,-3.76489952328203,-3.94100889204371,-4.22429439420653,-93.4784626934935,-106.685351215471,-150.50174326906,0.136897965934863,0.0845987576749061,-0.309751608714423,-1.18865859913053,7.76892028329385,10.8135125212408,1.71228297136054,-15.4743971445822,22.9674194616829,240.414344128433,-11.330960768019,2.87905237959392,0.282252086873493,11.7764821575438,10.5906291789724,-68.1072948426474,11.2913451776327,6.5873962078672,-11.1052695650474,-45.613112627161,2.21024630860873,137.70564343027,0.43543405727894,0,0
99.87,-28.4265297144388,48.7338084748663,31.4499995733661,0.19325034694167,7.48232969764696,7.57436628471895,7.57138794385554,-50.1678395604513,45.8132412474605,35.9136153356966,1.06187530447085,9.56429281468232,6.83503627133657,6.66144394965284,3.6345044176707,11.9187261044177,1.99352289156626,2.56422628786751,13.1505478704943,-75.7528305815856,-7.40871325301207,8.60887550200803,-2.74930441767067,-0.590294015568463,-3.04080321285138,-9.21060240963855,-3.57475092033785,9.22433456114497,1.73530654654445,-12.7089584886788,-5.5147350130311,-30.5658063075054,1062.07052208835,0.237779291312857,-0.141981041283014,-53.1600222436683,-106.628397284205,-122.085570394707,-0.0916053457778043,-3.78541925624869,-3.898529565995,-4.13456825876261,-94.6324802692061,-96.3916059624239,-139.62889545365,0.140023866359588,0.119443720177425,-0.34254716504051,-1.17157439947921,8.21901204819276,10.4429638554217,1.8847935742972,-14.3376944816302,25.939427834796,234.782057613169,-11.1969092369478,2.21733815261046,0.195355823293191,6.22712479547819,16.7115513907482,-48.6707719767961,11.0803154033063,3.79093143984975,-11.6241156954172,-31.9863899617023,19.3738633957828,148.565639035635,0,0,0
99.875,-27.9790706830383,50.5931244964175,33.8672882343672,0.192589561066629,7.01073507609823,7.74067220113364,7.74321734328486,-49.6694052097861,51.7630513301704,38.0523319025415,1.06476229191468,9.93126083449988,7.10385963335647,6.91039060596065,3.78480630213161,12.2789323447637,1.8924578313253,3.9047220219911,15.1340976441378,-80.4461652879324,-8.50488044485635,8.47930491195551,-2.25434476367006,-2.77219876657629,3.52410668314285,-7.47339672078628,-3.65667647617188,9.18709557102829,1.91963904717103,-11.8745238195425,-4.56239115760987,-32.7788717285807,1056.36941612604,0.238876452862498,-0.142898171770009,-53.9926350240911,-102.723833737802,-118.776327670152,-0.0745013920389668,-3.83402669853326,-3.89625140191008,-4.08481372297914,-95.2895069184714,-86.9090953399121,-129.420308239838,0.1302312384367,0.230951282654729,-0.367606969974569,-1.14646197783051,8.33562557924002,10.0931232622799,1.60751251158481,-13.531477476859,29.4298355816428,228.674643874644,-10.7485949953661,1.40363484708064,-0.0171399443929362,4.28836485543311,15.3966498472523,-32.6424100962254,10.5279383679691,2.6427322153696,-11.3075850208343,-12.8578841081253,40.0986796206739,148.293540005688,0,0,0
99.88,-27.5315903145994,52.452529179264,36.284692163532,0.191928743682081,6.53911796660798,7.90698604782901,7.91525667646087,-49.1709470913298,57.7131451289684,40.1911504538681,1.06764941702422,10.2982463531501,7.37269581419102,7.16126100398849,3.93511535372259,12.6391557615076,1.79138795180723,5.24528167751729,17.1177420031503,-85.1397237954668,-9.60109990732159,8.3497281433426,-1.75936150756874,-4.95420756149004,10.0893296261971,-5.73610819345759,-3.73860593861771,9.14985480517416,2.10398033767414,-11.0400493604738,-3.61000188976885,-34.9920426794552,1050.66803830707,0.239973666730176,-0.143815345990278,-54.8252875075695,-98.8190840026837,-115.466927144695,-0.0573966226998366,-3.88263645865876,-3.89397312919115,-4.03637743379606,-95.9465648979856,-77.4261325448466,-119.211234230584,0.120438143553347,0.342464162358798,-0.392667969882875,-1.1225804884411,8.45224467099164,9.74326598702501,1.33021822675318,-12.725222027712,32.9204097682277,222.566938904717,-10.3002593759654,0.589892740191534,-0.229645844918112,2.34951246581767,14.0816856028101,-16.6132839048502,9.97553499258924,1.49447823912633,-10.9910392525184,6.27153388630582,60.8244841063166,148.021428000727,0,0,0
99.885,-27.0841312831988,54.3118452008153,38.7019808245331,0.191267957807041,6.06752334505924,8.07329196424369,8.08731747824616,-48.6725127406646,63.6629552116783,42.329867020713,1.07053640446805,10.6652143729677,7.64151917621093,7.41458523121427,4.0854172381835,12.9993620018536,1.69032289156627,6.58577741164088,19.1012917767938,-89.8330585018135,-10.6972670991659,8.22015755329008,-1.26440185356813,-7.13611231249786,16.6542395221913,-3.99890250460532,-3.82053149445174,9.11261581505748,2.28831283830072,-10.2056146913375,-2.65765803434763,-37.2051081005305,1044.96693234476,0.241070828279817,-0.144732476477274,-55.6579002879923,-94.9145204562805,-112.15768442014,-0.0402926689609992,-3.93124390094333,-3.89169496510623,-3.99076125049655,-96.603591547251,-67.9436219223348,-109.002647016772,0.110645515630459,0.453971724836102,-0.417727774816934,-1.10125198921338,8.56885820203891,9.39342539388321,1.05293716404079,-11.9190050229408,36.4108175150745,216.459525166192,-9.8519451343837,-0.223810565338289,-0.442141612604239,0.410752525772595,12.7667840593142,-0.584922024279455,9.42315795725203,0.346279014646178,-10.6745085779354,25.4000397398828,81.5493003312076,147.749328970781,0,0,0
99.89,-26.7727812194824,55.6055908203125,41.3015058092282,0.187446709522841,5.61000968867409,8.18901062011719,8.20864466982452,-48.3256931304932,67.8029403686523,44.9886419867422,1.06635970676323,10.9769033929301,7.82857131958008,7.58909687292569,4.08382249931692,13.1874028167615,1.56849598847463,7.88926914279425,21.0165753903966,-94.5602467847846,-11.392648600313,8.17120320922029,-0.825708040438179,-8.6885591719542,25.552863419237,-1.45385603525813,-3.82250230008365,9.03527553682193,2.39038591529506,-9.63886647975469,-1.66497813987881,-38.3622846649586,1038.30594401252,0.242027120539102,-0.145224299575998,-56.2372472763061,-92.1976547241211,-108.852217948552,-0.023186870980742,-3.96834264418646,-3.89010977745056,-3.95007716943935,-97.0607625389099,-61.3455200195312,-99.4509502749491,0.102264533086745,0.57497727304652,-0.435164839029312,-1.07595983141336,8.54699197694923,9.10721205196352,0.82038152959588,-10.8698860066256,39.1681927421182,209.901244687562,-9.37835664075115,-1.00156263195809,-0.599508432896967,-0.452089387880151,11.6581615520983,14.8633260134457,9.03880405426025,-0.452658712863922,-10.4542608261108,38.7099990844727,95.9700012207031,147.559997558594,0,0,0
99.895,-26.7727812194824,55.6055908203125,44.3174246670204,0.176397617002565,5.18477298484744,8.18901062011719,8.21392923942805,-48.3256931304932,67.8029403686523,48.8364503988421,1.04602797504722,11.1621123415907,7.82857131958008,7.57992103830278,3.73481805310614,12.9816464641447,1.39920278695448,9.10792295810553,22.7754240367693,-99.3641222467241,-11.1712651829405,8.30663777043641,-0.515771256116661,-8.80109976175867,39.7876403067913,2.9384424125393,-3.64160450293264,8.86622982661893,2.30430357180059,-9.68444546830261,-0.58019937364073,-37.1043064687661,1029.45060731762,0.242661074087238,-0.144743304926643,-56.2372472763061,-92.1976547241211,-105.555906422066,-0.00607953610819384,-3.97911348223274,-3.89010977745056,-3.91651791507453,-97.0607625389099,-61.3455200195312,-91.40315595695,0.0971135051441982,0.717687147631452,-0.435164839029312,-1.03776133505665,8.20840557390893,8.96656846916216,0.69015598996499,-9.26537874055613,40.2485824042412,202.312793489317,-8.84703643905712,-1.69696701358703,-0.630762562408382,1.14598698734336,11.0215033583473,28.9823468657725,9.03880405426025,-0.452658712863922,-10.4542608261108,38.7099990844727,95.9700012207031,147.559997558594,0,0,0
99.9,-26.7727812194824,55.6055908203125,47.3334873385962,0.165347997607437,4.75951600365186,8.18901062011719,8.21871186726437,-48.3256931304932,67.8029403686523,52.6844422932945,1.02569527381464,11.3473301219212,7.82857131958008,7.57440980296325,3.38579696465388,12.7758803000571,1.22990151270525,10.3266348847999,24.5343565536607,-104.168226780976,-10.9498712089222,8.4420787898358,-0.205819692491137,-8.91364571804971,54.0230959782323,7.33095030664104,-3.46069807968859,8.69717605548844,2.21821712347833,-9.73002663027995,0.504631120162381,-35.8462682860113,1020.59484835689,0.243295057865384,-0.144262287341107,-56.2372472763061,-92.1976547241211,-102.259437711301,0.0110286145258761,-3.98988483388534,-3.89010977745056,-3.88964528484418,-97.0607625389099,-61.3455200195312,-83.3549778806982,0.0919622315754084,0.860403827322224,-0.435164839029312,-1.00472608826035,7.86980302541047,8.82591817978589,0.559924240542501,-7.66079496372101,41.3290235846352,194.72398043655,-8.31569090141336,-2.39240455550311,-0.662018182269781,2.74413956667613,10.3848148056151,43.1020409821713,9.03880405426025,-0.452658712863922,-10.4542608261108,38.7099990844727,95.9700012207031,147.559997558594,0,0,0
99.905,-26.7727812194824,55.6055908203125,50.3494061963884,0.15429890508716,4.33427929982521,8.18901062011719,8.22281616652529,-48.3256931304932,67.8029403686523,56.5322507053944,1.00536354209862,11.5325390705818,7.82857131958008,7.57274020389011,3.0367925184431,12.5701239474403,1.0606083111851,11.5452887001112,26.2932052000335,-108.972102242915,-10.7284877915497,8.57751335105192,0.10411709183038,-9.02618630785419,68.2578728657866,11.7232487544385,-3.27980028253758,8.52813034528544,2.13213477998386,-9.77560561882786,1.58940988640046,-34.5882900898188,1011.73951166199,0.24392901141352,-0.143781292691752,-56.2372472763061,-92.1976547241211,-98.9631261848158,0.0281359493984242,-4.00065567193162,-3.89010977745056,-3.87042032242343,-97.0607625389099,-61.3455200195312,-75.307183562699,0.0868112036328616,1.00311370190716,-0.435164839029312,-0.97724905020766,7.53121662237017,8.68527459698453,0.429698700911611,-6.05628769765152,42.4094132467581,187.135529238305,-7.78437069971932,-3.08780893713205,-0.693272311781196,4.34221594189964,9.74815661186409,57.2210618344982,9.03880405426025,-0.452658712863922,-10.4542608261108,38.7099990844727,95.9700012207031,147.559997558594,0,0,0
99.91,-26.540817153754,54.5954876935593,52.3368095736469,0.136341834804279,4.01469174187938,8.1118956132384,8.14895497000406,-47.8972693109416,69.9008467991229,60.0219795458951,0.97610782059786,11.6276216294579,8.02849923376957,7.77488218017757,2.63882618259384,12.3322127669029,1.08587486391009,13.2203100368201,28.4445223472782,-111.97504997165,-10.3230201968583,8.8535932188326,0.381543093296583,-8.62115550201108,79.2764483549473,15.8214889480841,-3.25923489367347,8.5094990468066,2.10603344582165,-9.50435684430066,2.79918975170238,-34.1007255971038,1005.48388028529,0.24440960145595,-0.143672436146324,-56.6656708893028,-91.1875515973679,-96.3362529435817,0.0439632482299984,-3.96568039460683,-3.89391792721343,-3.86339783234133,-97.2169833289761,-55.5957044455275,-68.506633378343,0.0794417791424291,1.11814510731649,-0.43135668926644,-0.951687851470131,7.2113833403693,8.53744284222456,0.331843491012524,-4.16672989414265,42.5999341117582,179.548494102563,-7.3234803475015,-3.70041326904702,-0.746820050214394,5.27240097356597,10.9342228520282,71.0735517959209,8.79344299140618,-0.494676146747075,-9.58512236893099,44.145288526102,103.273907087055,146.377424379412,0,0,0
99.915,-26.0417898227743,52.422439614862,53.1397602265632,0.110432652771582,3.81678305148836,7.94599708951507,7.98529539248567,-46.9755955399305,74.4141003643052,63.099051960414,0.936579878577759,11.6189214963458,8.45860677259474,8.21098822100804,2.18452518497123,12.0573024196236,1.33515797542607,15.4206282589238,31.0475131851918,-112.904073220983,-9.7056367898327,9.2915859755149,0.621507209989549,-7.62022642842664,86.5907087978358,19.5807254399659,-3.42328086262646,8.66405917102887,2.14899786361669,-8.86833544318539,4.1527737364162,-34.5002775356903,1002.22223209723,0.244713557052535,-0.143992076414091,-57.5873442159496,-89.0145035186706,-94.4804509156121,0.0583150698536607,-3.87803591091687,-3.90211044964646,-3.86966328651855,-97.5530631595546,-43.2260509368661,-63.1428772754595,0.0695188140868572,1.20129528894328,-0.42316416683341,-0.927417296325756,6.91317550603241,8.38134967893884,0.271270024662847,-1.94915427421851,41.7658265504378,171.963867760488,-6.94373130846313,-4.21761748172505,-0.826031506210136,5.43347001988991,14.2188809038484,84.6177328519816,8.26559452514514,-0.585068802262422,-7.71533342909526,55.8382978490821,118.986895384477,143.833339219315,0,0,0
99.92,-25.5427386957272,50.2492879145883,53.9427491680997,0.0845222352621774,3.61886492384158,7.78009065493753,7.82046106852631,-46.0538778189995,78.9275691435243,66.1762711048176,0.897050051671767,11.6102209483688,8.88873482105412,8.65065932980411,1.73020252405181,11.7823789632724,1.58445297398185,17.6210514029779,33.6506281464584,-113.833140770695,-9.0882239429422,9.7295996178372,0.861482769346989,-6.61924962564123,93.905318020489,23.340141190657,-3.58733465409479,8.81862666543494,2.19196433016562,-8.23228371345436,5.50642226664453,-34.8998485268703,998.960428377808,0.245017527143211,-0.144311731923872,-58.5090614924951,-86.8413518183969,-92.6245603939118,0.0726675758424761,-3.79038724790863,-3.91030336273909,-3.88508824276653,-97.8891590160656,-30.8558075825364,-57.7788654024123,0.0595953758557069,1.28444943557802,-0.414971253740781,-0.90857708932151,6.6149534516853,8.22524907236653,0.210693669873594,0.268527090573313,40.9316792147833,164.378879746278,-6.56396416113049,-4.73484635723331,-0.905246739396092,5.59454674677493,17.5036955842534,98.162559760937,7.73772088848371,-0.675465768142344,-5.8454553285643,67.5318647520214,134.700632954146,141.289132744776,0,0,0
99.925,-25.0437113647475,48.076239835891,54.745699821016,0.0586130532294804,3.42095623345056,7.6141921312142,7.65433391907021,-45.1322040479884,83.4408227087066,69.2533435193365,0.857522109651666,11.6015208152567,9.31884235987929,9.09348188773315,1.27590152642921,11.507468615993,1.83373608549783,19.8213696250816,36.253618984372,-114.762164020028,-8.47084053591662,10.1675923745195,1.10144688603995,-5.61832055205679,101.219578463378,27.0993776825388,-3.75138062304778,8.97318678965721,2.23492874796067,-7.59626231233908,6.86000625135835,-35.2994004654567,995.698780189748,0.245321482739796,-0.144631372191639,-59.4307348191419,-84.6683037396996,-90.7687583659422,0.0870193974661384,-3.70274276421868,-3.91849588517212,-3.90966510488604,-98.225238846644,-18.486154073875,-52.4151092995288,0.049672410800135,1.36759961720481,-0.406778731307751,-0.894751661594081,6.31674561734841,8.06915590908081,0.150120203523917,2.48610271049746,40.0975716534629,156.794253404203,-6.18421512209212,-5.25205056991135,-0.984458195391833,5.75561579309887,20.7883536360736,111.706740816998,7.20987242222267,-0.76585842365769,-3.97566638872857,79.2248740750015,150.413621251568,138.74504758468,0,0,0
99.93,-24.580854867925,45.217280711672,55.0381061380028,0.0344072944974134,3.23760560272632,7.40247355535606,7.44097667957301,-44.2030946474468,87.0466203204416,72.2408239530694,0.818023571601816,11.5767933429622,9.7409027972896,9.53093934212706,0.895519247431592,11.2629731402401,2.09197672979331,21.2586220333466,38.4455767811381,-115.367676295349,-7.85694269092708,10.5622614184924,1.31433840821885,-4.85263272101577,107.111736112066,30.2685135521295,-3.89087292622452,9.07735764996547,2.25309370407773,-6.86298939744676,8.07252756217459,-35.8354435323533,992.551924743161,0.245696039745191,-0.144886597509593,-60.3363393610753,-82.2915800897065,-88.924263356176,0.102688134336923,-3.59408265239524,-3.93591024235549,-3.95234645354483,-98.4700228520835,-6.06501880036175,-46.5207917981891,0.0397403446586093,1.43646310145499,-0.383061776228866,-0.869853372126298,6.06955192474315,7.94672112885258,0.120611461814603,4.91399589547053,39.406854228078,148.783194962095,-5.85297314024013,-5.7736477286793,-1.10600940710485,6.24513637704216,23.4088132775264,125.038895230586,6.8091734427452,-0.865012353165106,-2.35686364612421,88.0139326371095,162.299958255625,138.012229863717,0,0,0
99.935,-24.291506429333,39.071285813208,52.8832036916287,0.0183733608679052,3.12408779022553,6.97118099439644,7.00655776133097,-43.2386001822057,86.3016495615056,74.7980315881745,0.778676888864081,11.4752477319879,10.1242739075761,9.93180447914225,0.86956182695877,11.1643349424433,2.39308280727814,19.0378205040044,38.6666955481289,-114.422313450968,-7.25992202005198,10.7491548458968,1.39740215373191,-5.21475475971081,106.185600986554,30.6082032521443,-3.91263188662425,8.93996533947366,2.15238064251732,-5.66375653942057,8.6085483097915,-37.0255910233853,989.956182695878,0.246408911968446,-0.144832987624652,-61.1646701027636,-78.9392205862675,-87.1344765991378,0.124665005083729,-3.38471687226785,-3.99752345650868,-4.0475845903612,-98.2771245531535,6.59945637603431,-38.0849253828962,0.0297673973078766,1.43682613367117,-0.284937020510261,-0.774316068135744,6.06695618269587,7.98565725956182,0.240015595989619,8.34934833335627,39.4036496082665,138.730302613543,-5.75433494244338,-6.31615781656146,-1.43047716301524,8.30891153562278,22.8448001907093,137.351044546217,7.01805971013185,-1.00613492145177,-1.94157783642074,82.8808523425284,155.840455596844,145.961689883521,0,0,0
99.94,-24.0021441931901,32.924997843603,50.7281984889509,0.00233866266190435,3.01056456463941,6.53986786729497,6.57059168348547,-42.2740597251442,85.5566432787148,77.3553611634653,0.739328329883786,11.3736972788214,10.5076632988749,10.3341333018461,0.843603168708995,11.0656920410942,2.69420324297562,16.8169130759674,38.8878248591456,-113.476905527056,-6.66287288030697,10.9360571852952,1.48046986013121,-5.5768940661584,105.259421698383,30.9479091502279,-3.93439188459779,8.80256647744352,2.05166277846483,-4.46446649609764,9.14459461750319,-38.2157952664792,987.3603168709,0.247121818184941,-0.14477937518333,-61.993040343319,-75.5867012259069,-85.3446044963003,0.146642923795379,-3.17534110855455,-4.05913960868171,-4.15041942262537,-98.0842170558877,19.2645354566398,-29.6486567041721,0.0197939743981648,1.43718918319849,-0.186807585722669,-0.681766109618139,6.0643603168709,8.02459524693649,0.359425423938617,11.7848645856733,39.4004448356431,128.676930893843,-5.6556920410942,-6.85869377398192,-1.75496039113753,10.3727851051117,22.2807602089856,149.663780965435,7.2269559382389,-1.14726421915374,-1.52627222385571,77.747527277536,149.380644917338,153.911528972518,0,0,0
99.945,-23.7127957545981,26.7790029451389,48.5732960425768,-0.0136952709676038,2.89704675213862,6.10857530633535,6.13312609869171,-41.309565259903,84.8116725197787,79.9125687985704,0.699981647146052,11.272151667847,10.8910344091614,10.7372042016996,0.817645748236173,10.9670538432974,2.99530932046045,14.5961115466252,39.1089436261363,-112.531542682675,-6.06585220943188,11.1229506126996,1.56353360564427,-5.93901610485344,104.333286572871,31.2875988502428,-3.95615084499752,8.66517416695171,1.95094971690442,-3.26523363807146,9.6806153651201,-39.4059427575112,984.764574823617,0.247834690408197,-0.144725765298389,-62.8213710850072,-72.2343417224679,-83.5548177392621,0.168619794542184,-2.96597532842716,-4.1207528228349,-4.25986422250131,-97.8913187569577,31.9290106330359,-21.2127902888792,0.00982102704743211,1.43755221541467,-0.0886828300040637,-0.591366417139308,6.06176457482362,8.06353137764573,0.478829558113634,15.220217023559,39.3972402158316,118.624038545291,-5.55705384329745,-7.40120386186408,-2.07942814704791,12.4365602636923,21.7167471221686,161.975930281067,7.43584220562555,-1.2883867874404,-1.11098641415223,72.6144469829549,142.921142258557,161.860988992322,0,0,0
99.95,-23.421224558924,22.5410887610193,45.8432711375949,-0.0263206538742394,2.7912868524861,5.591563477281,5.60847881790323,-40.1539955930017,84.5448130732492,82.0723827939897,0.66242740791213,11.1480982422539,11.1817359026305,11.0476836367583,1.00200755692554,11.0018385204335,3.22838122700606,11.9610639110159,39.617889142996,-111.478731723006,-5.63996619270163,11.3877324251765,1.6650760664214,-6.01102297153139,101.781736079655,32.1677622735592,-3.98813582102015,8.58716947828264,1.89468065516736,-2.23964506704529,10.1764719207682,-41.1119303110166,982.165258029233,0.248698698470651,-0.14398545457649,-63.6636138722,-65.703087385765,-80.9130665757643,0.193163681213184,-2.74220151127172,-4.1545650240701,-4.34695231261214,-97.2511546590194,47.9648805724303,-10.9654844526739,-0.000597777619954718,1.41172085855977,0.0499382096413029,-0.461721714106219,6.12594461569057,8.04241970766628,0.5775295813861,18.0306370969425,38.9632631040108,108.225466077924,-5.49500845182461,-7.93110520035794,-2.35258874415831,13.5932057641812,20.7325252235099,173.707318899556,7.38331778867114,-1.33873904159425,-0.971221438391351,67.9096155759294,136.449821940992,169.646100351774,0,0,0
99.955,-23.1249644223513,22.3540644943922,41.8926564654826,-0.0317091102014004,2.70200610329659,4.89263969244345,4.9005701873128,-38.5929297355886,85.2929121284678,83.3883936168881,0.628681956990345,10.9762779353451,11.2756895295927,11.1608514396315,1.6328149547579,11.3198488614895,3.31700705975937,8.44692413735536,40.7377798400966,-110.197937190115,-5.57740678134635,11.817828378244,1.80583474197078,-5.46716800656013,95.7800230046758,34.1951506045172,-4.04182527695165,8.63524033092322,1.93276271400933,-1.58277123530778,10.5870180080695,-43.9127670118156,979.55861588943,0.249883449224588,-0.141787494854009,-64.5353038042502,-52.4243574947537,-76.4630384782619,0.223154327745486,-2.48786506012712,-4.12935799889528,-4.3791429935264,-95.6616025177238,71.1559015664545,3.12609561179993,-0.0119619906163194,1.33028684277323,0.274510458168807,-0.24645385218441,6.33186934473502,7.8938411056975,0.63226906632196,19.5141704629292,37.614888960088,97.0941387179497,-5.51064830466343,-8.43418713333995,-2.5168071989659,12.8240854291035,18.8563864981948,184.204685146517,6.77587783925752,-1.19639958448814,-1.41634438971206,64.1143442624083,129.954070205893,177.081545464595,0,0,0
99.96,-22.8287184122394,22.1670491455729,37.942230169046,-0.037097309592822,2.61272961124751,4.19374923412625,4.19151631206758,-37.0319383138926,86.0409755123601,84.7043416889367,0.594938115140222,10.8044658212795,11.3696386765993,11.2728858400019,2.263592274038,11.6378440389778,3.40562866660039,4.93295192710196,41.8576171378697,-108.917203728869,-5.51485035298799,12.2479038232077,1.94658670577709,-4.92333897402092,89.7785961071276,36.2224422642788,-4.09551217282898,8.68330889141938,1.9708429569988,-0.925928725038501,10.9975445194558,-46.7134701613701,976.952098041165,0.2510681434865,-0.139589639936015,-65.4069521718368,-39.1462607684329,-72.0132225697782,0.253143544245053,-2.23354073641201,-4.10415217565758,-4.41401777938263,-94.072126170446,94.345816751734,17.2170037527537,-0.0233256617371835,1.24885670997428,0.499071998502123,-0.0305889528461634,6.53778425474795,7.7452695883464,0.687005941135517,20.9976330901516,36.2665791101831,85.9633421288777,-5.52628741175302,-8.93724507805507,-2.68101782340659,12.0550017677019,16.980337232098,194.701550851504,6.16846685417488,-1.0540669145009,-1.86144611640225,60.3192539173838,123.458628205285,184.516636035878,0,0,0
99.965,-22.5324582756667,21.9800248789458,33.9916154969336,-0.0424857659199831,2.523448862058,3.49482544928869,3.48147934243078,-35.4708724564796,86.7890745675788,86.0203525118352,0.561192664218437,10.6326455143708,11.4635923035614,11.3833406623611,2.89439967187036,11.9558543800338,3.4942544993537,1.41881215344146,42.9775078349703,-107.636409195978,-5.45229094163271,12.6779997762752,2.08734538132646,-4.37948400904967,83.7768830321488,38.2498305952368,-4.14920162876048,8.73137974405995,2.00892501584078,-0.269054893300992,11.4080906067571,-49.5143068621691,974.345455901362,0.252252894240436,-0.137391680213534,-66.278642103887,-25.8675308774216,-67.5631944722758,0.283134190777355,-1.97920428526741,-4.07894515048276,-4.45005855415679,-92.4825740291504,117.536837745758,31.3085838172275,-0.0346898747335481,1.16742269418774,0.723644247029627,0.186828330999944,6.7437089837924,7.59669098637763,0.741745426071378,22.4811664561383,34.9182049662602,74.8320147689037,-5.54192726459184,-9.44032701103708,-2.84523627821419,11.2858814326242,15.1041985067829,205.198917098465,5.56102690476125,-0.91172745739479,-2.30656906772296,56.5239826038626,116.962876470186,191.952081148698,0,0,0
99.97,-22.254395437891,23.2528437277925,30.8820113328413,-0.0464858474760939,2.45597579674078,3.07590114584488,3.0507766033215,-34.264645342047,88.3619896136552,87.0283122836443,0.525232861178562,10.3930765958863,11.4606344759239,11.3949827246411,3.4159424142861,12.247235333952,3.44584585287554,-2.33343706292296,43.2932308546916,-107.347589804279,-5.42254470667905,13.0794018208723,2.18799177346946,-3.24267583945882,79.2197330217111,40.1947976669203,-4.2314610910369,8.82079516380187,2.04991280302136,0.501963948106432,11.7224243682196,-54.326645904355,971.72764666048,0.253641010846616,-0.134432738491158,-66.7146727071874,-14.9054612300875,-61.02954549567,0.313645959209243,-1.72879873391574,-3.93618208179056,-4.36815838563516,-91.0252602261871,132.42850464132,46.8131740429038,-0.0474484451888553,1.06671216525707,0.88765820645517,0.346147388245404,6.95942238719873,7.46910586641919,0.706382333023984,24.3386241616869,32.8242043553423,61.8559970101107,-5.59834942690177,-9.56640289935039,-2.81930525946177,10.5715859573049,13.7839417925278,213.055175781401,5.24748802185059,-0.838256895542145,-2.53632569313049,54.564998626709,113.610000610352,195.789993286133,0,0,0
99.975,-21.9957203092262,26.0833281141764,28.6693940744412,-0.0490050344121513,2.41176319908097,2.95567341856743,2.9184405600151,-33.4368849303197,90.8150747776187,87.7077046724186,0.486906970864752,10.0812015184006,11.3542793041242,11.3011673059041,3.8209595946929,12.5102335030473,3.25122720774499,-6.34010052790618,42.7510000616185,-108.117102965706,-5.42780467006096,13.4502292392967,2.24585137067043,-1.47312025727417,76.2033713045559,42.05201930547,-4.34421065563405,8.95433086289446,2.09400481817873,1.39484270953339,11.934137974602,-61.2855772178355,969.097664969527,0.255246239956948,-0.130661595991077,-66.6859313606441,-6.41400907419416,-52.2721896724969,0.344716731813363,-1.48256246944631,-3.66798170439106,-4.15888748136088,-89.7088909036736,138.466868121846,63.8268653512964,-0.0616959450807393,0.945425156401901,0.987077304302819,0.444220207867705,7.18560081262071,7.36390659878106,0.574883248476318,26.5952133903444,29.9344713862701,46.9105578453475,-5.69828873115799,-9.29025482180029,-2.59049685234883,9.91571398005482,13.056638213795,218.094350576907,5.24748802185059,-0.838256895542145,-2.53632569313049,54.564998626709,113.610000610352,195.789993286133,0,0,0
99.98,-21.7370575148705,28.9136775356363,26.4568823194388,-0.051524101226764,2.36755270959385,2.83545142406355,2.78615913730044,-32.6091639883813,93.2680429720435,88.3870646659809,0.448582908029976,9.76934131193705,11.2479292036182,11.2053080871963,4.22595746281759,12.7732191316997,3.05661784254221,-10.3465729446601,42.2087951235326,-108.886579434726,-5.433064382634,13.8210389756966,2.30370820897395,0.296350947856205,73.1871534154438,43.9091523868179,-4.45695484403605,9.08786019465446,2.1380947309131,2.28767889615769,12.145841485924,-68.2441767112076,966.467808683003,0.256851392525744,-0.126890633308968,-66.6571913845637,2.07703818697498,-43.5152514230326,0.375786022881502,-1.23633794616821,-3.39979411548944,-3.94618937282904,-88.3925843491042,144.504943677353,80.8397454022359,-0.0759427656144366,0.824143930829623,1.08649166158696,0.546479451072664,7.41176845326176,7.2587123473201,0.443390434150116,28.8516950189051,27.0448762072499,31.9658313183473,-5.79822327004591,-9.01411991171526,-2.36169935542124,9.2598732765019,12.3293693148057,223.133285091333,5.24748802185059,-0.838256895542145,-2.53632569313049,54.564998626709,113.610000610352,195.789993286133,0,0,0
