time,hip_angle_l,hip_angle_l_velocity,hip_angle_l_velocity_filt,hip_angle_l_torque_estimated,hip_angle_l_torque_desired,hip_angle_l_torque_measured,hip_angle_l_torque_interaction,knee_angle_l,knee_angle_l_velocity,knee_angle_l_velocity_filt,knee_angle_l_torque_estimated,knee_angle_l_torque_desired,knee_angle_l_torque_measured,knee_angle_l_torque_interaction,thigh_imu_l_accel_x,thigh_imu_l_accel_y,thigh_imu_l_accel_z,thigh_imu_l_gyro_x,thigh_imu_l_gyro_y,thigh_imu_l_gyro_z,shank_imu_l_accel_x,shank_imu_l_accel_y,shank_imu_l_accel_z,shank_imu_l_gyro_x,shank_imu_l_gyro_y,shank_imu_l_gyro_z,foot_imu_l_accel_x,foot_imu_l_accel_y,foot_imu_l_accel_z,foot_imu_l_gyro_x,foot_imu_l_gyro_y,foot_imu_l_gyro_z,insole_l_force_y,insole_l_cop_x,insole_l_cop_z,hip_angle_r,hip_angle_r_velocity,hip_angle_r_velocity_filt,hip_angle_r_torque_estimated,hip_angle_r_torque_desired,hip_angle_r_torque_measured,hip_angle_r_torque_interaction,knee_angle_r,knee_angle_r_velocity,knee_angle_r_velocity_filt,knee_angle_r_torque_estimated,knee_angle_r_torque_desired,knee_angle_r_torque_measured,knee_angle_r_torque_interaction,thigh_imu_r_accel_x,thigh_imu_r_accel_y,thigh_imu_r_accel_z,thigh_imu_r_gyro_x,thigh_imu_r_gyro_y,thigh_imu_r_gyro_z,shank_imu_r_accel_x,shank_imu_r_accel_y,shank_imu_r_accel_z,shank_imu_r_gyro_x,shank_imu_r_gyro_y,shank_imu_r_gyro_z,foot_imu_r_accel_x,foot_imu_r_accel_y,foot_imu_r_accel_z,foot_imu_r_gyro_x,foot_imu_r_gyro_y,foot_imu_r_gyro_z,insole_r_force_y,insole_r_cop_x,insole_r_cop_z
48.165,-60.9278621227099,-36.1573813866312,-56.6118332593785,0.246593422956553,-0.846507326253823,-2.15227601997933,-2.17354806170584,-85.1261721189862,84.5439456174603,59.6941659417003,-0.112504409995422,0.137063550135695,0.549799492904695,0.458205959619203,3.92597281073448,3.95720233050848,-1.12759922316384,-2.82974980237611,-12.4446317511799,85.3792367068889,-5.15334628060261,-2.35013229755177,1.29854472693035,-56.3620884773662,6.61889778196275,234.215919764711,-5.80493392538553,4.39087155378808,-0.844387005440708,-61.9325410595946,-66.2271602994754,250.081089163994,0,0,0,-4.69747238697978,54.8406365765466,54.4440900129471,0.0211187776475922,2.90303836564135,4.25079917881897,4.26655618962269,5.52488004332433,57.2806624098462,71.8617436380547,-0.302555543060933,-1.39560416901385,4.20453410014201,4.28941301502626,0.00841242937852191,6.31585993408663,-2.18493385122411,21.9279338425054,-14.293073138267,-123.907156454163,4.28315207156308,7.87296880885125,-0.0433268596986999,-1.8178027132594,-0.483090808165336,1.87861709795168,-2.12383915721921,9.01070672874172,-1.95859662213147,-3.41312659228196,-1.45497877848687,-2.51735766226121,721.748634651601,-0.115629873942082,0.188071258510279
48.17,-61.1976272423883,-30.4898740811986,-51.9652269577714,0.265285537198862,-0.766415997174954,-2.035092193848,-2.07538075450975,-84.2251590298619,88.9716853761404,65.7929182824039,-0.12526978216742,0.0543700619731802,0.575840343156103,0.477987695339827,4.18516066384181,3.93498622881356,-1.13500459039547,-3.25334899793074,-12.2282609390621,77.7483562344516,-5.02992349340863,-2.36000612052729,1.18993267419965,-55.2832818930041,5.35724262397991,234.666946246309,-5.98406761573196,4.67405635443448,-0.855028609642426,-59.3233834136453,-60.2312820132394,249.882376517998,0,0,0,-4.20650069780942,51.298444392946,55.089700961166,0.0234376324464883,2.75843583788894,4.10540437272938,4.14619445378445,5.94031704699701,48.4251833633065,69.1007745434797,-0.310313773031865,-1.59324454304993,3.7227783116384,3.86124029976898,-0.110073446327697,6.38003978342749,-2.17999693973635,21.6170912673502,-15.2042685301434,-117.66897261747,6.01107109227871,7.53479037193976,-0.105038253295687,-1.58009956755249,-0.833550574271679,-5.33780660761202,-2.12797755231404,8.96932277779346,-1.82971505298369,-4.11293386394077,-2.29301949882575,-1.01406813542553,702.988370998117,-0.114355500597987,0.190504598984821
48.175,-61.4673794989577,-24.8226370173884,-47.3188422185476,0.283976760152108,-0.686328487060852,-1.91791395534903,-1.9883331644305,-83.3241889034063,93.3992140085684,71.8913798185901,-0.138034545652971,-0.0283194831467943,0.601879951711428,0.521051724920142,4.44433615819208,3.91277118644067,-1.14240960451976,-3.676927995164,-12.0119004440725,70.1178396224222,-4.90650659133707,-2.36987947269302,1.08132580037667,-54.2045267489712,4.09564762502616,235.11795122178,-6.16319276451391,4.95722765208638,-0.865669706424526,-56.7143501791801,-54.235689626216,249.683673347143,0,0,0,-3.71555241945773,47.7564211103651,55.7352811249605,0.0257563766763018,2.61384020516455,3.96001649944571,4.04310041337741,6.35573424154307,39.5701265692486,66.3399370991571,-0.318071633070031,-1.79087549307428,3.24104549451512,3.45473170363,-0.228553672316402,6.4442165725047,-2.1750602636535,21.3062635139848,-16.1154204738323,-111.431086233754,7.73890772128059,7.19662806026368,-0.166746704331468,-1.34240775615542,-1.18399362953661,-12.5538862151543,-2.13211575007933,8.92794080014058,-1.70083962924736,-4.81270776695226,-3.13102025918368,0.489149710620191,684.229001883239,-0.113081188019358,0.192937823431303
48.18,-61.737144618636,-19.1551297119557,-42.6722359169406,0.302668874394418,-0.606237157981984,-1.8007301292177,-1.89305700924984,-82.423175814282,97.8269537672485,77.9901321592937,-0.150799917824969,-0.11101297130931,0.627920801962836,0.593240647749373,4.70352401129941,3.89055508474575,-1.14981497175139,-4.10052719071863,-11.7955296319546,62.4869591499849,-4.7830838041431,-2.37975329566855,0.972713747645978,-53.1257201646091,2.83399246704333,235.568977703378,-6.34232645486034,5.24041245273278,-0.876311310626244,-54.1051925332308,-48.23981133998,249.484960701147,0,0,0,-3.22458073028737,44.2142289267646,56.3808920731794,0.0280752314751979,2.46923767741214,3.81462169335611,3.93132509345499,6.77117124521575,30.714647522709,63.5789680045821,-0.325829863040963,-1.98851586711037,2.7592897060115,3.01497542819178,-0.347039548022621,6.50839642184557,-2.17012335216574,20.9954209388296,-17.0266158657088,-105.192902397061,9.46682674199622,6.85844962335219,-0.228458097928455,-1.10470461044851,-1.53445339564295,-19.770309920718,-2.13625414517415,8.88655684919232,-1.57195806009958,-5.51251503861108,-3.96906097952255,1.99243923745586,665.468738229755,-0.111806814675263,0.195371163905846
48.185,-61.8338587262017,-14.9523697456513,-37.523183111296,0.316261943535006,-0.494497552272342,-1.68018742945244,-1.79351413274121,-81.2309936607293,100.337357381557,82.7524063693195,-0.163268567776179,-0.205982415771185,0.565240407441776,0.575658521697124,4.66883482440576,3.92344670517029,-0.951892592452765,-6.57276320104364,-15.3952526465623,54.0696138280056,-5.07330187610885,-1.99922212575339,0.723008946434656,-50.376654669425,-0.332563912924534,234.811576196466,-8.32664073280829,3.91958505043009,0.402030091156226,-41.8293804497117,-61.9395084062144,245.508843322564,0.771847042391756,0,0,-2.85241614436979,38.7723859262324,54.0012139682641,0.0281945996202459,2.27135430249448,3.71146870424422,3.85958284694095,6.83216187977475,20.3405034025155,56.6769155091986,-0.333918246146227,-2.12826615478309,2.18858248046977,2.48303491076812,-0.270242472286207,6.97568104890968,-1.97446541592744,18.878574336839,-19.8223146831605,-95.2825421103494,10.3435948057831,7.00179658500373,-0.276310822543525,-1.50851139287465,8.44633312066698,-26.3382074166659,-2.13635754585266,8.88552284240723,-1.56873786449432,-5.53000020980835,-3.99000000953674,2.02999997138977,665,-0.111774973571301,0.195431962609291
48.19,-61.9261427454297,-10.7869416542301,-32.3610021684714,0.329725003062244,-0.381941424013659,-1.55955275568199,-1.69245640328456,-80.031291344223,102.798747754998,87.4806632532699,-0.175730223361773,-0.301271103669521,0.500283267547051,0.554352946828647,4.62661268606948,3.95775219256853,-0.748698551709372,-9.09762101050544,-19.0929476320322,45.6317019228365,-5.37413461175493,-1.6086673461427,0.469676116416905,-47.5846506143169,-3.54809250381332,234.023168983705,-10.3573138380747,2.55758665865474,1.71346707842984,-29.3052384039794,-76.1446185492699,241.435727059194,1.5635121361972,0,0,-2.48327805414932,33.2815939908407,51.543889698046,0.0282576068498309,2.07209580911008,3.60939321105385,3.78593800900132,6.88407201808584,9.9269327335512,49.6684009531451,-0.342015485740242,-2.2665397145756,1.61556776433119,1.94427483969039,-0.188437079259644,7.45331898883897,-1.77391025883006,16.715341323313,-22.66644483498,-85.2775894227917,11.198593107093,7.15749072011879,-0.323810728171854,-1.92877804761086,18.6923690055152,-32.8898061970888,-2.13635754585266,8.88552284240723,-1.56873786449432,-5.53000020980835,-3.99000000953674,2.02999997138977,665,-0.111774973571301,0.195431962609291
48.195,-62.0184223643134,-6.62171218135224,-27.199067371982,0.34318742063547,-0.26939066272657,-1.4389238340894,-1.58951180535974,-78.8316462326717,105.260020762886,92.208694681523,-0.188191284742923,-0.396555247953139,0.435329224979234,0.531258496327772,4.58439256099556,3.99205604419109,-0.545514199791115,-11.6223584281205,-22.7904663017007,37.1941923594519,-5.67495300290665,-1.21813118920889,0.216355365973348,-44.7927796892896,-6.76346776985989,233.234799364269,-12.3878901155181,1.19565321053721,3.0248415329461,-16.781693542209,-90.3490513553931,237.362805012697,2.35513948133328,0,0,-2.11415756540177,27.7910638708188,49.0866825994981,0.0283206110750659,1.87284681689359,3.50732258509088,3.70863491598254,6.93597968118529,-0.48614138903366,42.6602205814592,-0.350112339236622,-2.40480668112189,1.04258037103813,1.39988600867419,-0.106635586928915,7.93093415373774,-1.57336466472892,14.5522114584144,-25.5104393712097,-75.2731137976357,12.0535506398399,7.31317743132888,-0.371308368880021,-2.34902466293,28.9379163324822,-39.4410925800874,-2.13635754585266,8.88552284240723,-1.56873786449432,-5.53000020980835,-3.99000000953674,2.02999997138977,665,-0.111774973571301,0.195431962609291
48.2,-62.07613427979,-2.3690150122325,-22.0672318902795,0.355954009899678,-0.145120859051874,-1.31125306352161,-1.47722449606038,-77.5270526421055,106.763486677488,96.4803718648457,-0.20026031799807,-0.494564344667113,0.370128383056298,0.50582765742032,4.47960588982889,4.03947071132391,-0.312601383878706,-14.3039981412619,-26.0114140911305,29.188123855227,-5.97791288496349,-0.801148696355423,0.0244782212408613,-41.610008594762,-9.9830475729505,231.780234329695,-14.0419998168945,0.0862207040190697,4.09308862686157,-6.57999992370605,-101.919998168945,234.044998168945,3,0,0,-1.7851001269282,22.0289270907282,46.0952458567364,0.0280638506762515,1.69224257454996,3.3767745175888,3.59861949350514,6.83749827494142,-12.6223535116446,34.732783323821,-0.358647825387517,-2.54031951014761,0.468732543154895,0.848018293596372,-0.0235247827259257,8.36493241074752,-1.42996996033226,12.1330871075876,-27.9288593658894,-65.2756191025915,12.5777590921345,7.51239110620434,-0.435960948431928,-2.65622568706982,39.5170113050519,-45.3941345781554,-2.14389052927836,8.89747995366572,-1.57459684829681,-5.61911615017301,-3.86943137593537,2.43539014851764,671.440312207145,-0.11086986763259,0.194718098836173
48.205,-61.9819876739958,2.26680325684377,-17.0689316181391,0.365660789034739,0.0305945942252409,-1.15268277244142,-1.33140374037907,-75.7617930002613,104.059258572934,98.7463480341983,-0.210604207126249,-0.604517990949379,0.30386020440372,0.476985361494679,4.1000134793381,4.14446435677882,0.0508381580805541,-17.6741645385795,-27.1381265257367,23.0792818056513,-6.29020167657292,-0.268104034815194,0.102550419143225,-36.7109698673002,-13.2202685502556,227.399682740282,-14.0419998168945,0.0862207040190697,4.09308862686157,-6.57999992370605,-101.919998168945,234.044998168945,3,0,0,-1.63211009531212,15.0752000722282,40.7578966492372,0.0264025435270549,1.59358455651095,3.12116870111649,3.35887007928383,6.07843625923858,-32.3245800961542,22.7694144782512,-0.369107874703986,-2.66369954305788,-0.108747312569999,0.285158562570453,0.0653159941974585,8.60722543872037,-1.5376557505424,8.5900916642537,-28.4772592234411,-55.3113598726523,11.648969151572,7.90275209571613,-0.575952475705117,-2.46677846355197,51.5585427226868,-48.7177700784686,-2.18451130465001,8.96195734636357,-1.60619076686761,-6.09966394790693,-3.21927842781131,4.62141159478878,706.168979549919,-0.105989184515928,0.190868667829215
48.21,-61.8878365788303,6.90284258444224,-12.070393002559,0.375368031036575,0.206318426475856,-0.994104919953054,-1.18269424369445,-73.9964491821908,101.354901517538,101.012432256394,-0.220948589501727,-0.714476880360073,0.237588865759789,0.445579409686372,3.72040296802187,4.24946300884502,0.414295030617372,-21.0444916419387,-28.2648926875106,16.9701484565643,-6.60250535964158,0.264966044905452,0.180626339910397,-31.8116975296756,-16.4576438941134,223.018922264713,-14.0419998168945,0.0862207040190697,4.09308862686157,-6.57999992370605,-101.919998168945,234.044998168945,3,0,0,-1.47911276838195,8.12114146596325,35.4202929307845,0.0247411571585961,1.49492183397439,2.86555069610684,3.11413589183074,5.3193380477408,-52.0277461793326,10.805475160656,-0.379568422806842,-2.78708545933245,-0.686254705363021,-0.285579035237395,0.154161007484246,8.84953002041158,-1.64534667573849,5.04692727354276,-29.0256852313842,-45.3466254980263,10.7201349217557,8.29313169955196,-0.715950678460032,-2.27732220626255,63.6006483395215,-52.0415640660023,-2.2251340170192,9.02643781365933,-1.6377861919912,-6.58023466051366,-2.56909447721011,6.80753728127004,740.899302925658,-0.101108268664388,0.187019053262532
48.215,-61.7936899730361,11.5386608535185,-7.07209273041861,0.385074810171637,0.382033879752971,-0.835534628872872,-1.03095689135229,-72.2311895403465,98.6506734129838,103.278408425747,-0.231292478629906,-0.824430526642339,0.171320687107211,0.41143269026468,3.34081055753109,4.35445665429993,0.777734572576632,-24.4146580392563,-29.3916051221168,10.8613064069885,-6.914794151251,0.798010706445681,0.258698537812761,-26.9126588022138,-19.6948648714185,218.6383706753,-14.0419998168945,0.0862207040190697,4.09308862686157,-6.57999992370605,-101.919998168945,234.044998168945,3,0,0,-1.32612273676587,1.16741444746325,30.0829437232853,0.0230798500093996,1.39626381593538,2.60994487963453,2.86429949760105,4.56027603203796,-71.7299727638421,-1.1578936849137,-0.390028472123311,-2.91046549224272,-1.26373456108792,-0.864358128574471,0.24300178440763,9.09182304838443,-1.75303246594863,1.50393183020883,-29.5740850889359,-35.3823662680871,9.79134498119312,8.68349268906375,-0.855942205733221,-2.08787498274469,75.6421797571564,-55.3651995663156,-2.26575479239085,9.09091520635718,-1.669380110562,-7.06078245824759,-1.91894152908605,8.99355872754119,775.627970268431,-0.0962275855477253,0.183169622255574
48.22,-61.7438848876953,13.9910840988159,-2.80934592122737,0.390278496811676,0.575653113415952,-0.751648366451263,-0.950810467967188,-71.2973384857178,97.2200927734375,104.298985675084,-0.241278830452588,-0.937987480711378,0.136263743042946,0.405597309280919,3.17680199322396,4.36859775762306,0.874544830075351,-26.9117053469003,-27.9757552315445,5.57655547060722,-7.08690037372948,1.29506164790256,0.340252180088724,-23.1027735267683,-21.6544578248831,212.62942969204,-14.5438554489342,0.233857712729091,3.7474086887908,-11.5873710126768,-106.436293266259,229.222787836648,2.65498131352528,0,0,-1.24518852233886,-2.5112202167511,24.856628881325,0.0163563377795295,1.3177270595872,2.47472524642944,2.72975169581525,4.15871988296509,-82.1527709960938,-13.2090953712867,-0.399584074467339,-3.02036194746955,-1.56923079490662,-1.17915986880233,0.254348069064299,9.14179576439909,-1.89280448475393,0.217439243623587,-28.6828989829343,-27.2913287599227,9.08953860125044,8.97855479619517,-0.933450186864751,-2.63225713440132,83.5940362828512,-61.1231178592563,-2.28724384307861,9.12502479553223,-1.68609380722046,-7.31500005722046,-1.57500004768372,10.1499996185303,794,-0.0936456248164177,0.181133210659027
48.225,-61.7438848876953,13.9910840988159,0.626867899022019,0.390424225178137,0.789360514761371,-0.751648366451263,-0.951495833985922,-71.2973384857178,97.2200927734375,103.920749784525,-0.250862620499707,-1.05557982044881,0.136263743042946,0.431784798098532,3.25493264719236,4.2807007719086,0.671893446344798,-28.4278982074754,-23.7044922426084,1.21787778394407,-7.10154987134855,1.75163765703041,0.425707582866656,-20.516504194018,-22.1789460112451,204.792249895827,-15.6092952605869,0.547291171896723,3.01352997029696,-22.2180228760911,-116.024390501101,218.985232372119,1.92250643257151,0,0,-1.24518852233886,-2.5112202167511,19.7555460262172,0.00394813435176887,1.26179647999084,2.47472524642944,2.72549985819614,4.15871988296509,-82.1527709960938,-25.3577222787759,-0.408122923388144,-3.1151038463818,-1.56923079490662,-1.19612850351343,0.17865899803241,8.97576812471623,-2.06859845618283,1.46535941117446,-26.1750014481461,-21.3049291155845,8.64272892386864,9.16655668230664,-0.940774935674282,-4.000749298817,86.9519663955363,-69.6144007384611,-2.28724384307861,9.12502479553223,-1.68609380722046,-7.31500005722046,-1.57500004768372,10.1499996185303,794,-0.0936456248164177,0.181133210659027
48.23,-61.7438848876953,13.9910840988159,4.06324557477759,0.390569960493641,1.00307810672247,-0.751648366451263,-0.949257635503394,-71.2973384857178,97.2200927734375,103.542495857825,-0.260446867548878,-1.17317776756499,0.136263743042946,0.454820223572393,3.33306702681304,4.19279959483533,0.469232399203644,-29.9441633675527,-19.4330255789314,-3.14100774582083,-7.11620006752743,2.20823543793877,0.511167060576768,-17.9301115352778,-22.7034592077728,196.954696384493,-16.6747858776284,0.860739577106945,2.27961625687113,-32.8491816610572,-125.612944943383,208.747188730801,1.18999662362762,0,0,-1.24518852233886,-2.5112202167511,14.6542199264929,-0.008460660759909,1.20586323335049,2.47472524642944,2.71664837096192,4.15871988296509,-82.1527709960938,-37.5069284923023,-0.416662179483091,-3.20985026305186,-1.56923079490662,-1.22014874335736,0.102966317774873,8.80973256802228,-2.24440081032936,2.71333908567147,-23.6669843245193,-15.3182440103887,8.19589794041287,9.35456753326892,-0.948100033763714,-5.36930671964223,90.3100566307771,-78.1060885236255,-2.28724384307861,9.12502479553223,-1.68609380722046,-7.31500005722046,-1.57500004768372,10.1499996185303,794,-0.0936456248164177,0.181133210659027
48.235,-61.7438848876953,13.9910840988159,7.49945939502698,0.390715688860102,1.21678550806789,-0.751648366451263,-0.944311373398418,-71.2973384857178,97.2200927734375,103.164259967266,-0.270030657595997,-1.29077010730243,0.136263743042946,0.474596760592151,3.41119768078144,4.10490260912088,0.266581015473092,-31.4603562281278,-15.1617625899953,-7.49968543248399,-7.13084956514651,2.66481144706662,0.596622463354699,-15.3438422025274,-23.2279473941348,189.11751658828,-17.7402256892811,1.17417303627458,1.54573753837729,-43.4798335244715,-135.201042178224,198.509633266273,0.457521742673854,0,0,-1.24518852233886,-2.5112202167511,9.55313707138511,-0.0208688641876697,1.14993265375413,2.47472524642944,2.70365907514259,4.15871988296509,-82.1527709960938,-49.6555553997915,-0.425201028403896,-3.30459216196411,-1.56923079490662,-1.25036328038715,0.0272772467429834,8.64370492833943,-2.42019478175825,3.96125925322234,-21.1590867897311,-9.33184436605052,7.74908826303108,9.5425694193804,-0.955424782573245,-6.73779888405792,93.6679867434622,-86.5973714028302,-2.28724384307861,9.12502479553223,-1.68609380722046,-7.31500005722046,-1.57500004768372,10.1499996185303,794,-0.0936456248164177,0.181133210659027
48.24,-61.5297750659649,15.6949706874881,10.5571893247541,0.388027701848289,1.44591979742285,-0.64552252134396,-0.830820195356323,-70.7350286200369,93.1023669373146,101.760402426114,-0.275803012484743,-1.41628532354755,0.0553645326195762,0.410115776884178,3.74695296986148,4.13311741195989,0.186506170977542,-32.2449351000784,-10.8116890613057,-11.5769725141609,-7.23202284895557,3.14196164190734,0.578756504034367,-13.6978551543357,-23.8731705924393,179.560610757806,-18.947948347026,1.45858383778908,0.33751674005026,-48.0282107912883,-139.783932979676,187.398092545622,0,0,0,-1.37711513453028,-4.71207388832694,4.90145753825773,-0.0342518529375861,1.06497759086541,2.3616403389387,2.57402966046205,3.48394853484812,-82.0107805020842,-60.0413529289906,-0.424105476472728,-3.39519164348343,-1.72146047806724,-1.437931288735,0.168003669909274,8.67951851293268,-2.28460573611842,4.25821020393662,-18.8388676781416,-2.33337367564719,7.42151484302343,9.6768213809919,-0.98473732498804,-7.76850245917437,98.6227458344233,-94.8648271812856,-2.2903246376707,9.12810563730701,-1.71239920215987,-7.90721163064578,-1.69621293068867,10.0703454962372,801.816994696227,-0.0921585579821247,0.179839391643298
48.245,-60.9594591671322,20.2335462814224,12.9848140580019,0.380625355665513,1.70069204838681,-0.362839287793184,-0.538700937783896,-69.2372259789605,82.1341428157177,98.6503065839885,-0.27523321552611,-1.55496658122009,-0.160123507744769,0.207593841675981,4.51129829324082,4.354513988387,0.310382826835579,-31.8121640144698,-6.3310440621855,-15.1855675061902,-7.47714048714274,3.65328230651282,0.388988009953988,-13.6165072059131,-24.719189256035,167.14365991057,-20.3922460432958,1.69467097571918,-1.65975507859134,-42.4563971120745,-136.03864113642,174.83383731599,0,0,0,-1.72852285512806,-10.574401126561,0.998080532013844,-0.0492549775881973,0.931742742433224,2.06042052501917,2.25339228746904,1.68658667261507,-81.6325660158815,-67.4928575807924,-0.40698046674808,-3.47888751457322,-2.12694868911275,-1.88263944615831,0.668781640399176,9.05114848050676,-1.63095870095265,2.97291261885856,-16.8312003110703,6.34807938001931,7.29236684010761,9.72162783098309,-1.0506291632104,-8.2370666420889,106.233659888848,-102.758832096221,-2.29853082887997,9.136311954195,-1.78246784654884,-9.48466227287902,-2.01908291284247,9.85817394808425,822.638815574492,-0.0881975166278811,0.17639309689176
48.25,-60.389116072844,24.7723382968719,15.4125545522879,0.373222656502613,1.95547644813961,-0.0801425745211956,-0.244888752231375,-67.7393519153177,71.1653956754701,95.5400624372589,-0.274663391396767,-1.69365445189427,-0.37562182363438,0.00152199037870675,5.27568006434909,4.57592112208732,0.434265389739339,-31.3793722922161,-1.85018540396465,-18.7943345737043,-7.72226981373953,4.16462735339214,0.19921046678229,-13.5351553784218,-25.5652482619445,154.726116962298,-21.8366126107543,1.93076937144043,-3.65712213693627,-36.8843177414928,-132.293170699304,162.268982961126,0,0,0,-2.07994733256721,-16.4370079092726,-2.90548260636519,-0.06425881766128,0.79850154071085,1.75918634746348,1.93062473902063,-0.1108608966354,-81.2543334945595,-74.9447175568348,-0.389854640419087,-3.56258737669211,-2.53245623582233,-2.32988370160049,1.16958349043562,9.42279616921801,-0.977280496694565,1.687553744496,-14.823437208585,15.0299464098909,7.16321267878242,9.76643641756529,-1.11652414347835,-8.70565316843879,113.844936868934,-110.653213435977,-2.30673741140064,9.14451866240037,-1.85253983215398,-11.0621881356856,-2.34196829101851,9.64599228255263,843.461629339165,-0.0842362863917838,0.172946637804007
48.255,-59.8188001740113,29.3109138908062,17.8401792855357,0.365820310319838,2.21024869910357,0.20254065902958,0.050173469175947,-66.2415492742414,60.1971715538731,92.429966595133,-0.274093594438134,-1.8323357095668,-0.591109863998725,-0.208157156886985,6.04002538772844,4.79731769851443,0.558142045597376,-30.9466012066076,2.63045959515558,-22.4029295657336,-7.9673874519267,4.67594801799762,0.00944197270191142,-13.4538074299991,-26.4112669255402,142.309166115063,-23.2809103070241,2.16685650937054,-5.65439395557787,-31.3125040622791,-128.547878856049,149.704727731493,0,0,0,-2.43135505316499,-22.2993351475067,-6.80885961260907,-0.0792619423118911,0.66526669227866,1.45796653354395,1.60656128771365,-1.90822275886845,-80.8761190083569,-82.3962222086365,-0.37272963069444,-3.6462832477819,-2.93794444686785,-2.77819213237547,1.67036146092552,9.79442613679209,-0.323633461528801,0.402256159417936,-12.8157698415137,23.7113994655574,7.0340646758666,9.81124286755648,-1.18241598170071,-9.17421735135333,121.455850923358,-118.547218350912,-2.31494360260992,9.15272497928835,-1.92260847654295,-12.6396387779188,-2.66483827317231,9.43382073439969,864.28345021743,-0.0802752450375403,0.169500343052469
48.26,-59.3654351677965,31.7366346549167,20.0824293940805,0.3574040532071,2.46142404521661,0.49094619815834,0.35179978723827,-65.3646791991788,52.8716579265224,87.6469170119371,-0.273511756543558,-1.96359833027111,-0.750891594571527,-0.36581028112809,6.53733034447945,4.98965672251736,0.62465540037021,-30.9608374370348,3.31564772301329,-25.6613724392116,-8.01137839851919,5.16405598692275,-0.179915502776502,-13.1863522657091,-25.0411609194072,128.194837898228,-24.4709981859279,2.06526781052731,-5.88888979386549,-21.2038441840758,-106.565030193996,130.734146345034,0,0,0,-2.71620156349977,-24.0173974317204,-9.90421696233539,-0.0917270852515859,0.540201724798491,1.28290946573695,1.40817620141611,-3.11229905385129,-80.7177886962891,-85.9523768517686,-0.355571282273823,-3.72856154124665,-3.13861352412322,-3.02132035793791,1.68801425515036,10.166899925479,-0.203881703887126,-2.95289609585225,-9.46398818347661,28.3245150123801,6.04791653645522,10.1128492271449,-1.15137839851918,-9.20210466241622,129.226763523221,-118.162671437674,-2.31837892532349,9.15616035461426,-1.95194101333618,-13.3000001907349,-2.79999995231628,9.34500026702881,873,-0.078617051243782,0.168057635426521
48.265,-58.9963123703324,32.6408940664653,22.1910252681977,0.34825846715177,2.70998900807431,0.783448162705781,0.657955412669018,-64.9349545245188,48.1695086018547,81.65972752525,-0.272921296854612,-2.08950874261286,-0.870551494963854,-0.487062036438716,6.84232457510998,5.16105843890477,0.649861535133056,-31.2969192338728,1.26803825709249,-28.6674373998188,-7.91055385946778,5.63541070698814,-0.368961513497914,-12.784921230597,-22.0755502491602,112.859549983247,-25.4779565581857,1.72055973316082,-4.85416191138168,-7.82946921352034,-71.452883700109,107.152544967647,0,0,0,-2.95310042260767,-22.75143444786,-12.4175436451284,-0.102363850713788,0.421029355517721,1.19870434619449,1.30097690521776,-3.88910904265971,-80.7177886962891,-86.7035750542581,-0.338390337112167,-3.80981242617669,-3.19179569539802,-3.11520165516222,1.35781388975696,10.5399507199692,-0.468546118897105,-7.79807533360102,-5.14471472040963,30.0080358650597,4.44480636553765,10.599327628068,-1.05055385946776,-8.91270089291677,137.112238274959,-111.817571588111,-2.31837892532349,9.15616035461426,-1.95194101333618,-13.3000001907349,-2.79999995231628,9.34500026702881,873,-0.078617051243782,0.168057635426521
48.27,-58.6271719712853,33.5451965975318,24.2997216904945,0.3391124449901,2.95856582372696,1.07596407517962,0.964179068771108,-64.5052093584815,43.4671350556751,75.6722525400418,-0.272330809009656,-2.2154251589798,-0.99021710132635,-0.61204940331622,7.14733334935936,5.33246832856558,0.675068871847872,-31.6330170567372,-0.779668848877228,-31.6736457043275,-7.80972451260848,6.10678790355536,-0.5580165388591,-12.3834710532868,-19.1097981640703,97.5235308066225,-26.484962947151,1.37583521842475,-3.81938468800413,5.54554351274404,-36.339062887091,83.5698191039983,0,0,0,-3.19001057821356,-21.4854110966835,-14.9309901756485,-0.113001123389067,0.301851303514654,1.11449521133947,1.19489108812977,-4.66595607357337,-80.7177886962891,-87.4548090775574,-0.32120857267889,-3.89106718554691,-3.24498040265924,-3.20602612062596,1.02759777879275,10.9130193033486,-0.733223154402769,-12.6434856132285,-0.825235293227296,31.6916369962597,2.84161975047478,11.0858292266641,-0.94972451260847,-8.62328332322804,144.998089044757,-105.472169173107,-2.31837892532349,9.15616035461426,-1.95194101333618,-13.3000001907349,-2.79999995231628,9.34500026702881,873,-0.078617051243782,0.168057635426521
48.275,-58.2580491738212,34.4494560090804,26.4083175646117,0.32996685893477,3.20713078658467,1.36846603972707,1.27010920975008,-64.0754846838215,38.7649857310075,69.6850630533547,-0.27174034932071,-2.34133557132154,-1.10987700171868,-0.740731497945173,7.4523275799899,5.503870044953,0.700275006610719,-31.9690988535753,-2.82727831479803,-34.6797106649347,-7.70889997355707,6.57814262362075,-0.747062549580512,-11.9820400181747,-16.1441874938233,82.1882428916412,-27.4919213194088,1.03112714105826,-2.78465680552032,18.9199184832996,-1.22691639320402,59.988217726611,0,0,0,-3.42690943732147,-20.2194481128231,-17.4443168584415,-0.123637888851269,0.182678934233884,1.03029009179701,1.09065109494083,-5.44276606238179,-80.7177886962891,-88.2060072800469,-0.304027627517233,-3.97231807047695,-3.29816257393404,-3.29263726552693,0.697397413399354,11.2860700978389,-0.997887569412748,-17.4886648509772,3.49403816983969,33.3751578489393,1.23850957955721,11.5723076275872,-0.848899973557057,-8.3338795537286,152.883563796494,-99.1270693235444,-2.31837892532349,9.15616035461426,-1.95194101333618,-13.3000001907349,-2.79999995231628,9.34500026702881,873,-0.078617051243782,0.168057635426521
48.28,-57.8860387556586,34.910826638633,28.2717817154815,0.313930114335525,3.45299605792737,1.62190678005961,1.53642204924477,-63.758909212556,33.9135618239323,63.1525217019011,-0.269644420929867,-2.45212682877514,-1.24012118416464,-0.883622516247169,7.81928540129993,5.58254266170062,0.648854524209432,-32.1239281793377,-1.7494338671136,-37.8176852250061,-7.53359855400571,6.9105119404075,-0.925044791742735,-10.3638499620875,-16.2445881903553,67.4104467182926,-27.8804244995117,0.898132383823395,-2.38543963432312,24.0799999237061,12.3199996948242,50.8899993896484,0,0,0,-3.63482090870081,-19.8435067686378,-19.06044348788,-0.136297688066041,0.122229750413147,0.934399735972852,0.977210925973747,-6.22222612604176,-79.4803919909066,-87.5095089561309,-0.287324823736751,-4.04591836630895,-3.40000178911788,-3.42273161015447,0.486904866233353,11.560130115144,-1.17055247206604,-18.1269856725929,4.14043476601395,33.0956053061265,-0.198408675965822,11.8869944497188,-0.465076803232799,-8.5261107850306,145.553067275671,-98.8313950325765,-2.31837892532349,9.15616035461426,-1.95194101333618,-13.3000001907349,-2.79999995231628,9.34500026702881,873,-0.078617051243782,0.168057635426521
48.285,-57.5122434039775,35.0939677436331,29.9811255156841,0.293566040566634,3.69714647255714,1.85079214380159,1.77741241110919,-63.5134312321791,28.9687500415095,56.2779331959973,-0.266603018481213,-2.55341262287514,-1.37700360757896,-1.03664830961189,8.22513620097861,5.60296282772218,0.54930621485429,-32.1648945617884,1.29153221480203,-41.038273137667,-7.31152924852116,7.15555393266633,-1.09606368217337,-7.9814972595712,-18.2708484915695,52.9839775752772,-27.8804244995117,0.898132383823395,-2.38543963432312,24.0799999237061,12.3199996948242,50.8899993896484,0,0,0,-3.82450826195396,-20.026647873638,-20.1128823789192,-0.150227241670443,0.0986713159706371,0.831176924873528,0.859467597158759,-7.00329028065433,-77.465839835905,-85.903716625785,-0.270923653736167,-4.11470734961178,-3.53239626422354,-3.57746349116822,0.35162126634047,11.7719893376178,-1.28541590593736,-16.1227841926983,2.47972064666727,31.58300041564,-1.53082450887315,12.0937486306872,0.0964777623603231,-9.02085863462724,128.665463925426,-102.335596362204,-2.31837892532349,9.15616035461426,-1.95194101333618,-13.3000001907349,-2.79999995231628,9.34500026702881,873,-0.078617051243782,0.168057635426521
48.29,-57.1384302279031,35.2771175816982,31.6905508257718,0.273200995738958,3.94130852947458,2.07968842191883,2.01750538508702,-63.2679415462097,24.0237024662403,49.4030168760405,-0.263561471003593,-2.65470324677793,-1.5138925582177,-1.19299261218771,8.63100635361135,5.62338396747728,0.449753158548152,-32.2058628977168,4.33264330487568,-44.2590146237346,-7.08944935368438,7.40060760972761,-1.26709072762239,-5.59903095480883,-20.2972054148,38.5568205075496,-27.8804244995117,0.898132383823395,-2.38543963432312,24.0799999237061,12.3199996948242,50.8899993896484,0,0,0,-4.01420466042925,-20.2097977117031,-21.1653714553998,-0.164157459504191,0.0751117581465792,0.727949191604966,0.745180193971665,-7.78439168023159,-75.451191617189,-84.2978477233954,-0.254521701647462,-4.18349961311028,-3.66479705254626,-3.72577935190486,0.2163312154629,11.983858662577,-1.40028481705983,-14.1184871426601,0.818927336336891,30.0703233967432,-2.86330387789383,12.3005126707077,0.658059105625736,-9.51563007622472,111.777055291536,-105.839964789314,-2.31837892532349,9.15616035461426,-1.95194101333618,-13.3000001907349,-2.79999995231628,9.34500026702881,873,-0.078617051243782,0.168057635426521
48.295,-56.7646170518287,35.4602674197633,33.3999761358595,0.252835950911282,4.18547058639202,2.30858470003608,2.25661888691587,-63.0224518602403,19.0786548909712,42.5281005560837,-0.260519923525973,-2.75599387068072,-1.65078150885645,-1.35240593100902,9.03687650624409,5.64380510723238,0.350200102242014,-32.2468312336452,7.37375439494934,-47.4797561098023,-6.8673694588476,7.6456612867889,-1.43811777307141,-3.21656465004647,-22.3235623380304,24.1296634398219,-27.8804244995117,0.898132383823395,-2.38543963432312,24.0799999237061,12.3199996948242,50.8899993896484,0,0,0,-4.20390105890454,-20.3929475497682,-22.2178605318803,-0.178087677337939,0.0515522003225212,0.624721458336404,0.634663433463112,-8.56549307980885,-73.4365433984729,-82.6919788210057,-0.238119749558756,-4.25229187660878,-3.79719784086898,-3.86741636595681,0.0810411645853296,12.1957279875362,-1.5151537281823,-12.1141900926219,-0.841865973993491,28.5576463778465,-4.1957832469145,12.5072767107281,1.21964044889115,-10.0104015178222,94.8886466576446,-109.344333216425,-2.31837892532349,9.15616035461426,-1.95194101333618,-13.3000001907349,-2.79999995231628,9.34500026702881,873,-0.078617051243782,0.168057635426521
48.3,-56.6512182617188,35.5158271789551,34.3476180032529,0.234411522690774,4.39690445192077,2.37802195549011,2.33528897877412,-62.9479808807373,17.578540802002,37.1899636848512,-0.255985405255854,-2.82223443213318,-1.69230771064758,-1.41922447411843,9.12167308632555,5.8259553764146,0.40362235710793,-31.8914757442012,7.04669265741488,-50.7688794725059,-6.88710662198744,7.754842648795,-1.49522639731925,-0.3903635480566,-25.9257061219887,10.7800289646528,-27.8804244995117,0.898132383823395,-2.38543963432312,24.0799999237061,12.3199996948242,50.8899993896484,0,0,0,-4.26144676208496,-20.44850730896,-22.4119750919651,-0.19183479850552,0.0675543536452885,0.593406617641449,0.600013839556632,-8.80244554519653,-72.8253860473633,-81.0487974678414,-0.233507153459978,-4.25828373799502,-3.83736252784729,-3.910127656151,-0.132471111535094,12.2338680134038,-1.61968529758995,-10.4458379101283,-2.76519433362232,27.5202053996391,-4.06516534099719,12.4271451399406,1.49104368150541,-10.4443968914158,76.5789950764212,-111.794661016837,-2.32004791177974,9.29259906286008,-1.88059225768821,-12.2817237331818,-3.03170359504711,4.56458892546138,940.943165150196,-0.0620352904120366,0.158636032275396
48.305,-56.6512182617188,35.5158271789551,34.9635794941283,0.216830942675248,4.59410015469031,2.37802195549011,2.34359140680892,-62.9479808807373,17.578540802002,32.5207057728845,-0.250800410245359,-2.87321575224486,-1.69230771064758,-1.44692832163581,9.06665275409329,6.07854871984449,0.52366671834194,-31.3635028591442,5.25281987251372,-54.0880072586828,-7.0121528316062,7.8048611326425,-1.50272916989637,2.6292708471815,-30.2143279778023,-2.10127440644472,-27.8804244995117,0.898132383823395,-2.38543963432312,24.0799999237061,12.3199996948242,50.8899993896484,0,0,0,-4.26144676208496,-20.44850730896,-22.2322937345504,-0.205503124829581,0.100786133121073,0.593406617641449,0.600690951214791,-8.80244554519653,-72.8253860473633,-79.389254625651,-0.234028329023313,-4.23692737798506,-3.83736252784729,-3.90620671932358,-0.380062606580233,12.1963541505181,-1.71972226528495,-8.92367046958395,-4.80298441629834,26.689651562912,-3.29738161393802,12.2220693561658,1.63609728466318,-10.851954907951,57.6491602326536,-113.786137688543,-2.32244383100491,9.48846411791734,-1.77816730707904,-10.8199334759567,-3.36432655317914,-2.29794695347298,1038.47920865283,-0.0382312868414045,0.145110817593667
48.31,-56.6512182617188,35.5158271789551,35.5795116143432,0.199251200947916,4.79128645465121,2.37802195549011,2.35106599736635,-62.9479808807373,17.578540802002,27.8516705033892,-0.245615662469033,-2.92419464143339,-1.69230771064758,-1.47663665064786,9.01163504537487,6.33113001896086,0.643705355545756,-30.8355551492201,3.45903262417486,-57.4069767801359,-7.1371930786935,7.85487723147742,-1.5102315847216,5.64876125832676,-34.5027453408706,-14.9819635631911,-27.8804244995117,0.898132383823395,-2.38543963432312,24.0799999237061,12.3199996948242,50.8899993896484,0,0,0,-4.26144676208496,-20.44850730896,-22.0526209448143,-0.21917079941197,0.134016328018396,0.593406617641449,0.605315789118622,-8.80244554519653,-72.8253860473633,-77.7297909148187,-0.23454947973563,-4.2155720363024,-3.83736252784729,-3.89625100575986,-0.627642295813096,12.158842076392,-1.81975446295479,-7.40157560997801,-6.84067733179514,25.8591373291716,-2.52963449682196,12.0170033509427,1.78114397128446,-11.2594934910504,38.7202280130916,-115.777519401415,-2.32483963598636,9.68431983361472,-1.67574724036033,-9.35821292072743,-3.69693365097558,-9.16015560868624,1136.01060138092,-0.014428418308135,0.131586247829669
48.315,-56.6512182617188,35.5158271789551,36.1954731052185,0.18167062093239,4.98848215742075,2.37802195549011,2.35785150743001,-62.9479808807373,17.578540802002,23.1824125914225,-0.240430667458538,-2.97517596154507,-1.69230771064758,-1.50789875573264,8.95661471314261,6.58372336239076,0.763749716779766,-30.3075822641631,1.66515983927369,-60.7261045663127,-7.26223928831226,7.90489571532491,-1.51773435729872,8.66839565356486,-38.7913671966842,-27.8632669342886,-27.8804244995117,0.898132383823395,-2.38543963432312,24.0799999237061,12.3199996948242,50.8899993896484,0,0,0,-4.26144676208496,-20.44850730896,-21.8729395873996,-0.232839125736031,0.167248107494181,0.593406617641449,0.613710473864691,-8.80244554519653,-72.8253860473633,-76.0702480726283,-0.235070655298965,-4.19421567629245,-3.83736252784729,-3.88087417364175,-0.875233790858235,12.1213282135063,-1.91979143064979,-5.87940816943364,-8.87846741447116,25.0285834924446,-1.76185076976279,11.8119275671679,1.92619757444223,-11.6670515075856,19.790393169324,-117.768996073121,-2.32723555521153,9.88018488867198,-1.57332228975116,-7.8964226635023,-4.02955660910761,-16.0226914876206,1233.54664488355,0.00937558526249711,0.118061033147939
48.32,-56.298163739266,36.8793107221114,36.608593068855,0.182987944261086,5.1344599603993,2.55510931205185,2.54119668226362,-62.9147532091103,13.8971355843502,19.7801260324731,-0.232692470737207,-2.98760703645809,-1.80424028507811,-1.65216144027771,9.00081113361375,6.66570104377631,0.775295476969426,-29.7164641749641,0.769194399086543,-63.5653980563105,-7.48623409669212,7.7337659033079,-1.29765929272471,9.64593795297782,-42.3809139149016,-36.541493970126,-30.1879694360671,-1.3497896408477,0.447333502294045,20.6213667356702,4.67109929496962,22.3828797543192,0,0,0,-4.4483578519261,-21.5392939260074,-21.7977980158921,-0.241911762383567,0.176325975330276,0.528251829846766,0.560439632042825,-9.39640721127222,-72.2799929200708,-74.827300547592,-0.236113666092679,-4.07329515192037,-3.87077528194035,-3.89424815091082,-0.873986082982804,12.1651100898375,-1.91769408526768,-4.77457323519361,-10.2586585477655,25.0757335636168,-1.24304746326009,11.8070104377629,2.0194090460612,-11.4851293453014,11.7842721293588,-117.443657493155,-2.27607344538585,9.95799171681307,-1.55468131701399,-5.91191741867793,-4.5689804743413,-23.3627636321591,1287.70452303059,0.0263611148120469,0.112339757779832
48.325,-55.7923392109916,38.8327863927682,36.9339836792985,0.192481366729166,5.25828876887222,2.80882403003332,2.80081181528455,-62.8671476120777,8.62275177340657,16.925750888478,-0.223849125455181,-2.9833605412271,-1.96460713512301,-1.84541560647434,9.08793581554759,6.6738689827076,0.739901074933804,-29.0979864945696,0.26163934615405,-66.1972894897286,-7.7530534351145,7.4669465648855,-0.979109674404114,9.74005412173351,-45.6682572378683,-43.4018904140678,-33.4940107265056,-4.57040862577748,4.50587416503043,15.6661505026133,-6.28755210452147,-18.4595381300998,0,0,0,-4.71614712478773,-23.1020741509507,-21.7678795160186,-0.248996734726909,0.174954489118939,0.434903953796069,0.482095058017443,-10.2473816654968,-71.498603067251,-73.7645043544324,-0.237382515493086,-3.90929082009988,-3.91864604835923,-3.91828406620554,-0.765080230565508,12.24406683284,-1.87140909799032,-3.85021800634306,-11.3544396554211,25.5026176147586,-0.831927870384772,11.8886898270759,2.09019785013244,-11.0481614189357,8.50365138987459,-116.115947255351,-2.20173643734396,9.9847270225992,-1.57228746074701,-3.70112862953666,-5.19791175647212,-30.9099390177289,1323.09892506621,0.0403978528295593,0.109994396224936
48.33,-55.2865388017583,40.7861689165782,37.2593587742637,0.201974336525947,5.38211167286258,3.06252665023117,3.06022360879937,-62.819544285005,3.34861945892542,14.071511848581,-0.215006201847067,-2.97911424848014,-2.12496633845561,-2.03869463400215,9.17505634314794,6.68203653217012,0.704508360596162,-28.479538304814,-0.245891505221465,-68.8290554276559,-8.01986005089057,7.20013994910942,-0.660575245365334,9.83416580278328,-48.9554438116779,-50.2619597363024,-36.7998943762188,-7.7908740431417,8.56422130589657,10.7111705472711,-17.2456809667534,-59.3000085408451,0,0,0,-4.98392362875403,-24.6647798584314,-21.7379624427377,-0.256081369240176,0.173583068303663,0.341560528817089,0.406430109291809,-11.098315543026,-70.71725047315,-72.7017588381846,-0.238651304391424,-3.74529430843635,-3.96651453217434,-3.93945403053215,-0.656179571065073,12.3230198109778,-1.82512631770263,-2.92590685317574,-12.4501685133577,25.9294813109486,-0.420827880770608,11.9703653217012,2.16098327880773,-10.6112143283475,5.2231870789971,-114.788300326256,-2.12740297388571,10.0114610535758,-1.58989276497289,-1.49044525660696,-5.8268130495088,-38.4567545341691,1358.49163940385,0.0544339215385642,0.107649146503035
48.335,-54.7813080103488,42.7690568762439,37.607369277558,0.212363168317782,5.50278408322144,3.3163811921601,3.31974650637258,-62.7750950713363,-1.84440273152774,11.2273218293893,-0.205753409262471,-2.97395961221398,-2.28436668766955,-2.23052060986675,9.25987158790724,6.7044463604344,0.664927722336382,-27.862275199571,-0.792660444908289,-71.5319553606047,-8.27101115350746,6.97011263574992,-0.343900425594387,9.75098426623473,-52.0269293973555,-57.2395444926386,-39.7941729327539,-10.5811862987544,12.4349568643535,8.23148232479756,-27.8571906476067,-98.5959529784337,0.025682418550044,0,0,-5.25202596312854,-26.2206855168047,-21.72828494658,-0.262750940740365,0.169533367133709,0.24981568197878,0.334536503909687,-11.9459500838642,-70.0521627148471,-71.6727994708563,-0.239907969121228,-3.58018570415521,-4.01346915444216,-3.95780579098616,-0.552568241855016,12.4050722776636,-1.7809630906956,-2.02508769164431,-13.5598164816808,26.4157507962909,-0.0129373348987199,12.0612360581157,2.2323756237159,-10.151655360967,1.94106496428923,-113.498583163929,-2.0580638772167,10.0421249511342,-1.60818072284006,0.683651877363249,-6.47483183554201,-46.0502816865897,1393.52006897564,0.0684736346856573,0.105283302875492
48.34,-54.2992242788142,45.8973062815889,38.8362906067601,0.257623050359273,5.50052541606883,3.57566904664774,3.58478688818775,-62.8535727262147,-3.86856448733169,8.77992517473369,-0.180555210640659,-2.93343784204142,-2.40611924542897,-2.38368821809702,9.25474219743665,7.28150278837687,0.462316798747687,-27.2923429250599,-2.86658066604583,-77.0001389054971,-7.91195382056548,8.17295470110556,-0.100254378240887,2.76298132264606,-46.691730049849,-68.7806730514881,-30.6467684059154,3.38684813246873,8.99147383027925,102.160879340777,-24.9488262116425,-77.6629097635015,1.05156051266999,0,0,-5.5323076346886,-27.5087882994486,-22.5068899474431,-0.253242487478857,0.0611812874666902,0.220504877215005,0.326705550348732,-12.6634719163902,-73.9164695952482,-71.9616579060548,-0.240690044253425,-3.37207929197312,-4.02474247827279,-3.93952067543537,-0.655156051267005,12.6076832012523,-1.81943351922511,-2.04091914371406,-15.209453787349,29.2147515222231,0.269179140984257,12.5100577242931,2.32726934742199,-8.81231451586602,-1.39937142242851,-113.688560588766,-2.18337079356904,10.2257856450754,-1.65302093031821,1.42869582059344,-7.86617892731567,-55.4486074937485,1414.29410038157,0.0826285442374023,0.102119901638397
48.345,-53.817117559166,49.0257048571883,40.0652705369507,0.302885090613631,5.49826664121191,3.83496926525033,3.85001585341976,-62.9320541232921,-5.89282276508288,6.33241181621778,-0.155355810445311,-2.89291413959237,-2.5278776089467,-2.53535746982072,9.24961256237159,7.85858673319636,0.259696213677728,-26.7223834733863,-4.94059978185797,-82.4685832001652,-7.55287936601114,9.37585412386263,0.143403287349575,-4.22535484315155,-41.3562762939047,-80.3223519478778,-21.4989276860234,17.3555486279917,5.54782659406707,196.09475537049,-22.0403230906163,-56.7288683585348,2.07748752568242,0,0,-5.81260267145164,-28.7969525051425,-23.2855320760065,-0.243733580807723,-0.0471759589582161,0.191192674768489,0.319932327058342,-13.3810279638718,-77.7809607447296,-72.2505301154383,-0.241472156678795,-3.16396295625796,-4.03601633967071,-3.92118464267941,-0.757748752568241,12.8103037863223,-1.85790578221308,-2.05675135070499,-16.8591697558042,32.0138857182199,0.551309069562666,12.9589007924861,2.42216759612564,-7.47290980443314,-4.73996709751527,-113.878547072657,-2.30868368516893,10.4094550968581,-1.69786327599709,2.1737752911682,-9.25759236533375,-64.8473814591166,1435.06912239507,0.0967841287645683,0.0989563495548355
48.35,-53.3350338276314,52.1539542625333,41.2941918661528,0.348144972655121,5.4960079740593,4.09425711973797,4.11546254328978,-63.0105317781704,-7.91698452088683,3.88501516156218,-0.130157611823499,-2.85239236941981,-2.64963016670612,-2.68505824599853,9.24448317190099,8.43564316113883,0.0570852900890324,-26.1524511988752,-7.01452000299551,-87.9367667450577,-7.19382203306916,10.5786961892183,0.387049334703075,-11.2133577867402,-36.0210769463982,-91.8634805067273,-12.351523159185,31.3235830592148,2.10434355999279,290.02415238647,-19.1319586546521,-35.7958251436027,3.10336561980237,0,0,-6.0928843430117,-30.0850552877863,-24.0641370768696,-0.234225127546214,-0.155528038625234,0.161881870004714,0.313640767330313,-14.0985497963978,-81.6452676251308,-72.5393885506367,-0.242254231810991,-2.95585654407587,-4.04728966350134,-3.90362638351403,-0.860336561980231,13.012914709911,-1.89637621074259,-2.07258280277474,-18.5088070614723,34.8128864441521,0.833425545445643,13.4077224586635,2.51706131983174,-6.13356895933211,-8.08040348423302,-114.068524497494,-2.43399060152128,10.5931157907993,-1.74270348347524,2.91881923439839,-10.6489394571074,-74.2457072662754,1455.843153801,0.110939038316313,0.0957929483177402
48.355,-52.8629581211991,54.3726810846123,42.4915298563828,0.392341459242735,5.48138178598826,4.35221221184795,4.37981920584957,-63.0779149083595,-9.15089683131944,1.5979598505973,-0.105826563182027,-2.81050594099281,-2.76916014374536,-2.83016213722921,9.23806596278487,9.06433096383023,-0.120000000000005,-25.8866101134935,-8.73438128350663,-92.3183267384745,-6.70345003136107,11.813733535438,0.485339222245474,-17.2919941510959,-29.3254095652555,-101.708095156973,-4.14134854322294,42.5536513612182,-0.891619771442639,362.702201062497,-14.2420789860592,-16.6751331140425,4.96701860756847,0,0,-6.38012732610078,-31.6668222851866,-24.946399643659,-0.223288581536459,-0.272068711781535,0.140150034644322,0.31483532760149,-14.8241094024406,-85.4192085451943,-73.0355279491971,-0.239885334016824,-2.75913501419475,-4.0576285209263,-3.88664272779082,-0.889768555300009,13.270953272005,-1.92475047041606,-2.48994109797303,-20.0826229986346,38.092907751992,1.10983943131924,13.8826110181894,2.68288730922018,-4.89747175567793,-11.1036944115347,-114.589311940695,-2.55965693840142,10.7609171982717,-1.77024824973083,3.98581795952895,-12.025524845219,-84.2509175372577,1474.05525820615,0.124515587316926,0.0926763965964579
48.36,-52.4604659061803,50.2830998645027,43.4693868182324,0.429146658747227,5.38099333354869,4.60082710088857,4.63504877257913,-63.0683328754155,-4.90402367201256,0.423724647017279,-0.0875183382402531,-2.75917156148094,-2.87323147076681,-2.95707930679065,9.22272025925153,10.0508404766883,-0.120000000000005,-27.729718421467,-7.99822054963177,-89.1625788866433,-5.30260652310265,13.271575371106,-0.424441772945836,-17.06194392176,-13.1975352521662,-99.7837926504106,-2.43389704911848,34.791887937618,-0.782935129741907,287.976299011451,4.38760500307141,-10.1301904483542,12.6398703742421,0,0,-6.71553778404125,-35.2845293602534,-26.5471855790814,-0.202452461014177,-0.445352551563602,0.170985986658115,0.367951478537891,-15.6051358231575,-88.5650406389438,-74.9689570329873,-0.215665579669678,-2.64144119117119,-4.06148301451968,-3.86529640798725,-0.411859502404336,13.9132805770437,-1.88309784653984,-5.6916989956714,-21.1300281604345,44.7075284637205,1.34660171440518,14.5380917833996,3.3405603177922,-4.37782888470744,-11.9264622905713,-117.404044158452,-2.68776828190933,10.8186721951897,-1.67784005082005,7.2851444178138,-13.2992181214084,-98.4610389422353,1474.49370687853,0.134076113960103,0.0898859218055799
48.365,-52.0579544983612,46.193323633129,44.4472904090916,0.465953613303911,5.28060009409599,4.84945384510486,4.89043206754262,-63.0587503855532,-0.656948000991441,-0.750566549848875,-0.0692092402726365,-2.7078347340944,-2.97730776041889,-3.0809873640048,9.20737382395987,11.037397031152,-0.120000000000005,-29.5729146178725,-7.26202471200726,-86.0066805532971,-3.90169621576417,14.7294867238135,-1.33426615095128,-16.8318827225023,2.93110811696776,-97.8593983836788,-0.72636413536335,27.029754395119,-0.674245305425099,213.246833663373,23.0181773467864,-3.58493568774125,20.3130880200711,0,0,-7.05096423599527,-38.9024089453137,-28.1480478478181,-0.18161534692361,-0.618644654367927,0.201823409081141,0.419902002458911,-16.3861994870397,-91.7110227413764,-76.9024783121465,-0.191444670406011,-2.52374175592966,-4.06533769191421,-3.84655313266409,0.0660723395358707,14.5556385113945,-1.84144323646248,-8.89360956886917,-22.1774832676429,51.3224645929643,1.58337528747648,15.1936038051432,3.99826468743469,-3.85816123461955,-12.7492694032104,-120.218910596428,-2.81588573439361,10.8764299461489,-1.58542744543371,10.5846282041449,-14.572972133532,-112.671837955405,1474.93217645829,0.143637096496019,0.0870953139511955
48.37,-51.6554622833424,42.1037424130193,45.4251473709412,0.502758812808403,5.18021164165642,5.09806873414548,5.14583461141773,-63.0491683526092,3.58992515831544,-1.92480175342889,-0.0509010153308623,-2.65650035458253,-3.08137908744034,-3.20166667305075,9.19202812042652,12.02390654401,-0.120000000000005,-31.4160229258459,-6.5258639781324,-82.8509327014659,-2.50085270750575,16.1873285594815,-2.24404714614259,-16.6018324931664,19.0589824300571,-95.9350958771163,0.981087358741115,19.2679909715188,-0.565560663724367,138.520931612326,41.6478613359171,2.96000697794704,27.9859397867447,0,0,-7.38637469393574,-42.5201160203805,-29.7488337832405,-0.160779226401328,-0.791928494149994,0.232659361094934,0.470206649327467,-17.1672259077566,-94.8568548351258,-78.8359073959367,-0.167224916058865,-2.40604793290609,-4.06919218550759,-3.83075472342322,0.543981392431544,15.1979658164332,-1.79979061258625,-12.0953674665675,-23.2248884294428,57.9370853046928,1.82013757056242,15.8490845703534,4.65593769600671,-3.33851836364905,-13.572037282247,-123.033642814185,-2.94399707790152,10.934184943067,-1.49301924652294,13.8839546624298,-15.8466654097214,-126.881959360383,1475.37062513067,0.153197623139195,0.0843048391603175
48.375,-51.2529508755234,38.0139661816456,46.4030509618004,0.539565767365087,5.07981840220372,5.34669547836177,5.40113296473257,-63.0395858627469,7.83700082933656,-3.09909295029505,-0.0325919173632457,-2.605163527196,-3.18545537709243,-3.31900066430497,9.17668168513487,13.0104630984738,-0.120000000000005,-33.2592191222514,-5.7896681405079,-79.6950343681196,-1.09994240016727,17.645239912189,-3.15387152414803,-16.3717712939087,35.1876257991911,-94.0107016103845,2.68862027249624,11.5058574290199,-0.45687083940756,63.7914662642482,60.2784336796321,9.50526173856003,35.6591574325737,0,0,-7.72180114588975,-46.1379956054408,-31.3496960519772,-0.13994211231076,-0.965220596954319,0.26349678351796,0.518444106570658,-17.9482895716389,-98.0028369375584,-80.7694286750959,-0.143004006795198,-2.28834849766456,-4.07304686290211,-3.81810297111401,1.02191323437175,15.840323750784,-1.75813600250889,-15.2972780397653,-24.2723435366512,64.5520214339365,2.05691114363372,16.504596592097,5.3136420656492,-2.81885071356116,-14.3948443948862,-125.848509252161,-3.0721145303858,10.9919426940262,-1.4006066411366,17.1834384487609,-17.120419421845,-141.092758373553,1475.80909471043,0.162758605675112,0.0815142313059331
48.38,-50.9237225783713,33.2600239070728,45.8507137659096,0.554284286394587,4.91772261010843,5.49744775774409,5.5582612139553,-62.9508759277206,9.48791561124039,-2.97543816834426,-0.00608163546856908,-2.52560176636188,-3.17369409876653,-3.31710864743241,9.1313225377418,13.2189859299531,-0.0785598618662092,-33.8263893389933,-6.71916136839796,-75.2956870350062,-0.364298247660831,18.5659369531232,-3.50027183423946,-10.2517000982596,31.1489409079923,-85.5669540709169,2.78197596471859,8.40684822621118,-0.216341808090954,29.5000109652185,60.4466156942956,10.6386880396595,59.1675338917796,0.0152915596981446,-0.0196228025786077,-8.21202929568618,-49.6953803744099,-33.7525930713095,-0.129672532348431,-1.16480050865901,0.276923090219498,0.546838273578093,-18.9133275341882,-100.462774796952,-83.4627833050225,-0.133958215777712,-2.22753758775254,-3.98121920392325,-3.71297962287555,1.49245420818071,16.1945922486408,-1.66540775135918,-19.2289269770817,-22.3801205674801,69.8519981897882,2.02186620622071,16.9930566768556,5.72155773852582,-2.47321770907962,-18.2234848190235,-127.350341661633,-3.4249837440475,11.8699776527331,-1.54663017650218,20.1477605246612,-20.7788657519021,-177.385569476251,1426.82436941456,0.177058224318092,0.0778599328826689
48.385,-50.6509823602061,27.9934757133509,44.1182092591226,0.551969461988302,4.7080281605831,5.57273204843388,5.63941826542373,-62.8011354680552,9.13681230498981,-1.85079788070433,0.0267556329733946,-2.42426623618055,-3.07259797293343,-3.2225466782239,9.06281377604592,12.827507291691,-0.0051576171920575,-33.4095370852882,-8.93331138264287,-69.9370211069428,-0.14164477214924,19.0724124413748,-3.41218914063047,0.411259724775229,11.5568849838553,-72.0947725381307,1.63048715912645,8.90377562276976,0.125881845535321,26.3914254552566,46.3766289663445,7.59861161799573,94.8899596331988,0.0423772514202298,-0.0543803545784861,-8.82168181466748,-53.2064120368789,-36.7742216957692,-0.127551760202402,-1.38467041723709,0.276923090219498,0.559077035594861,-20.0203278581474,-102.393843564679,-86.7423483809361,-0.136614701695603,-2.21059393407987,-3.81559363606902,-3.53720476202309,1.95733509111698,16.3267162890543,-1.5332837109457,-23.7236817126839,-18.220660035945,74.1383267985379,1.77719205730688,17.3527276757589,5.93687098956999,-2.26177091372199,-24.3705452269203,-127.83968995946,-3.95121116721297,13.3806839981718,-1.87654783557899,22.8538564809781,-26.2766941766703,-230.711078653323,1339.72037240124,0.19501348366312,0.0735392482361897
48.39,-50.3782551470103,22.7271786424687,42.3857873626975,0.54965474795892,4.49834370983945,5.64801274937111,5.71983778209853,-62.6514021484078,8.78572574026634,-0.726211218864873,0.0595913356482191,-2.32293553794325,-2.97150666762893,-3.12480033930902,8.9943082810276,12.4360473201577,0.0682411274704275,-32.9927047081926,-11.1473558204042,-64.5786106941344,0.0809980866602955,19.5788637795459,-3.32411064703549,11.0737111099012,-8.03423673963687,-58.6232333943171,0.479053259542587,9.40067932452591,0.468089181039641,23.2829881708101,32.3073131322866,4.55868015515428,130.610682035607,0.0694616516254486,-0.0891362492470656,-9.43130526381667,-56.7172762841438,-39.7957062410459,-0.125431089180354,-1.60452984184089,0.276923090219498,0.56836039102384,-21.1272753974259,-104.324820253978,-90.0217570785799,-0.139271060945274,-2.19365108832507,-3.64997596567654,-3.36440409657165,2.42219380731269,16.4588340294468,-1.40116597055323,-28.218222126584,-14.0613978384043,78.4244510238903,1.53252957509861,17.7123815246051,6.15217397391327,-2.05033420070249,-30.5173125268442,-128.329014923877,-4.47741349847384,14.8913183091672,-2.20644976331597,25.5598234035377,-31.7742604505505,-284.034045130167,1252.6205287351,0.212967886854259,0.0692187696112939
48.395,-50.105514928845,17.4606304487468,40.6532828559105,0.547339923552635,4.28864926031412,5.72329704006089,5.79927808490872,-62.5016616887423,8.43462243401576,0.398429068775059,0.0924286040901828,-2.22160000776193,-2.87041054179582,-3.02409741076121,8.92579951933172,12.0445686818956,0.141643372144579,-32.5758524544876,-13.3615058346491,-59.219944766071,0.303651562171887,20.0853392677976,-3.23602795342651,21.7366709329361,-27.6262926637739,-45.1510518615309,-0.672435546049555,9.89760672108448,0.810312834665915,20.1744026608481,18.2373264043356,1.51860373349052,166.333107777026,0.0965473433475337,-0.123893801246944,-10.040957782798,-60.2283079466128,-42.8173348655056,-0.123310317034325,-1.82439975041896,0.276923090219498,0.574534901121045,-22.2342757213851,-106.255889021705,-93.3013221544935,-0.141927546863165,-2.17670743465239,-3.48435039782231,-3.19428240078399,2.88707469024897,16.5909580698603,-1.26904193013976,-32.7129768621862,-9.90193730686923,82.7107796326399,1.28785542618478,18.0720525235084,6.36748722495744,-1.83888740534486,-36.6643729347411,-128.818363221705,-5.00364092163931,16.4020246546059,-2.53636742239279,28.2659193598546,-37.2720888753187,-337.359554307238,1165.51653172177,0.230923146199287,0.0648980849648147
48.4,-49.9126706673241,14.5512470658228,38.0178869875145,0.54668434888149,4.04780045880374,5.72022785447684,5.79912037798132,-62.3874694913321,8.25115203857422,1.69026165275104,0.135501696041105,-2.08605511971475,-2.82240160565637,-2.97385554428867,8.47885883551067,11.5790624076041,0.0604949681884417,-32.4649552329042,-16.0710416976765,-57.0017800847092,-0.735580766324628,18.5354969940538,-3.04527831009976,29.154885755929,-39.7821795229016,-37.9270281535126,-1.47450230470002,10.0091805207899,0.997545828621531,16.6505271433807,8.55958579834791,-1.73155853484495,214.602163843231,0.114119274745442,-0.131599426302819,-10.6494913958614,-62.6923234827811,-45.9005427535915,-0.123688407745139,-2.0351303804867,0.238369191689848,0.538966677936629,-23.2848226608423,-107.894288814812,-96.2477861130769,-0.1371268715867,-2.17229805549019,-3.31491124142924,-3.02267436995263,3.10587971834996,16.3771348788314,-1.22521665808867,-37.6321220456468,-7.02454845914587,86.9457516920404,1.47466003788918,18.2435543534204,6.14231605689945,-1.47257389271283,-46.6104602249691,-129.497735586782,-5.27862310409546,17.1914501190186,-2.70876717567444,29.6800003051758,-40.1450004577637,-365.225006103516,1120,0.240305736660957,0.0626402944326401
48.405,-49.8072601797349,14.221693864496,34.3939352034431,0.547844901085368,3.77282646829959,5.63139370528205,5.71168408619071,-62.3121765362169,8.25115203857422,3.16522969499017,0.189783084329086,-1.91305159226087,-2.8324963953376,-2.97949959391747,7.61764703949889,11.0324799877353,-0.189830593852324,-32.6889411814966,-19.3230908500239,-58.2209441086929,-3.15616005431508,14.7346822676552,-2.74213175790361,33.0221874506124,-43.7997502717039,-37.5414320901131,-1.89417651983518,9.69896262112313,1.01514684032217,12.6717288264957,3.68857187134457,-5.21200256066579,276.609413156079,0.121279327651414,-0.109695147068416,-11.2568610500416,-64.0105354120183,-49.0514624233361,-0.126801757758676,-2.23587832751759,0.157610865684672,0.457997673994153,-24.2736814167379,-109.21250074405,-98.8299363800041,-0.124163208874734,-2.18160808353745,-3.14128085891216,-2.84878357575347,3.05535529298394,15.7846211631753,-1.27803764824406,-43.0162906073797,-5.55021056967714,91.1249325556498,2.13377413243685,18.20910588158,5.4349741017751,-0.936708775194375,-60.715904455944,-130.385173585636,-5.27862310409546,17.1914501190186,-2.70876717567444,29.6800003051758,-40.1450004577637,-365.225006103516,1120,0.240305736660957,0.0626402944326401
48.41,-49.7018547183943,13.8921563771307,30.7701562189036,0.549005397951071,3.49786558927695,5.54256379193264,5.62246786038707,-62.2368871712674,8.25115203857422,4.64012740688207,0.244061884338015,-1.74005631406922,-2.84259070367276,-2.98340850254824,6.75647630832575,10.4859236303507,-0.440144219713324,-32.9129164498511,-22.5749849361328,-59.4400499997364,-5.5766239227324,10.9340487740777,-2.43899966053067,36.8893047422014,-47.817129452189,-37.1558544129458,-2.31383072380235,9.38875951345997,1.03274701276038,8.69312022915664,-1.182209792931,-8.69228062978122,338.613705800545,0.128439039147273,-0.0877919122875327,-11.8642017432425,-65.3286844854512,-52.2022318489614,-0.129914959319513,-2.43661670235952,0.0768563904484273,0.373898697051387,-25.2624930212527,-110.530649817482,-101.41196352323,-0.111200164304228,-2.19091766765814,-2.9676587555474,-2.67635356391218,3.00483327675512,15.1921357001281,-1.33085611975602,-48.4002024378251,-4.07594298050831,95.3039141449476,2.79285679869468,18.174659052333,4.72766587457155,-0.400869209131079,-74.8206761023189,-131.272569269116,-5.27862310409546,17.1914501190186,-2.70876717567444,29.6800003051758,-40.1450004577637,-365.225006103516,1120,0.240305736660957,0.0626402944326401
48.415,-49.5964442308051,13.5626031758039,27.1462044348322,0.550165950154948,3.22289159877279,5.45372964273786,5.53119766751833,-62.1615942161523,8.25115203857422,6.1150954491212,0.298343272625996,-1.56705278661534,-2.85268549335399,-2.98613102774209,5.89526451231396,9.93934121048192,-0.690469781754089,-33.1369023984434,-25.8270340884802,-60.6592140237201,-7.99720321072285,7.13323404767903,-2.13585310833452,40.7566064368847,-51.8347002009913,-36.7702583495463,-2.73350493893752,9.07854161379321,1.05034802446102,4.71432191227163,-6.05322371993434,-12.1727246556021,400.620955113394,0.135599092053245,-0.0658876330531291,-12.4715713974226,-66.6468964146884,-55.3531515187061,-0.13302830933305,-2.63736464939042,-0.00390193555674806,0.286790851605607,-26.2513517771483,-111.84886174672,-103.994113790157,-0.0982365015922625,-2.2002276957054,-2.79402837303032,-2.50489686786402,2.95430885138911,14.599621984472,-1.38367710991141,-53.7843709995581,-2.60160509103958,99.483095008557,3.45197089324235,18.1402105804926,4.0203239194472,0.134995908387372,-88.9261203332937,-132.160007267969,-5.27862310409546,17.1914501190186,-2.70876717567444,29.6800003051758,-40.1450004577637,-365.225006103516,1120,0.240305736660957,0.0626402944326401
48.42,-49.4764907946833,13.8903336484055,23.746831056907,0.552648696221391,2.95644742251869,5.35666222123581,5.42939107591584,-62.0673821864459,9.06613204470735,7.61479406484522,0.353473803131343,-1.38335963226472,-2.86234806204703,-2.9878343437342,5.01873775895097,9.38693566235526,-0.881142656560513,-33.0797798429073,-28.0729853932259,-62.633076947598,-10.0893006984686,3.6105853095513,-1.83101188705513,43.3495873046093,-54.146728793897,-36.4320987654321,-3.07169902207086,8.77538583611173,1.08615028318175,1.34319232815037,-10.2046585595585,-14.1838335419264,459.911888245023,0.141640586590242,-0.0468657464788118,-13.1115805711035,-68.5298145832662,-58.517431574081,-0.134968775823083,-2.83542977244309,-0.0998244869910756,0.181703799012155,-27.27355930315,-113.423409000883,-106.524010738092,-0.0858321502086984,-2.19953224371911,-2.62313621072046,-2.33669585884964,2.83540069727873,13.9461510453231,-1.38425804071823,-58.8063437878131,-0.907277033064861,104.003938553801,4.06223426660794,18.0452244737688,3.34259230613627,0.641701632698117,-100.371148209406,-132.411456430511,-5.33178199408639,17.1982144840447,-2.73178063630079,29.0632513327257,-40.5618969116636,-367.207412937785,1112.50937042634,0.24090125052088,0.0619351546264804
48.425,-49.2528759637005,18.9033914811764,21.9484915124033,0.564556374285488,2.75081938637893,5.20090984526795,5.2663632357828,-61.8383130101588,15.6905296061872,9.29070916299747,0.414654681217935,-1.1234759177741,-2.86892915086933,-2.98650621200466,4.03308254304446,8.79304720315082,-0.646581668471367,-31.0188223825496,-23.1470198041197,-69.9865978113857,-9.83976773241633,2.07096690900871,-1.51410502016874,36.858649533348,-44.3009589234884,-36.4320987654321,-2.82905871122786,8.52258573625996,1.25169555300686,2.3038941939077,-9.22648943258225,-5.72092276980893,499.837162813389,0.139708326165259,-0.0483914483160178,-13.9842248935486,-74.4380623176331,-61.7767981497263,-0.128548434604311,-3.01436136370079,-0.303838253496604,-0.0340444456151937,-28.5334395347561,-116.825127104945,-108.681307512098,-0.0774153528738188,-2.12751433877634,-2.47177116780751,-2.18810271475694,2.22903558977168,12.8581873133352,-1.01245392130032,-61.2462216781022,2.35513544902611,110.960055064246,4.32424388096284,17.5187099153984,2.8759656596185,0.940525061180479,-92.8512720349165,-128.129347506897,-5.76387311114054,17.2531972355806,-2.91884082343072,24.0501340066596,-43.9505540956694,-383.320999651526,1051.62332670958,0.245741762597019,0.056203570566413
48.43,-49.0292504696673,23.9166883610997,20.1500662142614,0.576464620166002,2.54518154488721,5.0451500422639,5.10058775801815,-61.6092329107313,22.3152430513903,10.9667041769905,0.475838476708471,-0.86357981075501,-2.87551055351018,-2.98588534450332,3.04738032626931,8.19913042443567,-0.412009495365384,-28.9577666456452,-18.2208193208459,-77.3404693270671,-9.59022286740996,0.531275091919423,-1.19718304161066,30.3674022423799,-34.4547195585459,-36.4320987654321,-2.58640683010635,8.26977358166116,1.4172487168413,3.26464187063569,-8.24827366171079,2.74239155534711,539.764341214407,0.137775973600634,-0.0499172229061606,-14.8569108279494,-80.3465917861918,-65.0363201479351,-0.122127787232222,-3.19330148729321,-0.507861748377817,-0.252079833153405,-29.7933798436229,-120.227007419588,-110.838707156581,-0.0689981541848152,-2.05549299966711,-2.3203989070679,-2.03919277915006,1.62264156780621,11.7701717019074,-0.640632072440835,-63.6862159137199,5.61770349892416,117.916503276399,4.58626598921953,16.992170250235,2.40931676205659,1.2393627390276,-85.3310372758975,-123.847034391356,-6.19598483241561,17.3081826089634,-3.10590993050663,19.0367776306042,-47.339372867448,-399.435354740009,990.734379648029,0.250582505492483,0.0504717131963432
48.435,-48.8056356386846,28.9297461938705,18.3517266697576,0.588372298230099,2.33955350874745,4.88939766629604,4.93191478581323,-61.3801637344441,28.9396406128701,12.6426192751428,0.537019354795064,-0.603696096264386,-2.88209164233249,-2.98662854344861,2.06172511036279,7.60524196523124,-0.177448507276237,-26.8968091852874,-13.2948537317397,-84.6939901908548,-9.34068990135768,-1.00834330862317,-0.88027617472426,23.8764644711187,-24.6089496881372,-36.4320987654321,-2.34376651926336,8.01697348180939,1.58279398666641,4.22534373639302,-7.27010453473458,11.2053023274646,579.689615782773,0.13584371317565,-0.0514429247433666,-15.7295551503945,-86.2548395205588,-68.2956867235805,-0.11570744601345,-3.37223307855092,-0.711875514883345,-0.472051258500341,-31.053260075229,-123.62872552365,-112.996003930586,-0.0605813568499356,-1.98347509472435,-2.16903386415494,-1.88965347205724,1.01627646029916,10.6822079699195,-0.268827953022929,-66.1260938040089,8.88011598101513,124.872619786844,4.84827560357443,16.4656556918647,1.94269011553882,1.53818616750997,-77.8111611014083,-119.564925467743,-6.62807594946977,17.3631653604993,-3.29297011763656,14.0236603045381,-50.7280300514538,-415.54894145375,929.848335931272,0.255423017568622,0.0447401291362758
48.44,-48.5707888486621,33.5758779994165,16.9787809258875,0.601498747853518,2.18096566588706,4.73247353862973,4.7590503519431,-61.1228365526642,35.4165884606991,14.5429982106962,0.594775247422506,-0.337022248852965,-2.8715778770943,-2.97227798258312,1.18865361552811,7.11258250421958,0.0606975659589327,-24.9151674623307,-8.15071979903863,-91.7726531200888,-9.09576507950609,-2.20224049480324,-0.598922892422515,17.6255061322612,-15.536214777746,-35.8430140039065,-2.12917256355286,7.79339408874512,1.72920417785645,5.07499980926514,-6.40500020980835,18.6900005340576,615,0.13413479924202,-0.0527922734618187,-16.608449482276,-91.982493629991,-71.6195967623821,-0.108306279933458,-3.53349811312317,-0.91645384678382,-0.694171686272372,-32.3170064693748,-127.42938112232,-115.254902511257,-0.0514795409362182,-1.90646569180827,-2.03114047532682,-1.75269992063403,0.463035555654278,9.72107710757753,0.0920439504308452,-68.0140088416864,11.5436942116675,131.886709860641,4.9391681842409,15.9932680776406,1.47264402149771,1.83504831561598,-68.041536020934,-115.645466414862,-7.12469634228663,17.6808548085673,-3.4729191326932,9.36286508730179,-53.8682538764329,-427.570105896376,861.216698498712,0.259928274741205,0.0392865703016866
48.445,-48.2501341008992,35.4137528322831,18.8599183845311,0.623941250945436,2.38221825708652,4.56665227503614,4.57421536660535,-60.6494912675063,40.7631335097943,18.1593484507217,0.626312186976346,-0.0185257534272631,-2.73032277392019,-2.82978056104854,1.17701030469929,7.39435062627698,0.326165052855985,-23.540969295374,-1.34010168707098,-96.7462155235096,-8.88618548458738,-0.751483965532557,-0.589608243759456,13.2125475835612,-12.3795838419332,-30.7487061548534,-2.12917256355286,7.79339408874512,1.72920417785645,5.07499980926514,-6.40500020980835,18.6900005340576,615,0.13413479924202,-0.0527922734618187,-17.5347830020694,-96.3265610937434,-75.4357804923668,-0.0934065746637889,-3.55957845001306,-1.12526575231241,-0.921729283322206,-33.6098010986669,-134.279642105272,-118.289945343321,-0.0371422867685657,-1.79131183383733,-1.99633849338538,-1.71779183287079,0.316329839211177,9.73039175624058,0.369154748156704,-65.6795968927976,9.6261415393659,139.341303682647,3.72127787154659,15.9350515234965,0.976638980190078,2.11678768875773,-41.0693033799545,-114.501259572919,-8.11464781022849,20.0076590653496,-3.59840593848864,7.39863850828533,-55.1071029658681,-408.286455070209,733.373145598294,0.261867561623715,0.0359616660715431
48.45,-47.9294640627472,37.251715304024,20.7411455450229,0.646384824205829,2.5834804449953,4.40082310427249,4.38631757528046,-60.1761234109266,46.1099335083458,21.7758711360403,0.657850630365937,0.299985929471398,-2.58906093501087,-2.69039755007419,1.16536643866038,7.67613218441859,0.591645198543123,-22.1667055999175,5.47084118852797,-101.720015090747,-8.67659589588702,0.699341742915524,-0.580293150928324,8.79937860338202,-9.22280238249559,-25.6541553842492,-2.12917256355286,7.79339408874512,1.72920417785645,5.07499980926514,-6.40500020980835,18.6900005340576,615,0.13413479924202,-0.0527922734618187,-18.4611606939824,-100.670835703911,-79.2521461966843,-0.0785061589031907,-3.58566003054115,-1.33408761501545,-1.15011080189065,-34.9026573747393,-141.130229742222,-121.325132901094,-0.0228043489304078,-1.67615248476638,-1.96153485191496,-1.68177379370545,0.169617127120923,9.7397068490717,0.646278759882741,-63.3450736277126,7.70849742876038,146.7962529762,2.5033294838767,15.8768321933019,0.48061028693255,2.39854049661282,-14.0957845708075,-113.356998169589,-9.10464648390532,22.334574275556,-3.72389872810965,5.43431826532443,-56.346011129696,-389.001884705116,605.523496491072,0.263806940980922,0.0326366032936798
48.455,-47.6088093149843,39.0895901368907,22.6222830036665,0.668827327297748,2.78473303619475,4.2350018406789,4.1954740550503,-59.7027781257687,51.456478557441,25.3922213760658,0.689387569919776,0.6184824248971,-2.44780583183677,-2.55457900952695,1.15372312783156,7.95790030647598,0.857112685440175,-20.7925074329608,12.2814593004956,-106.693577494168,-8.46701630096831,2.1500982721862,-0.570978502265265,4.38642005468201,-6.06617144668282,-20.5598475351962,-2.12917256355286,7.79339408874512,1.72920417785645,5.07499980926514,-6.40500020980835,18.6900005340576,615,0.13413479924202,-0.0527922734618187,-19.3874942137757,-105.014903167663,-83.0683299266691,-0.0636064536335213,-3.61174036743104,-1.54289952054404,-1.37890893771086,-36.1954520040314,-147.980490725174,-124.360175733159,-0.00846709476275527,-1.56099862679543,-1.92673286997352,-1.64468956912911,0.022911410677822,9.74902149773474,0.9233895576086,-61.0106616788237,5.79094475645882,154.250846798206,1.28543917118239,15.8186156391579,-0.0153947543750794,2.68027986975458,12.876448070172,-112.212791327646,-10.0945979518472,24.6613785323383,-3.8493855339051,3.47009168630798,-57.5848602191311,-369.718233878949,477.679943590655,0.265746227863432,0.0293116990635363
48.46,-47.2881392768324,40.9275526086316,24.5035101641583,0.691270900558141,2.98599522410353,4.06917266991525,4.00186221404648,-59.229410269189,56.8032785559925,29.0087440613843,0.720926013309368,0.936994107795761,-2.30654399292745,-2.42263555607761,1.14207926179265,8.23968186461759,1.12259283112731,-19.4182437375044,19.0924021760946,-111.667377061406,-8.25742671226795,3.60092398063428,-0.561663409434133,-0.0267489254971334,-2.90938998724524,-15.465296764592,-2.12917256355286,7.79339408874512,1.72920417785645,5.07499980926514,-6.40500020980835,18.6900005340576,615,0.13413479924202,-0.0527922734618187,-20.3138719056887,-109.35917777783,-86.8846956309865,-0.0487060378729231,-3.63782194795914,-1.75172138324708,-1.60776952005722,-37.4883082801037,-154.831078362124,-127.395363290932,0.0058708430754026,-1.44583927772449,-1.8919292285031,-1.60668072050126,-0.123801301412432,9.75833659056586,1.20051356933464,-58.6761384137387,3.8733006458533,161.70579609176,0.0674907835125025,15.7603963089633,-0.511423447632607,2.96203267760966,39.849966879319,-111.068529924316,-11.084596625524,26.9882937425448,-3.9748783235261,1.50577144334707,-58.823768382959,-350.433663513856,349.830294483433,0.267685607220639,0.025986636285673
48.465,-46.951445909784,40.4581234996949,26.9266388046516,0.701531154250576,3.48910180431078,3.84572519650681,3.74816398960556,-58.6832107492615,56.8274882457808,33.0620441727494,0.755274042434776,1.36956670437466,-2.08259694336309,-2.21207987112247,1.49018597196974,8.7754429875983,1.42013283712126,-18.7222115325754,21.7154247355242,-112.040878935964,-7.56780178765423,5.68504329306989,-0.75084209054436,-1.23799336870082,-0.103976402571302,-13.7091984477836,-2.1806484666127,8.01837920157833,1.67107191221064,7.00102273991488,-4.45952258775416,23.6379986053461,649.833313613923,0.134414764134418,-0.052472871985016,-21.3985856161509,-111.863153818489,-90.893371538125,-0.0278617508377608,-3.48957580067677,-1.99424818904306,-1.87003754079701,-38.9988905834282,-158.048488962548,-131.553620410852,0.00968736679805088,-1.3399259634335,-1.92969368983828,-1.64056444521391,0.0760459713244087,9.9675176130191,0.90907820718289,-56.3309375245248,3.21748332249099,168.410260945568,-1.25243731916403,16.0260725387486,-1.32075313807533,0.205642513509134,51.6754184996755,-113.183673496488,-11.3261708195482,25.8431179768859,-4.43971429121085,4.01485210938247,-59.304398575836,-326.588417618548,296.428208796291,0.266332687543462,0.0236876847228879
48.47,-46.6112494625032,39.4870311550246,29.4677196204174,0.709143302083942,4.05785974616541,3.6097383064678,3.47985403626182,-58.1211456320533,55.6945473204159,37.2105367118781,0.790234880489115,1.8269617028071,-1.84066080399537,-1.98764895719829,1.91652407740046,9.36645136655518,1.72466005528606,-18.1735891093612,23.4281292546952,-111.414279721634,-6.77377526325414,7.90696410708716,-0.983185079218242,-1.75319716715064,2.62521128651427,-12.6787908508839,-2.24331842127257,8.29229002163743,1.60029808920334,9.34588242304424,-2.09097755758346,29.6619981148702,692.241548439836,0.13475561074555,-0.0520840128319042,-22.517785167968,-113.967187088524,-94.9440891488204,-0.00572403281396063,-3.30342151530097,-2.24411666084906,-2.13903398476086,-40.5568950714945,-160.476219393972,-135.956278655083,0.0112167153588008,-1.23601662493124,-1.98323693379671,-1.68989602676069,0.351248346258521,10.2201624162373,0.494018887610125,-53.9832791348317,2.83595402309841,174.951956743182,-2.59461283626077,16.3621803573157,-2.19824267782428,-3.21141186864189,60.2083073561635,-116.007547289072,-11.4050486184658,23.9430295280516,-4.9783517820476,7.49661334460729,-59.6202040635569,-301.75027870649,259.208215465037,0.26426393059684,0.021611680306794
48.475,-46.2710692366818,38.5159851145859,32.0086792707811,0.716755086950121,4.62659056814871,3.37376266890305,3.20998301094339,-57.5591073155851,54.5616604166478,41.358831439995,0.825194051518942,2.2843348914456,-1.59873620077773,-1.76722089314222,2.34284185391141,9.95743156468148,2.02917275279388,-17.624992845904,25.1407521076199,-110.787710385198,-5.97978660012262,10.1287789740887,-1.21551698916865,-2.26837639933124,5.3542688407682,-11.6484323865227,-2.30598538766453,8.56618778090978,1.52952764087765,11.6906302971099,0.277454534144066,35.6857103842879,734.647761129815,0.135096441104222,-0.0516951722206173,-23.6369313534131,-116.071120032731,-98.9946136106692,0.0164126296253448,-3.11727610625005,-2.49397321827056,-2.40713295514927,-42.1148252698179,-162.903834064838,-140.358726969014,0.0127459909961977,-1.13211224109894,-2.03677762467274,-1.73932707391872,0.626437598821142,10.4727951726883,0.0789793591550212,-51.6357326876521,2.45444291602413,181.493340615572,-3.93672435490638,16.6982721493799,-3.07569037656905,-6.62830331667208,68.7407893421166,-118.831286431943,-11.483922656283,22.0430316804212,-5.51696358923516,10.9782085603187,-59.9359944928434,-276.913324142082,221.989996880748,0.262195272293979,0.0195357748800392
48.48,-45.9308727894009,37.5448927699156,34.549760086547,0.724367234783488,5.19534851000334,3.13777577886405,2.9391292429687,-56.9970421983769,53.4287194912829,45.5073239791237,0.860154889573282,2.74172988987804,-1.35680006141001,-1.55047869787359,2.76917995934213,10.5484399436384,2.33369997095867,-17.0763704226899,26.8534566267909,-110.161111170867,-5.18576007572253,12.350699788106,-1.44785997784253,-2.78358019778106,8.08345652985377,-10.6180247896231,-2.3686553423244,8.84009860096888,1.45875381787035,14.0354899802393,2.64599956431476,41.709709893812,777.055995955728,0.135437287715355,-0.0513063130675054,-24.7561309052301,-118.175153302766,-103.045331221365,0.038550347649145,-2.93112182087425,-2.74384169007657,-2.67413714881018,-43.6728297578841,-165.331564496262,-144.761385213244,0.0142753395569476,-1.02820290259668,-2.09032086863117,-1.78937182741877,0.901639973755254,10.7254399759065,-0.336079960417743,-49.2880742979591,2.07291361663154,188.035036413187,-5.27889987200311,17.034379967947,-3.953179916318,-10.0453576988231,77.2736781986046,-121.655160224528,-11.5628004552006,20.1429432315869,-6.05560108007191,14.4599697955435,-60.2517999805643,-252.075185230023,184.770003549494,0.260126515347358,0.0174597704639453
48.485,-45.6223161973636,35.9555001188466,36.2579449159159,0.734131363970858,5.7340860692065,2.92099736128583,2.68720615085822,-56.4674777865179,51.8647266747398,48.6033396601465,0.891125716267612,3.24157530233566,-1.12113803759633,-1.34324093705505,3.21207097062768,11.0365826748174,2.45237363948112,-16.3564757292455,27.8305897468464,-108.034135149015,-4.57775234829282,13.9675003727449,-1.47295437602503,-2.13542696316914,7.58771561681454,-9.44925515446363,-2.36442670686885,9.17960219193415,1.3737191368637,15.2059973530039,3.61554624702139,43.1100098160743,829.70374235873,0.132610870396658,-0.0506720572698373,-25.8596179217078,-118.218196731256,-106.356204062507,0.0458487804463371,-2.72243001877255,-2.96530140706425,-2.91146189913978,-45.2551094151553,-167.314426975526,-148.939176976746,0.0116217803390399,-0.922677551178913,-2.09487544839742,-1.79160910155867,1.4272059042791,11.0438638735649,-0.528442671835373,-45.7121700747515,1.95510678911105,192.694247948062,-6.74591844341735,16.9408834053974,-4.19868644699568,-11.1082414356108,75.1906511899305,-125.278352081021,-11.6110553741455,18.9805297851562,-6.38512229919434,16.5900001525879,-60.4449996948242,-236.880004882812,162,0.258860915899277,0.0161897372454405
48.49,-45.3635852761508,33.3914873567658,36.6537175943644,0.747288158052107,6.22557847770837,2.73446435867558,2.46602437839204,-55.9890685749068,49.6212154014181,50.0410600366837,0.915812195225518,3.80838283951452,-0.895334905876307,-1.14845711553989,3.68110332488443,11.3626718353959,2.27816162218577,-15.3665720538888,27.6486018845245,-103.54234381989,-4.26283062472044,14.630846130908,-1.17143357685998,0.34622570485598,2.00951189746476,-8.06228705222293,-2.25476714894475,9.62251995245071,1.2661992767866,14.5259004222915,2.38042774716059,37.2236538723931,898.495154316386,0.124792581976495,-0.049650984962471,-26.9384779462449,-115.013180139649,-108.50150786784,0.0297617899509872,-2.4781940536202,-3.14201688322133,-3.10266860830698,-46.8758404543888,-168.596432930563,-152.763098312047,0.00237574349437927,-0.814592444072992,-2.02222575264395,-1.71843603728577,2.34740271358282,11.465992992396,-0.369865066348572,-40.2001437598823,2.25290510927407,194.387286546026,-8.40986655732818,16.1703302519756,-3.44823468018489,-8.46114525638406,56.3769665744468,-130.161693053324,-11.6110553741455,18.9805297851562,-6.38512229919434,16.5900001525879,-60.4449996948242,-236.880004882812,162,0.258860915899277,0.0161897372454405
48.495,-45.1048666919074,30.8275968535426,37.049471401333,0.760444324782884,6.7170474505623,2.54794025044845,2.24618339750201,-55.5106821751025,47.377811104602,51.4787118589401,0.94049749706732,4.37516334982245,-0.669542541042217,-0.955487869598599,4.15011331444758,11.6887454471874,2.10395791177661,-14.3767155797373,27.4666226998616,-99.0507666711633,-3.94792391744234,15.2941602590044,-0.86992715499797,2.82776004116891,-3.56842583849195,-6.67538508426138,-2.14511281987618,10.065416593486,1.1586845435386,13.8458359203856,1.14536814099138,31.3375786056117,967.28328611898,0.116974666352843,-0.048629961342512,-28.0172865279046,-111.808316371644,-110.646709379458,0.0136755665255635,-2.23396973427964,-3.31872393312072,-3.29245208960164,-48.4964942129128,-169.878377756191,-156.586837312742,-0.00686985247497882,-0.706512490748641,-1.94957952101865,-1.64769514522425,3.26755564548765,11.8881019830028,-0.211295022258181,-34.688380272894,2.55068922963163,196.080244415466,-10.073735329826,15.3998138405504,-2.69781869688385,-5.81417529765027,37.5641790448211,-135.044801175113,-11.6110553741455,18.9805297851562,-6.38512229919434,16.5900001525879,-60.4449996948242,-236.880004882812,162,0.258860915899277,0.0161897372454405
48.5,-44.8461357706946,28.2635840914618,37.4452440797815,0.773601118864133,7.20853985906417,2.3614072478382,2.02854140086278,-55.0322729634915,45.1342998312803,52.9164322354773,0.965183976025227,4.94197088700131,-0.443739409322198,-0.763384003455088,4.61914566870433,12.0148346077659,1.92974589448125,-13.3868119043806,27.2846348375398,-94.5589753420378,-3.63300219386996,15.9575060171676,-0.568406355832926,5.30941270919403,-9.14662955784173,-5.28841698202067,-2.03545326195209,10.5083343540026,1.0511646834615,13.1657389896731,-0.0897503588694187,25.4512226619305,1036.07469807664,0.10915637793268,-0.0476088890351457,-29.0961465524417,-108.603299780038,-112.792013184791,-0.00241142396978641,-1.98973376912728,-3.4954394092778,-3.48084877138613,-50.1172252521463,-171.160383711227,-160.410758648043,-0.0161158893196395,-0.59842738364272,-1.87692982526518,-1.58001353225984,4.18775245479137,12.3102311018339,-0.0527174167713807,-29.1763539580249,2.84848754979466,197.77328301343,-11.7376834437368,14.6292606871286,-1.94736693007306,-3.16707911842348,18.7504944293374,-139.928142147416,-11.6110553741455,18.9805297851562,-6.38512229919434,16.5900001525879,-60.4449996948242,-236.880004882812,162,0.258860915899277,0.0161897372454405
48.505,-44.5874171864511,25.6996935882386,37.84099788675,0.786757285594911,7.7000088319181,2.17488313961106,1.81400582971851,-54.5538865636872,42.8908955344641,54.3540840577337,0.989869277867029,5.50875139730924,-0.217947044488108,-0.571129571513914,5.08815565826748,12.3409082195574,1.75554218407209,-12.3969554302291,27.1026556528768,-90.0673981933114,-3.31809548659185,16.620820145264,-0.266899933970913,7.79094704550697,-14.7245672937985,-3.90151501405912,-1.92579893288352,10.9512309950379,0.943649950213507,12.4856744877672,-1.32480996503863,19.5651473951491,1104.86282987923,0.101338462309028,-0.0465878654151867,-30.1749551341014,-105.398436012033,-114.937214696408,-0.01849764739521,-1.74550944978673,-3.67214645917719,-3.66791755773191,-51.7378790106704,-172.442328536855,-164.234497648739,-0.0253614852889976,-0.49034743031837,-1.80428359363988,-1.51600721905225,5.1079053866962,12.7323400924407,0.105852627319011,-23.6645904710365,3.14627167015222,199.46624088287,-13.4015522162347,13.8587442757034,-1.19695094677202,-0.520109159689696,-0.0622931002882519,-144.811250269205,-11.6110553741455,18.9805297851562,-6.38512229919434,16.5900001525879,-60.4449996948242,-236.880004882812,162,0.258860915899277,0.0161897372454405
48.51,-44.2695677566725,28.657013254903,37.3904900785093,0.776199231370322,7.85089272673098,2.2739096455634,1.88899224846462,-54.097814576655,45.1687940965077,54.0670271156589,0.98017822192439,5.94609004608246,0.00172494304301776,-0.383719917744524,5.51320415016359,12.2006007404856,1.67092457379026,-12.3797072286109,27.7138244179545,-89.8839232981906,-4.00049009815742,15.2096802135354,-0.0146825383158341,8.50777201631918,-15.2750135532467,-1.79810286435911,-1.9085316841884,10.7288035417313,0.934845452869495,11.665170442826,-0.934203209420459,14.7285428809939,1102.61226967453,0.0991200566818495,-0.0457160747801686,-31.0189039317798,-102.7524538455,-114.299530545128,-0.0257551979683069,-1.64614611797114,-3.70526217181773,-3.71020026645807,-53.3059759126187,-175.506762854286,-166.477819058779,-0.0443152565414588,-0.398245316309568,-1.72406392567372,-1.44865852621616,5.10118873773032,12.6203365765455,-0.0790030136042628,-22.3302086455895,8.76262928734374,197.934052665259,-13.1931102979163,13.508764336146,-0.888236008265886,3.2936772775301,-10.211718934364,-150.308790051173,-13.6159941305736,17.5569838400611,-5.55793730507973,37.6752736768727,-76.3323474721119,-221.3553021395,142.428629240572,0.216287277578353,0.0135270872443628
48.515,-43.9459429244246,32.1549971228235,36.8571120030444,0.763318851123364,7.9684073966389,2.40090150268184,1.99674190363605,-53.6439522298659,47.8894485221378,53.6110448272085,0.967120406421585,6.37072658179458,0.220785920788196,-0.19449306194045,5.93392422937833,12.0146171861546,1.59508661959704,-12.4577298152294,28.4026523969581,-90.1224494915672,-4.78053762700191,13.5954151885655,0.23269364560013,9.05170090588839,-15.3329731890205,0.375383477157195,-1.9003149299505,10.4412172510309,0.935710378899844,10.830952881264,-0.384378027743515,9.9949903736801,1093.40337523678,0.0974502559239983,-0.0448589476028469,-31.8398033286611,-100.161354326919,-113.389287816226,-0.0321475737098622,-1.56097755454418,-3.72431095038549,-3.73738520813768,-54.8688426184749,-178.745636908109,-168.566216400261,-0.0642189802667452,-0.307713101231367,-1.64310661676071,-1.38528780311357,5.00368279662475,12.4560210091269,-0.29748854830376,-21.4050836899698,14.8996630290816,196.08603197078,-12.801280867918,13.1999955226451,-0.622803168589639,7.22155720958315,-19.5120112592933,-155.866227435173,-15.8172176613339,15.9940718451609,-4.64977037604056,60.8248088361721,-93.7750766610286,-204.310721163112,120.941208885827,0.169545653096489,0.0106037621214583
48.52,-43.6223026601595,35.6531477917487,36.3237084935004,0.750437856676785,8.08592767022188,2.52789941539406,2.11004242691463,-53.190068240697,50.6102326818972,53.155040795289,0.954061968258177,6.79538336625667,0.439857344433796,-0.00167907380579715,6.35466437058721,11.8286247632168,1.5192450490787,-12.535756122347,29.0915132226538,-90.3609870590411,-5.56062235233341,11.9810731875323,0.48008162562424,9.59565573265133,-15.3909355885936,2.54897346114841,-1.89209778389751,10.1536172468075,0.936575346174104,9.99669554012253,0.165473372291242,5.2612121473969,1084.19404167384,0.095780375541868,-0.0440017795535031,-32.6607418700465,-97.5701312520201,-112.479001682493,-0.0385402542712039,-1.47580492986293,-3.74336063729232,-3.76373134386483,-56.4317838494708,-181.984665407312,-170.654713326758,-0.0841236530990711,-0.217176569133707,-1.56214544740667,-1.32701501215409,4.90617220595831,12.2916976063372,-0.515984501463735,-20.4799146198607,21.0369894146486,194.237923153623,-12.4094327535733,12.8912119855347,-0.357357671775454,11.1496244421909,-28.8127470677152,-161.423929825009,-18.0185461572142,14.4310853229613,-3.74156014115383,83.9754478786988,-111.218637604711,-187.265327417614,99.4527639056311,0.122801799745019,0.00768029760009289
48.525,-43.2986778279116,39.1511316596692,35.7903304180356,0.737557476429828,8.2034423401298,2.65489127251251,2.22951757063128,-52.7362058939079,53.3308871075272,52.6990585068386,0.941004152755371,7.22001990196879,0.658918322178975,0.195800642106598,6.77538444980195,11.6426412088858,1.44340709488548,-12.6137787089656,29.7803412016574,-90.5995132524178,-6.3406698811779,10.3668081625624,0.727457809540204,10.1395846222205,-15.4488952243673,4.72245980266471,-1.88388102965961,9.86603095610704,0.937440272204453,9.16247797856052,0.715298553968186,0.527659640083096,1074.98514723609,0.0941105747840168,-0.0431446523761814,-33.4816412669278,-94.9790317334385,-111.568758953592,-0.0449326300127592,-1.39063636643597,-3.76240941586009,-3.78944163275244,-57.994650555327,-185.223539461136,-172.74311066824,-0.104027376824358,-0.126644354055506,-1.48118813849366,-1.27411409534889,4.80866626485275,12.1273820389186,-0.734470036163232,-19.5547896642409,27.1740231563864,192.389902459144,-12.017603323575,12.5824431720337,-0.0919248320992069,15.0775043742439,-38.1130393926445,-166.981367209009,-20.2197696879745,12.868173328061,-2.83339321211465,107.124983037998,-128.661366793628,-170.220746441226,77.9653435508869,0.076060175263155,0.00475697247718836
48.53,-42.9750375636465,42.6492823285943,35.2569269084915,0.724676481983249,8.32096261371279,2.78188918522473,2.35567510161162,-52.282321904739,56.0516712672866,52.2430544749192,0.927945714591963,7.64467668643088,0.877989745824574,0.398972189614958,7.19612459101083,11.456648785948,1.36756552436714,-12.6918050160832,30.4692020273531,-90.8380508198917,-7.1207546065094,8.7524661615292,0.974845789564314,10.6835394489835,-15.5068576239404,6.89604978665593,-1.87566388360662,9.57843095188361,0.938305239478713,8.32822063741902,1.26514995400294,-4.2061185862001,1065.77581367315,0.0924406944018865,-0.0422874843268375,-34.3025798083132,-92.3878086585401,-110.658472819858,-0.0513253105741009,-1.30546374175473,-3.78145910276692,-3.81472191494434,-59.557591786323,-188.462567960339,-174.831607594737,-0.123932049656683,-0.0361078219578461,-1.40022696913962,-1.226705159231,4.71115567418631,11.9630586361288,-0.952965989323208,-18.6296205941318,33.3113495419534,190.541793641986,-11.6257552092302,12.2736596349234,0.173520664714977,19.0055716068516,-47.4137752010664,-172.539069598845,-22.4210981838548,11.3051868058614,-1.92518297722793,130.275622080525,-146.10492773731,-153.175352695729,56.4768985706906,0.0293163219116858,0.00183350795582296
48.535,-42.4381690069841,49.0633270921524,35.915809640533,0.70697455844249,8.39508887882974,3.079141916201,2.65909399394211,-51.6691243774637,60.3956338165322,52.4996741169005,0.911334075916842,8.05719125823321,1.17266244156971,0.684293694140194,7.54005726108125,11.2860838853942,1.28568974525087,-13.3670390417167,31.8321094983373,-93.9779513618792,-7.74724101899648,7.79963449039728,1.02625232492529,11.0751179523062,-11.002799327439,10.3096045827441,-1.87051033973694,9.39805698394775,0.938847720623016,7.80499982833862,1.61000001430511,-7.17500019073486,1060,0.0913933962583542,-0.041749894618988,-35.1459826215691,-89.6490318521716,-108.885326277469,-0.0572800916348462,-1.24548812268265,-3.71081770449202,-3.75006903256915,-61.2859523253086,-188.794221176074,-176.61783366925,-0.129641431129996,0.0372010604773525,-1.33436915846629,-1.1998705653331,4.49723767528367,11.8199713694594,-1.0303655096027,-17.3494615874225,36.1418766226747,188.929885232735,-11.1929274205346,11.6895166245219,0.489494681406845,20.5412864676899,-49.4265947974822,-173.424696156872,-22.8576847675993,10.0684298437911,-1.45966789751889,126.599126574841,-158.057150634184,-123.711573086234,40.3858853524482,0,0
48.54,-41.5424965876385,60.3838913071649,38.5806785350593,0.681159641514767,8.39621856335209,3.66286930531978,3.25613899683647,-50.787819384821,67.4709866599019,53.9552443603731,0.888742409361287,8.44933054114553,1.59456437812081,1.10408267075053,7.75481306555765,11.1414524252367,1.19365154333242,-15.0471014576885,34.329207098888,-101.999505409152,-8.1153938266703,7.9596056508746,0.747946333409961,11.2103886782298,1.17697683472694,15.8097122987999,-1.87051033973694,9.39805698394775,0.938847720623016,7.80499982833862,1.61000001430511,-7.17500019073486,1060,0.0913933962583542,-0.041749894618988,-36.0272871962381,-86.6616603915653,-105.660276933649,-0.0624989124307814,-1.22789626405548,-3.48927102548117,-3.53442884629706,-63.2928353148604,-184.234549826672,-177.895747862198,-0.111469390517911,0.0815355291074957,-1.29391280838605,-1.20372157963423,4.08744853817055,11.7125934672212,-0.870394349125397,-15.4719039116021,33.4094079590168,187.715154113941,-10.691100081503,10.6420342312595,0.890518275480124,18.0523051106947,-39.1784846015061,-166.450137528248,-20.325326124465,9.38036316662995,-1.73888342166923,77.788200625551,-160.772277457027,-73.3513374715257,33.3734509205659,0,0
48.545,-40.6468241682928,71.7044555221774,41.2455474295857,0.655344724587043,8.39734824787443,4.24659669443855,3.86028184841642,-49.9065143921784,74.5463395032715,55.4108146038457,0.866150742805733,8.84146982405786,2.01646631467191,1.53158771945892,7.96956887003405,10.9968209650791,1.10161334141396,-16.7271638736603,36.8263046994387,-110.021059456425,-8.48354663434413,8.11957681135192,0.469640341894636,11.3456594041535,13.3567529968929,21.3098200148558,-1.87051033973694,9.39805698394775,0.938847720623016,7.80499982833862,1.61000001430511,-7.17500019073486,1060,0.0913933962583542,-0.041749894618988,-36.9085917709071,-83.6742889309589,-102.435227589829,-0.0677177332267167,-1.2103044054283,-3.26772434647032,-3.31882601897976,-65.2997183044123,-179.67487847727,-179.173662055146,-0.0932973499058259,0.125869997737639,-1.2534564583058,-1.21250428602004,3.67765940105742,11.605215564983,-0.71042318864809,-13.5943462357818,30.676939295359,186.500422995146,-10.1892727424714,9.59455183799711,1.2915418695534,15.5633237536994,-28.9303744055299,-159.475578899624,-17.7929674813307,8.69229648946876,-2.01809894581957,28.9772746762607,-163.48740427987,-22.9911018568172,26.3610164886836,0,0
48.55,-39.7511944569587,83.0244799429779,43.9102892561693,0.629531038582308,8.39847787853045,4.83029624990345,4.47123700851784,-49.0252514224708,81.6213549752487,56.8663154419091,0.84356015348013,9.23359040874002,2.43834813383141,1.9670287094397,8.18431443439008,10.8521964013291,1.00957952811852,-18.4071461798468,39.3232832318222,-118.042231014948,-8.85168188752588,8.27954034398448,0.191347620739387,11.4809236800139,25.5359483953662,26.8096654713409,-1.87051033973694,9.39805698394775,0.938847720623016,7.80499982833862,1.61000001430511,-7.17500019073486,1060,0.0913933962583542,-0.041749894618988,-37.789854322661,-80.687059916064,-99.2103320248253,-0.0729363051755798,-1.19271338562712,-3.04618823138657,-3.10334040857734,-67.3065056005162,-175.115424544965,-180.451515313791,-0.075126175784329,0.170202352383964,-1.21300203729051,-1.22570494686701,3.26788980376583,11.497842782805,-0.550459656015552,-11.716878086839,27.9446009229782,185.285749797919,-9.68746933188437,8.54711939144428,1.69254634176925,13.0744610778675,-18.6827528663436,-152.501352836261,-15.2607295877027,8.00426262113254,-2.29730115624093,-19.8313238399783,-166.20240163834,27.3667324496891,19.3489164280788,0,0
48.555,-38.855522037613,94.3450441579904,46.5751581506956,0.603716121654584,8.3996075630528,5.41402363902222,5.08860097941693,-48.1439464298282,88.6967078186183,58.3218856853817,0.820968486924576,9.62572969165235,2.8602500703825,2.41043129951421,8.39907023886648,10.7075649411716,0.917541326200057,-20.0872085958186,41.8203808323729,-126.063785062221,-9.2198346951997,8.43951150446179,-0.0869583707759375,11.6161944059376,37.7157245575321,32.3097731873968,-1.87051033973694,9.39805698394775,0.938847720623016,7.80499982833862,1.61000001430511,-7.17500019073486,1060,0.0913933962583542,-0.041749894618988,-38.6711588973299,-77.6996884554577,-95.985282681005,-0.0781551259715151,-1.17512152699994,-2.82464155237572,-2.88796383057832,-69.313388590068,-170.555753195563,-181.729429506739,-0.0569541351722441,0.214536821014108,-1.17254568721027,-1.24264940123759,2.85810066665271,11.3904648805668,-0.390488495538245,-9.83932041101865,25.2121322593204,184.071018679125,-9.18564199285279,7.49963699818187,2.09356993584253,10.5854797208722,-8.43464267036744,-145.526794207637,-12.7283709445684,7.31619594397135,-2.57651668039126,-68.6422497892686,-168.917528461183,77.7269680643976,12.3364819961965,0,0
48.56,-37.744982616158,100.787556621478,53.5415139900201,0.569973508086363,8.48625348838576,5.9855447548312,5.69949011950271,-47.0100394984401,97.329605226555,63.4929235139627,0.785302267774539,9.88006491443869,3.45518163782095,3.03452985804399,7.8507494194638,10.7715727253536,0.830325100274419,-20.8424147178633,38.5950476547901,-133.643372244245,-9.06903103229894,8.98957568081066,-0.349024699176683,13.5663296820147,46.2205307834046,38.4257369747483,-1.87051033973694,9.39805698394775,0.938847720623016,7.80499982833862,1.61000001430511,-7.17500019073486,1060,0.0913933962583542,-0.041749894618988,-39.4352232164387,-75.7020151203937,-92.3795526186778,-0.0822261920217135,-1.07854008672396,-2.57940873486698,-2.64897471429788,-70.9707434682582,-164.544789847981,-180.306947338582,-0.0417709810273473,0.142792014157962,-1.07908148512147,-1.2095213738017,2.67847371754272,11.4396748997256,-0.176854549292812,-9.89928511299279,19.8251745517948,183.102205646643,-9.34282035043275,6.41413341777498,2.18592569136586,7.43225253259732,0.893981448903705,-134.725676770994,-9.31926392774077,7.38196887631745,-3.27767473699575,-71.2562096249285,-139.293636347388,80.1902879453647,9.80557314756175,0,0
48.565,-36.5837813620853,106.081775792968,61.5211848802576,0.534362110136992,8.59304169370255,6.55422523476747,6.31244948539629,-45.8165836183011,106.329778381044,69.5391760812916,0.746555180653529,10.101965325566,4.09089288984902,3.70654421814259,7.12270869983347,10.8847141885394,0.744239204372192,-21.3798822160889,34.0220191105655,-141.119332586795,-8.79601576243756,9.63153050453874,-0.607282386883392,15.9439401402669,53.8604642610069,44.6870815020996,-1.87051033973694,9.39805698394775,0.938847720623016,7.80499982833862,1.61000001430511,-7.17500019073486,1060,0.0913933962583542,-0.041749894618988,-40.1717250731253,-73.9372760220718,-88.6839682755721,-0.0860272271627178,-0.963352664399503,-2.32858391026543,-2.40436368610431,-72.5458898801922,-158.191725340975,-178.248498000782,-0.0272907487662261,0.043708889349327,-0.973129604896676,-1.16591083714769,2.55303426922804,11.5257607956278,0.0494283770787821,-10.4154968344524,13.8128262665593,182.191243785244,-9.65518917270658,5.3196127413037,2.20560246757208,4.12242443617981,10.0066366024349,-123.022853391551,-5.70350129899671,7.62525816851586,-4.07823219623225,-62.9919639936186,-102.052878286743,71.3750931057071,8.32981493209486,0,0
48.57,-35.422635477136,111.375742522193,69.5004752788449,0.498752410232536,8.69982480707744,7.12287859852599,6.92932789141611,-44.6231846452707,115.329522383657,75.58514034743,0.707809941095323,10.3238551558993,4.72657382949619,4.38489633421868,6.39470269509536,10.9978502568433,0.65815741327141,-21.9173240864536,29.4492086203437,-148.594936455936,-8.52301351066077,10.2734547181761,-0.865527760185766,18.3214372278126,61.5000334465303,50.9481274721113,-1.87051033973694,9.39805698394775,0.938847720623016,7.80499982833862,1.61000001430511,-7.17500019073486,1060,0.0913933962583542,-0.041749894618988,-40.9081918114705,-72.1726210711415,-84.9885601476267,-0.089828081060391,-0.848170734513652,-2.07777104564978,-2.15957928996091,-74.1209611850113,-151.838963764758,-176.19014681525,-0.0128112069605817,-0.0553695109158782,-0.867182776735599,-1.1232856778639,2.42760080219546,11.6118425867286,0.275700513686578,-10.9316839415824,7.80076466586917,181.280325360897,-9.96754310041517,4.2251442544508,2.22527830553797,0.812754161052426,19.1188572406526,-111.32058803344,-2.0879110793042,7.86853586004232,-4.87875148278807,-54.7281124232295,-64.813895963178,62.5603185976745,6.85412708465273,0,0
48.575,-34.2614342230633,116.669961693682,77.4801461690824,0.463141012283165,8.80661301239422,7.69155907846226,7.54910420216141,-43.4297287651318,124.329695538146,81.6313929147589,0.669062853974313,10.5457555670266,5.36228508152426,5.0686695863714,5.66666197546503,11.1109917200291,0.572071517369183,-22.4547915846792,24.8761800761191,-156.070896798487,-8.24999824079939,10.9154095419041,-1.12378544789247,20.6990476860648,69.1399669241326,57.2094719994626,-1.87051033973694,9.39805698394775,0.938847720623016,7.80499982833862,1.61000001430511,-7.17500019073486,1060,0.0913933962583542,-0.041749894618988,-41.6446936681571,-70.4078819728196,-81.292975804521,-0.0936291162013953,-0.7329833121892,-1.82694622104823,-1.9143999217487,-75.6961075969453,-145.485899257752,-174.13169747745,0.0016690253005396,-0.154452635724513,-0.761230896510808,-1.08054571340599,2.30216135388078,11.6979284826309,0.501983440058172,-11.447895663042,1.7884163806337,180.369363499497,-10.279911922689,3.13062357797952,2.24495508174419,-2.49707393536508,28.2315123941837,-99.6177646539963,1.52785154943985,8.11182515224073,-5.67930894202458,-46.4638667919197,-27.5731379025323,53.745123758017,5.37836886918584,0,0
48.58,-32.5522709642868,110.103719013187,83.8461141914375,0.436392028407559,8.98150030186875,7.98875072130591,7.89911497667539,-41.0945329893135,127.308738557943,88.8692243490372,0.631268329959467,10.5524297903285,6.32664403036721,6.08533387996169,4.41308446663707,10.8517456278283,0.626743047136638,-21.5319163313546,19.3546999484751,-159.755448089718,-7.68397786606811,11.2821524168477,-1.21807672456218,22.9678261922344,78.7430292059013,59.8754910760528,-1.84137114592963,9.45543877549115,0.885500566773307,7.15642755164459,1.39380923495317,-6.27092962948639,1044.27703424518,0.0880801918457299,-0.0418452194527964,-42.8317635537424,-70.8955121793625,-78.7571692963926,-0.0934382400667414,-0.554304299139155,-1.63428664357989,-1.7267762033638,-77.7732361144423,-134.053232777188,-168.418197538878,0.0146472733047086,-0.308975521814226,-0.617233862493419,-0.998528126824764,2.29058959801225,11.3550025806916,0.488872297775807,-14.4040952604928,-0.617341151132188,176.882137598061,-10.5527935086603,2.48313079905416,2.17325695286336,-4.02737726303241,30.5863879667899,-89.7725713454168,2.45489501953125,8.17420196533203,-5.88456344604492,-44.3450012207031,-18.0249996185303,51.4850006103516,5,0,0
48.585,-30.6540541680887,99.4474244139544,89.6560661593755,0.412697196865593,9.17988019508867,8.1923487842211,8.15607766351172,-38.3655017245351,128.211814045919,96.5183907454178,0.593799837578444,10.4848918462766,7.40438652574874,7.21835486919705,2.9782151216526,10.4640791732184,0.729952947389898,-20.1054380351712,13.505828154538,-162.13291191669,-7.01688948638234,11.5540223980027,-1.25583644416702,25.1992236141508,89.0236178851488,61.3019693722362,-1.80218253668718,9.53261018322799,0.813755247385332,6.2841781103962,1.10305939369571,-5.05506661739822,1023.13159126646,0.0836243419713195,-0.0419734195563382,-44.1742708743203,-72.1598178625287,-76.6211056132074,-0.091870892352932,-0.35372115871034,-1.46167079281783,-1.5583475297362,-80.0235873400405,-120.868324891063,-161.444025509739,0.0271084512112998,-0.482624617939494,-0.460109164696576,-0.901029610087962,2.31828005905582,10.8641262258285,0.393214341443511,-18.201821791944,-1.77965679987421,172.506361038092,-10.8120769166137,1.98973712955073,2.07004705261009,-4.94417703944656,30.6112503336079,-80.5672800310483,2.45489501953125,8.17420196533203,-5.88456344604492,-44.3450012207031,-18.0249996185303,51.4850006103516,5,0,0
48.59,-28.7559278838493,88.7916379348149,95.4657410935557,0.38900349515538,9.37825062903465,8.39593713904633,8.4124109463778,-35.6366005871296,129.114846472885,104.16719240947,0.556333131793471,10.4173571226112,8.4820776315396,8.35295831699899,1.54341419500425,10.0764312035626,0.833157926324244,-18.6790277572167,7.65723525015813,-164.510262379947,-6.34983291522126,11.8258794156834,-1.29359436328934,27.430514637182,99.3037163589472,62.7283796501907,-1.76299579606047,9.60977791122957,0.742013349002477,5.41197026029035,0.812323416153737,-3.83926158084943,1001.98715655796,0.0791687045635253,-0.0421016135469625,-45.5167141806258,-73.4240632602819,-74.4851437831447,-0.0903036193743751,-0.15314758261208,-1.28906317283256,-1.3888453000185,-82.2738312629863,-107.684045695951,-154.470186027426,0.0395690349362247,-0.656265434020125,-0.302991959017691,-0.800101491528658,2.34596919974552,10.3732732772383,0.297560946333623,-21.9993672378272,-2.94191702635566,168.130793126632,-11.0713479612536,1.49636698635234,1.96684207367573,-5.86093310044128,30.636111514923,-71.3624276491285,2.45489501953125,8.17420196533203,-5.88456344604492,-44.3450012207031,-18.0249996185303,51.4850006103516,5,0,0
48.595,-26.8577110876512,78.135343335582,101.275693061494,0.365308663613414,9.57663052225457,8.59953520196153,8.66702347516858,-32.9075693223513,130.017921960861,111.81635880585,0.518864639412448,10.3498191785593,9.55982012692112,9.4878952727867,0.10854485001978,9.68876474895274,0.936367826577504,-17.2525494610333,1.80836345622106,-166.88772620692,-5.6827445355355,12.0977493968384,-1.33135408289419,29.6619120590985,109.584305038195,64.1548579463741,-1.72380718681801,9.6869493189664,0.670268029614501,4.53972081904196,0.521573574896273,-2.62339856876126,980.841713579239,0.0747128546891149,-0.0422298136505042,-46.8592215012036,-74.6883689434481,-72.3490800999595,-0.0887362716605658,0.0474355578167353,-1.11644732207051,-1.21804525632911,-84.5241824885845,-94.4991378098266,-147.496013998287,0.0520302128428159,-0.829914530145393,-0.145867261220848,-0.694715859046326,2.37365966078909,9.88239692237518,0.201902990001327,-25.7970937692783,-4.10423267509768,163.755016566662,-11.3306313692069,1.0029733168489,1.86363217342245,-6.77773287685543,30.6609738817411,-62.1571363347599,2.45489501953125,8.17420196533203,-5.88456344604492,-44.3450012207031,-18.0249996185303,51.4850006103516,5,0,0
48.6,-25.9371913383358,73.9394003411878,100.946396280813,0.348277406045793,9.75759144762863,8.70532018729559,8.82107450755251,-31.435749551404,128.46875217793,116.888002242155,0.484822064112348,10.1009770883623,10.0127795963381,9.99702355353717,-0.462695097185986,9.32467362924284,1.22920800696255,-15.7022531670051,3.12294462531381,-165.241573456253,-4.92632143893238,11.9234232666087,-1.38486800116041,29.2915936921352,112.74649990867,64.0735905618412,-1.71483409404755,9.70461940765381,0.653840363025665,4.34000015258789,0.455000013113022,-2.34500002861023,976,0.0736925899982452,-0.0422591678798199,-47.648041380216,-73.8072269972006,-71.5462214883158,-0.0849787916290771,0.151547253708237,-1.02134238240129,-1.1233028342711,-85.587737632228,-87.9682645186293,-138.050912726778,0.0590836840951554,-0.911827669376191,-0.170849633771923,-0.766076386871331,2.58394545982013,9.58033072236726,0.151447635625191,-26.359489554345,-4.07830032914649,160.819381319236,-10.9780301711633,0.692172903974463,1.89506527415142,-6.05101591292481,23.9062523504067,-53.4224141944865,3.19001736459713,8.03352743278284,-5.96125061960887,-42.0608119151196,-1.60025165404034,61.5925371011237,4.3881636205396,0,0
48.605,-25.3069790105913,71.6618451545392,98.7937955365204,0.333224097081502,9.9333903393166,8.78206239858307,8.9424421225481,-30.3372155602579,126.191199009466,121.19446579035,0.451794839869661,9.79827444081,10.2802139787855,10.3183900502949,-0.777482751226676,8.96756158474289,1.57838422825139,-14.1150885247832,6.56506712099685,-162.400352800423,-4.14332021543622,11.6165714357791,-1.44306403804189,28.1485738880659,113.794812357545,63.5445356811005,-1.71483409404755,9.70461940765381,0.653840363025665,4.34000015258789,0.455000013113022,-2.34500002861023,976,0.0736925899982452,-0.0422591678798199,-48.2724714840711,-72.2888582182244,-71.1392592150314,-0.0805706360536755,0.227014521065364,-0.949251376192895,-1.05001824537096,-86.2988942830518,-83.4131561635164,-127.871390815581,0.0645315672540776,-0.966501390469318,-0.249917177587965,-0.885379148730467,2.84847290019046,9.33432020282285,0.114413793973349,-25.9610655083551,-3.69947090836922,158.311269292021,-10.4436847416153,0.435581286815252,1.96648768305142,-4.83614914974255,15.1376575677606,-44.8269052678852,4.14350773634068,7.8510655429553,-6.06071771120286,-39.0981043811535,19.7034662203664,74.7025164000582,3.59458129942861,0,0
48.61,-24.6767967330246,69.3843985676993,96.6412974338805,0.31817150589849,10.109180848452,8.8588009506005,9.05942477308936,-29.2387339500956,123.913754440714,125.500723995061,0.418769190451704,9.49558622691433,10.5476356092597,10.6364388860022,-1.09225539536588,8.61046656828244,1.92754379990159,-12.5279995627368,10.0070254872456,-159.559267621452,-3.36035632749333,11.3097342364501,-1.5012572999836,27.0056085861806,114.843074820131,63.0155060270851,-1.71483409404755,9.70461940765381,0.653840363025665,4.34000015258789,0.455000013113022,-2.34500002861023,976,0.0736925899982452,-0.0422591678798199,-48.8968718134601,-70.7705618390564,-70.7323163467762,-0.0761626906707007,0.302478189945124,-0.877163807472877,-0.975152597021734,-87.0100170240601,-78.8582650079245,-117.692354290705,0.0699791906436331,-1.02117250457593,-0.328980951256009,-0.997903328104499,3.11298772719819,9.08832141370566,0.0773817181922697,-25.5626604602694,-3.32065955117297,155.80327685817,-9.90936479105965,0.17900190461776,2.03790668634352,-3.62134031459593,6.36948089472656,-36.2318061977081,5.09695264316093,7.66861235338952,-6.16018005994487,-36.1355381168581,41.0061682775943,87.8118705807732,2.80103681840542,0,0
48.615,-24.0465844052802,67.1068433810507,94.4886966895877,0.303118196934199,10.28497974014,8.93554316188798,9.17145835538259,-28.1401999589496,121.636201272249,129.807187543256,0.385741966209017,9.19288357936199,10.8150699917071,10.9503072646941,-1.40704304940657,8.25335452378249,2.27672002119042,-10.9408349205148,13.4491479829287,-156.718046965622,-2.57735510399717,11.0028824056205,-1.55945333686508,25.8625887821113,115.891387269006,62.4864511463444,-1.71483409404755,9.70461940765381,0.653840363025665,4.34000015258789,0.455000013113022,-2.34500002861023,976,0.0736925899982452,-0.0422591678798199,-49.5213019173152,-69.2521930600802,-70.3253540734917,-0.071754535095299,0.377945457302251,-0.805072801264484,-0.898754197100646,-87.7211736748838,-74.3031566528116,-107.512832379508,0.0754270738025553,-1.07584622566906,-0.408048495072052,-1.10318973453361,3.37751516756852,8.84231089416125,0.0403478765404273,-25.1642364142795,-2.9418301303957,153.295164830955,-9.37501936151159,-0.0775897125414506,2.10932909524351,-2.40647355141367,-2.39911388791951,-27.6362972711068,6.05044301490448,7.48615046356198,-6.25964715153885,-33.172830582892,62.3098861520011,100.921849879708,2.00745449729443,0,0
48.62,-23.3295577130433,67.08544921875,89.2526541359835,0.296507198445739,10.3128034561877,9.16414848927396,9.43000921576451,-26.9504842492736,118.76806318694,129.131929877834,0.353447680116937,8.77043569171451,10.7013146150722,10.8781106746706,-0.788404084646942,8.19180804196694,2.16890626193688,-11.6606728707877,16.7829444203938,-154.62100441117,-2.45890626193689,10.9127120629504,-1.45419643993991,22.8344910649528,110.039586718893,61.1393437288673,-1.71483409404755,9.70461940765381,0.653840363025665,4.34000015258789,0.455000013113022,-2.34500002861023,976,0.0736925899982452,-0.0422591678798199,-50.1168656574237,-63.9240090127977,-69.3540672020588,-0.067945421194572,0.262476285350033,-0.634644847658172,-0.722632364240977,-88.3522403734153,-66.2894869240979,-98.3592077675739,0.0799679016976086,-0.943886517696088,-0.63900116802206,-1.35282654443077,3.60218747612621,8.36388397972955,0.129933026051097,-23.3709768236749,-1.89003263026878,148.879450978987,-8.63995543558533,-0.220189717079622,2.11529017800301,-0.0471370468144696,-8.7905085813614,-20.2146171908919,6.26592193826118,6.71346206998239,-5.77468384328885,-18.4806268921711,73.7119536539848,114.265151868351,2.79352670045074,0,0
48.625,-22.611673243946,67.08544921875,83.9871192323752,0.289975940217472,10.3392252618723,9.39420494014116,9.68445114894649,-25.7598465932099,115.89418651654,128.409398007312,0.321158789929813,8.3468319236306,10.5839389371995,10.7969576937839,-0.160883648679633,8.13306144796148,2.05675367338103,-12.4024227950989,20.115874080299,-152.530917957777,-2.34675367338102,10.8245921719423,-1.3473844508391,19.7883713757813,104.122070656054,59.7844138671254,-1.71483409404755,9.70461940765381,0.653840363025665,4.34000015258789,0.455000013113022,-2.34500002861023,976,0.0736925899982452,-0.0422591678798199,-50.7121843262933,-58.559439975051,-68.3773820812417,-0.0641418046509265,0.14519090334121,-0.463276160125269,-0.544412358741302,-88.9825779560373,-58.2426338767971,-89.2148711186392,0.0845003465629572,-0.810150611338885,-0.871405286197463,-1.59626239436807,3.82649265323794,7.88323002877588,0.220723216786786,-21.5644036746857,-0.831802738251414,144.445434764771,-7.90295271078969,-0.361715602638213,2.12063077745805,2.32316604465119,-15.1596679314472,-12.8037112804402,6.47441266596905,5.93513935900447,-5.28415503238757,-3.67648506018837,85.0206725925785,127.611308765623,3.59461661870687,0,0
48.63,-21.8938230054643,67.08544921875,78.7218354032901,0.283444993416739,10.3656458076958,9.62425042131301,9.93327943833977,-24.5692657098744,113.020446880121,127.686900589006,0.288871439361715,7.92324835408608,10.4665688561071,10.7102375559218,0.466606865466392,8.07431765514781,1.94460643255495,-13.1441373508271,23.4486448173708,-150.440931165192,-2.23460643255492,10.7364764827218,-1.24057755481425,16.742396933591,98.2048367559118,58.4295486119953,-1.71483409404755,9.70461940765381,0.653840363025665,4.34000015258789,0.455000013113022,-2.34500002861023,976,0.0736925899982452,-0.0422591678798199,-51.3074746088064,-53.1951267340352,-67.4007435313344,-0.0603383694737002,0.0279111138072116,-0.291915643901136,-0.365351383590194,-89.612885482509,-50.1961645245683,-80.0709704956748,0.0890325753094394,-0.67642108186068,-1.10379832273458,-1.8320885575084,4.05078713489014,7.40259899666405,0.311509078407905,-19.7579166678456,0.226376694587426,140.011629976085,-7.1659851282182,-0.503234739871153,2.12597112225929,4.6933561138447,-21.5285235832996,-5.39315874143177,6.68289345229184,5.15685376049609,-4.79364961118736,11.126950871459,96.3288523017739,140.956829283107,4.39566833889327,0,0
48.635,-21.1985627216557,66.8428823770738,74.0482185346812,0.277868529635323,10.3373915007612,9.83881700320733,10.1611408723583,-23.4301728024652,110.318785199289,126.352951230176,0.258044689622504,7.48745335624172,10.3001531513147,10.5688784309486,0.981245323637126,8.02323847153487,1.84850540160934,-13.7963616863736,25.9779885817743,-148.735645014367,-2.11889696906051,10.6544484845303,-1.14377233168378,14.0395874931389,93.0846220526456,57.1619889668222,-1.72487436502945,9.72372835261228,0.648820223504526,4.07258169083097,0.447900406935005,-2.86090467435627,972.484005198147,0.073413973735915,-0.0423466767985439,-51.8600255715954,-48.7115460835451,-65.9315333011854,-0.0564295358464744,-0.103899878064572,-0.138266143803515,-0.203527608977628,-90.1534294842593,-41.9911356829684,-71.2551550686704,0.0917521560023774,-0.523878400037352,-1.29279258322515,-2.017133312195,4.26056917079064,7.06028458539533,0.399608432548795,-18.4184349132127,0.923685809348484,136.049781538801,-6.510605531563,-0.681672201730104,2.05562318688386,7.11840076776214,-26.3158034447201,2.77358973374164,6.75046138187826,4.39966045634816,-4.24271425134006,25.0756787865334,104.055378619832,152.071002432574,4.79715414604691,0,0
48.64,-20.5728211590989,65.8553325349477,71.1927800000968,0.275224788104423,10.1412120159626,10.005799381636,10.3361822372074,-22.4494433895306,108.146175546611,123.141221401214,0.231710075869235,7.01423626324422,9.98312894393008,10.2714944809937,1.14916527743138,7.99571061025713,1.80170803743716,-14.1735953409205,26.039161606836,-148.212275799951,-1.99226880718288,10.5911344035915,-1.07770546461718,12.3913143178664,90.4133999582865,56.1628295574817,-1.76575080120914,9.80152561231409,0.628381989006797,2.98385473266665,0.418996147342848,-4.961280586983,958.169517333718,0.0722796577511884,-0.0427029473352478,-52.2811979033769,-46.9339553176135,-62.949702736563,-0.0521977357964544,-0.280317032078506,-0.0390448393257021,-0.0960836802968041,-90.4181650471394,-33.3006933968925,-63.4487459124311,0.088903764566444,-0.313581817889744,-1.34845331040317,-2.06182628529491,4.42573633845711,7.14286816922855,0.479439230254265,-18.5135929521975,0.512467140878446,133.538289009881,-6.10594597078012,-0.973467531274217,1.75281671282865,9.71145733009801,-26.2444349154815,13.2613650304238,6.38521046573455,3.70739791950386,-3.50627877035592,36.3965122620589,100.779562707738,156.329562908275,3.97131830771452,0,0
48.645,-19.9470497581194,64.8677356016079,68.3372053042167,0.272580920506977,9.94502317636516,10.1727897226024,10.5063608700339,-21.4686672106139,105.973462293264,119.929338421243,0.20537420635259,6.54099660493783,9.66608961927839,9.9690266205788,1.31709323847154,7.96818143631614,1.75490844173744,-14.5508469838158,26.1003375489271,-147.688881628727,-1.86563460705424,10.5278173035271,-1.01163544715876,10.7429625448554,87.7420504869738,55.1636225033266,-1.80662918657753,9.87932658177031,0.607942779913937,1.89507585866818,0.390090509454015,-7.06175665582128,943.854346884394,0.0711452876767195,-0.0430592348606759,-52.7023903187183,-45.1562797874472,-59.9677299836536,-0.0479657339534798,-0.456742598526469,0.0601811965099132,0.0109583979149397,-90.6829132339079,-24.609836707961,-55.641964508366,0.086055237305255,-0.103275207771025,-1.4041166917573,-2.09999913847863,4.59091138210316,7.22545569105157,0.559273834683197,-18.6087555287837,0.101228863488067,131.026676720695,-5.70126711384728,-1.26527677504891,1.44999579947754,12.3046375420721,-26.1730629830418,23.7496404356033,6.01994213263809,3.01510237219096,-2.76980817252084,47.7178855703762,97.503590588696,160.588326452998,3.14544308948425,0,0
