time,hip_angle_l,hip_angle_l_velocity,hip_angle_l_velocity_filt,hip_angle_l_torque_estimated,hip_angle_l_torque_desired,hip_angle_l_torque_measured,hip_angle_l_torque_interaction,knee_angle_l,knee_angle_l_velocity,knee_angle_l_velocity_filt,knee_angle_l_torque_estimated,knee_angle_l_torque_desired,knee_angle_l_torque_measured,knee_angle_l_torque_interaction,thigh_imu_l_accel_x,thigh_imu_l_accel_y,thigh_imu_l_accel_z,thigh_imu_l_gyro_x,thigh_imu_l_gyro_y,thigh_imu_l_gyro_z,shank_imu_l_accel_x,shank_imu_l_accel_y,shank_imu_l_accel_z,shank_imu_l_gyro_x,shank_imu_l_gyro_y,shank_imu_l_gyro_z,foot_imu_l_accel_x,foot_imu_l_accel_y,foot_imu_l_accel_z,foot_imu_l_gyro_x,foot_imu_l_gyro_y,foot_imu_l_gyro_z,insole_l_force_y,insole_l_cop_x,insole_l_cop_z,hip_angle_r,hip_angle_r_velocity,hip_angle_r_velocity_filt,hip_angle_r_torque_estimated,hip_angle_r_torque_desired,hip_angle_r_torque_measured,hip_angle_r_torque_interaction,knee_angle_r,knee_angle_r_velocity,knee_angle_r_velocity_filt,knee_angle_r_torque_estimated,knee_angle_r_torque_desired,knee_angle_r_torque_measured,knee_angle_r_torque_interaction,thigh_imu_r_accel_x,thigh_imu_r_accel_y,thigh_imu_r_accel_z,thigh_imu_r_gyro_x,thigh_imu_r_gyro_y,thigh_imu_r_gyro_z,shank_imu_r_accel_x,shank_imu_r_accel_y,shank_imu_r_accel_z,shank_imu_r_gyro_x,shank_imu_r_gyro_y,shank_imu_r_gyro_z,foot_imu_r_accel_x,foot_imu_r_accel_y,foot_imu_r_accel_z,foot_imu_r_gyro_x,foot_imu_r_gyro_y,foot_imu_r_gyro_z,insole_r_force_y,insole_r_cop_x,insole_r_cop_z
120,14.6235234090419,-10.4509836046352,69.5638636491014,-0.564438258022531,3.08908707891489,5.76115792508131,6.51639048362869,-0.967438719539659,-104.635943153817,66.723669374525,0.0126058306066479,-6.21406631138976,3.94989677135564,5.90079255902675,-0.216873197907263,-4.86435672629067,-0.233601315119984,-0.750183742786183,-91.5927567248732,-118.075035995546,24.6299341135335,5.06156340104634,3.57993815804925,-17.8316729235052,-121.481091848521,-206.117093322007,-10.1252554600935,11.9415492418096,1.44598296397629,-87.3235422190863,48.699143144046,-220.78388135525,337.82591621329,0.284171940085597,-0.0690961836592746,-33.0743647861114,37.4190761639772,26.0464926715918,1.0066629770631,-2.25121115590884,-5.33560351147018,-5.50457522931664,-14.384299638222,273.911846597419,317.540020186419,-0.634518784355834,-2.26887636840667,1.57438804683464,2.89452108732515,-1.17107675447179,-0.46867992224092,1.82581666601431,31.5403400582468,-78.5825202825781,-71.4329600169576,-8.15962894829543,7.35683157853536,-2.58407582814721,-40.2445253669742,-149.470553557458,400,-49.4499702453613,32.3399505615234,5.13013219833374,134.434997558594,146.404998779297,485.065002441406,0,0,0
120.005,14.2826385994062,-21.4448247356735,52.0421303012011,-0.58610197413168,2.88002662598208,5.12612349422113,5.86633332359773,-2.91108595534696,-142.721751767446,33.1773413805169,0.0356501565318737,-5.90616465844811,2.34066207485239,4.1877700862571,1.25519172309421,-3.22264863595445,-1.19400054796667,1.45902837877737,-85.0799723665024,-93.1183706222869,23.9513614361945,5.79759586154709,3.35830756585386,-18.1627169417211,-135.925420643331,-247.220599583758,-11.9247656408905,9.86221726912115,-2.53771044184059,-88.2907829043285,83.9028363975198,-209.933559302209,289.121909533315,0.281967555150931,-0.0656508653866082,-32.6736740490972,33.1000669827932,28.6893236672506,1.04945683186518,-1.84008833435441,-5.10949281360442,-5.25126906600953,-11.5316239383942,252.316798603959,309.551713346907,-0.662108627449966,-2.55418744439507,1.38676427626517,2.87282437920955,-1.04794864769658,-0.162227745378158,2.76159027750595,16.3393392218004,-68.1580117089617,-68.510989856174,-6.8298453951231,7.94784649105639,-3.0328093728391,-37.694135226637,-167.661084558406,400,-49.4499702453613,32.3399505615234,5.13013219833374,134.434997558594,146.404998779297,485.065002441406,0,0,0
120.01,13.9417700440528,-32.4381416515139,34.5212324355319,-0.60776465725799,2.67097614160033,4.49111934346923,5.21083710992005,-4.85464051295305,-180.805744349766,-0.367387036531781,0.0586933836431607,-5.59827768706534,0.731504110882831,2.4518031683206,2.72718645217689,-1.58101882656857,-2.15435398645741,3.66813515930899,-78.5674985547822,-68.1628952483302,23.2728211149817,6.53359322608844,3.13668754158676,-18.4937451748895,-150.369060694635,-288.322145922456,-13.7241900163193,7.78298444443832,-6.52121389470088,-89.2579774689963,119.104851046509,-199.083754621,240.4202251882,0.279763275327123,-0.0622057113957592,-32.273002418069,28.7812637433021,31.3320286457915,1.09224864614396,-1.42898511621509,-4.88339289729015,-4.99766667975909,-8.67908426163054,230.722780319063,301.56378741083,-0.689697154987971,-2.83948491600257,1.1991494520895,2.83877505359338,-0.924826411992641,0.144209819040542,3.69731926885591,1.13906320896812,-57.7340002032728,-65.5891590225963,-5.50012524952052,8.5388332224353,-3.48152152073791,-35.1438666955952,-185.850748187095,400,-49.4499702453613,32.3399505615234,5.13013219833374,134.434997558594,146.404998779297,485.065002441406,0,0,0
120.015,13.5653025472164,-42.8912523705512,17.3221361159212,-0.628517962145223,2.43906518228441,3.88921835122164,4.58301380357539,-7.04091470890989,-219.130823108057,-34.3418555443063,0.0805398926857177,-5.27035037412425,-0.862877764244331,0.709712144707417,4.11693196614585,-0.120358072916678,-2.94396972656251,5.75904023598252,-72.3377600147891,-43.4510010770319,22.5987386067708,7.35068847656253,2.86753255208334,-18.4061113522377,-163.830373505015,-327.860036088606,-15.5685574683982,5.90916466286095,-10.0517020127445,-88.2216222366939,152.701949849725,-188.771100697418,193.290364583333,0.277643649445963,-0.0585423612853143,-31.8784880725543,24.6590984929353,33.7547461862576,1.13624848169105,-1.00696020134843,-4.63798776629847,-4.72472539504799,-5.88939648774452,206.844820348546,292.5985647009,-0.71516632764953,-3.12453613079385,1.00582222979453,2.78230637342314,-0.714326171875002,0.450055338541673,4.45903808593749,-12.947739840535,-47.627555941358,-62.2413495852623,-4.15281901041666,9.07849283854164,-3.69632324218748,-32.7323515464249,-197.319790059156,397.521191004372,-49.4884359786908,32.1101011869808,5.16599940958743,131.741171110111,145.643800043811,483.479315732916,0,0,0
120.02,12.6967080135856,-45.8650095480095,4.58626025892278,-0.636678358330367,1.89111938718123,3.74561543183102,4.40816605560384,-12.5828638784649,-260.763425452546,-74.2363256262728,0.0858183264119647,-4.66546332081198,-2.25175389152511,-0.845074400762345,4.36804954892115,-1.16383696056548,-1.37143729073662,6.21353807847407,-70.0231319295176,-22.1257215137695,21.98679187593,9.28892613002235,1.94107933407738,-12.5277385947145,-163.694927128114,-345.741967759085,-18.0332589556042,6.87787820295143,-7.31372874007918,-59.4735339252456,164.07660083792,-185.895439115841,167.934802827381,0.276696429106648,-0.0518635823510045,-31.5694183553401,23.2596828582297,33.1329538035217,1.19692616740088,-0.434168299439074,-4.1257325762334,-4.18516014729668,-3.97102922606215,151.392989425122,270.122022980856,-0.711303242994122,-3.40597960723526,0.733619650218749,2.62612642641959,0.704610072544639,0.747495582217261,2.81336460658481,-11.6233752663874,-41.9207485945767,-53.0039066805831,-2.56322033110119,8.90783040364581,-0.675598144531231,-32.2417346700929,-115.823210037294,360.758034393831,-50.0589203447813,28.7012106399274,5.69794515725447,91.7890958264248,134.354479901049,459.962034287552,0,0,0
120.025,11.828072061113,-48.838908528776,-8.15022290701926,-0.644839143643172,1.34314746333859,3.6020056647498,4.22817889351446,-18.1250773153019,-302.398013043439,-114.132698071984,0.0910970118397866,-4.06054742352215,-3.64069624722262,-2.41492602863615,4.61917910621281,-2.20736560639881,0.201170131138376,6.66805759364897,-67.7083934714414,-0.799425056722157,21.3748159644717,11.2272562081473,1.01458193824405,-6.64908552758487,-163.559474292466,-363.624752127655,-20.4980779718497,7.84663793604843,-4.5756249074371,-30.7240747641329,175.45179422519,-183.019640408634,142.578031994048,0.275749163599228,-0.0451844849398012,-31.2603339001678,21.8602004925321,32.5111317706794,1.25760674651998,0.138650915993811,-3.61345295933175,-3.64604740709459,-2.05257048723221,95.9385142867852,247.644409469208,-0.707439974127916,-3.6874365042802,0.461404090690675,2.44535050215432,2.12361397879464,1.04495000930059,1.16761265345981,-10.29894754005,-36.2136691192681,-43.7660232893794,-0.973545851934524,8.73715983072915,2.34527099609377,-31.7510943987452,-34.3227438593107,323.993124735909,-50.6294319143608,25.2921575402752,6.22991627070033,51.8351154320962,123.064621428205,436.443631423016,0,0,0
120.03,10.9594775274822,-51.8126657062343,-20.8860987640177,-0.652999539828315,0.795201668235406,3.45840274535918,4.04335016773438,-23.667026484857,-344.030615387928,-154.02716815395,0.0963754455660337,-3.45566037020988,-5.02957237450339,-3.99610273862153,4.8702966889881,-3.25084449404761,1.77370256696427,7.12255543614052,-65.3937653861699,20.5258545065403,20.7628692336309,13.1654938616072,0.0881287202380934,-0.770712770061717,-163.424027915564,-381.506683798133,-22.9627794590557,8.8153514761389,-1.83765163477178,-1.97598645268451,186.826445213386,-180.143978827056,117.222470238095,0.274801943259912,-0.0385057060054914,-30.9512641829536,20.4607848578266,31.8893393879436,1.31828443222981,0.711442817903168,-3.10119776926669,-3.10768376599638,-0.134203225549842,40.486683363361,225.167867749163,-0.703576889472508,-3.96887998072162,0.189201511114897,2.23679256469297,3.54255022321428,1.34239025297618,-0.478060825892864,-8.97458296590242,-30.5068617724868,-34.5285803847002,0.616052827380948,8.56649739583332,5.36599609375001,-31.2604775224133,47.1738361625515,287.229968125367,-51.1999162804513,21.8832669932218,6.76186201836736,11.8830401484101,111.775301285443,412.926349977652,0,0,0
120.035,10.0908415750095,-54.7865646870009,-33.6225819299597,-0.66116032514112,0.247229744392768,3.31479297827796,3.85405434466882,-29.209239921694,-385.665202978821,-193.923540599661,0.101654130993856,-2.85074447292005,-6.4185147302009,-5.58484138132494,5.12142624627976,-4.29437313988094,3.34630998883926,7.57707495131542,-63.0790269280938,41.8521509635876,20.1508933221726,15.1038239397322,-0.838368675595243,5.10794029706792,-163.288575079916,-399.389468166703,-25.4275984753012,9.78411120923591,0.900452197870306,26.7734727084282,198.201638600656,-177.268180119849,91.8656994047619,0.273854677752492,-0.031826608594288,-30.6421797277814,19.061302492129,31.2675173551013,1.3789650113489,1.28426203333605,-2.58891815236504,-2.57027140320291,1.7842555132801,-14.9677917749754,202.690254237515,-0.699713620606301,-4.25033687776655,-0.0830140484131767,1.99788359662447,4.96155412946428,1.6398446800595,-2.12381277901786,-7.65015523956499,-24.7997822971782,-25.2906969934965,2.20572730654761,8.39582682291665,8.38686523437501,-30.7698372510655,128.674302340535,250.465058467446,-51.7704278500307,18.4742138935697,7.29383313181322,-28.0709402459186,100.485442812599,389.407947113117,0,0,0
120.04,9.32748996039491,-63.9662270246758,-41.8679558884962,-0.662763044082632,-0.568897745694767,3.16006785813393,3.64968208274771,-32.8073208989942,-369.300914801461,-228.69171045209,0.0985049383297964,-2.21501590853459,-6.31838207427117,-5.68794641190171,4.38891932893092,-4.31967134953213,3.12112643736772,-1.6968171183175,-51.2941961364235,59.6288958957172,18.937040870962,13.9202332933888,-1.39417901124397,12.1689061132217,-156.774350538465,-400,-24.7714849587884,12.0218991591958,3.04713075746328,52.2377755662666,178.092790193631,-186.966723768123,74.9905917748145,0.203116957059398,-0.0234393121584471,-30.3663682175548,21.4220070521977,29.5478891080157,1.40992393367216,2.25954691347344,-2.18552293849439,-2.14297966236999,0.794359290870271,-57.0641988760254,159.853355223994,-0.709975884317223,-4.66798691708912,-0.505453717203264,1.57664655458015,6.17197317763442,1.88497679814384,-0.888918691517306,9.23968798524094,-17.6394749159637,-14.3948176225825,0.783002983095789,8.30220647102317,6.00079523724537,-16.516125620534,103.671445222876,173.944618041292,-57.8208633972477,12.0170323131238,1.87782405530387,-56.3398442521373,81.3831930799531,363.028685537205,1.03286504678616,0,0
120.045,8.56782238598234,-73.3657119358331,-49.9549793746286,-0.664134019118791,-1.39454463903688,3.00494217921858,3.44156192644401,-36.3368558007549,-350.88559925613,-263.280318473517,0.0950576706271566,-1.57816675179144,-6.16560672068747,-5.7377718704815,3.62160538996965,-4.30897707860585,2.83238112235791,-11.3150595501717,-39.1740224199621,77.2810443259013,17.7018525789755,12.6262265113077,-1.93691326075316,19.2720144568559,-150.03431929418,-400,-24.005016280243,14.30465684459,5.17300883238859,77.5872076460114,156.870010274727,-197.110240394435,58.4144718390658,0.129908700516705,-0.0149912180036195,-30.0917192655643,23.9157481239134,27.7893692846455,1.43983374479603,3.24910682203881,-1.78595679583364,-1.72102839391293,-0.298394105001421,-98.6904859915115,116.294654911122,-0.720737982320365,-5.09047190777727,-0.933224558637163,1.11706320299949,7.37507865684199,2.12827146171693,0.44786517426888,26.6805915576217,-10.4274434425247,-3.43979132494213,-0.746277759363599,8.21130516814972,3.4234759440096,-1.77519538695097,74.902536150796,96.0150697173126,-64.0653091149675,5.45178274088185,-3.74870932755376,-84.1970846794926,62.0038377244117,336.546992260532,2.10229213941511,0,0
120.05,7.80819103451344,-82.7647486548814,-58.0416172502572,-0.665504928783263,-2.22015216336824,2.84982389710272,3.2308297277704,-39.8662224050284,-332.471161801375,-297.867277219338,0.091610567299288,-0.941347961687468,-6.01283865183359,-5.78299880183596,2.85432803855077,-4.29828331761048,2.54364957548251,-20.9328433589841,-27.0544266251923,94.9323510553209,16.4667231840086,11.3322814308661,-2.47962163126895,26.3747841056426,-143.294609432274,-400,-23.2385841489358,16.5873056821069,7.29878553986802,102.935430998306,135.648242313668,-207.253273351253,41.8391422962189,0.0567039347358149,-0.00654352667609286,-29.8170834095566,26.4093702875101,26.0309333121156,1.46974212974161,4.23861954579067,-1.38640970553522,-1.30090086410249,-1.39109539552332,-140.314788256382,72.7380315913991,-0.73149956715843,-5.51293675327228,-1.36097500283468,0.624472311738833,8.57812676882282,2.37155452436195,1.78458529869202,44.1206635019473,-3.21575585767388,7.51471260829343,-2.27548558170366,8.12040819968895,0.846279544121792,12.9650319603916,46.1349988558032,18.0892372787191,-70.3094570811273,-1.11315378303029,-9.37497442253313,-112.052996800514,42.6254064273939,310.066561700494,3.17166823895362,0,0
120.055,6.96622052111409,-92.3428708362291,-65.8397572266897,-0.667135134368506,-3.03113771056445,2.59634240612462,2.91995185866022,-43.2696166787427,-316.863528135487,-326.579359721546,0.0888972553749048,-0.360511264521351,-5.69371689157069,-5.65353240813077,2.23643522600927,-4.14256910631448,2.10912548403174,-26.6483665866278,-17.7815440074255,111.794649369558,14.6429371621362,10.0871015604033,-3.05105624353025,27.3165095471579,-136.737319563426,-400,-22.6211778149851,19.2490337573508,8.89098624033563,118.399638895781,115.665615395498,-221.321131121192,28.2749300310547,0,0,-29.5000207484489,30.1183714723859,24.956357181276,1.49448243927871,5.2448644255513,-0.95528135337891,-0.85130917065939,-2.74330397401106,-177.238785076108,28.6072674633158,-0.727124822734759,-5.93476074017179,-1.82988508117028,0.058587505437475,9.09671011770118,2.39565080703907,2.83752252424951,56.3212214757921,2.46063113810945,17.3486898187789,-3.20803818579149,8.05060422497413,-1.19048307326609,25.685902505913,22.935816952814,-50.4099931699517,-75.3469951705544,-7.49247984799698,-13.1599789706722,-120.818622369294,27.1899275110437,271.978994956015,4,0,0
120.06,5.84153524970187,-102.534251504762,-72.6450549834693,-0.669655858720974,-3.79171497050798,2.00496783492926,2.27033428020829,-46.2394877012136,-310.902537527982,-335.101044215345,0.0887056060711099,0.0278647823952456,-4.80312088395425,-4.94086661749415,2.13191389027335,-3.48864074940257,1.17379353090773,-18.9556756848863,-18.2910813832828,125.942583260244,10.7970880139043,9.00972779204845,-3.72106480593999,7.09052267303065,-130.808157371632,-400,-22.5159103259149,23.2126022322487,8.64964191994866,99.9020423820909,99.94453452801,-248.870542699627,25.0588889314879,0,0,-29.0372592803651,38.0022685583773,26.2315470920074,1.50146154804492,6.30838318376509,-0.415740376589091,-0.29575160557681,-4.98681631246892,-198.006122494876,-17.4867395850031,-0.670747083856092,-6.35429370951373,-2.44010822779287,-0.678971779388407,7.26356669094813,1.66668149113726,2.91524351748904,50.5177892858332,2.86098193342589,23.3307909587138,-2.09046390369205,8.05328425922377,-1.37004536799191,31.4661739060603,18.8727526829909,-86.5077384336075,-76.2379155832184,-13.2327543856424,-10.6181600570045,-63.9938544566478,25.3045234573168,194.020820636806,4,0,0
120.065,4.71679634778699,-112.726118148244,-79.4506772501797,-0.672176703273925,-4.55232849850071,1.41356506409768,1.6208607758641,-49.2095003416819,-304.941262671248,-343.623135064802,0.0885139476285375,0.4162593489841,-3.91248240835786,-4.21349272885423,2.02738757044818,-2.83468120998354,0.238416976574768,-11.2626179579623,-18.800643056378,140.091191793718,6.95105547674732,7.93230264923513,-4.39110531763982,-13.1364286752215,-124.878712448343,-400,-22.4106378171751,27.1763597095058,8.40828609108235,81.4035638123939,84.2227040023812,-276.421267968948,21.8426944753288,0,0,-28.5744757455478,45.8865415871987,27.50679781004,1.50844098960921,7.37195265576258,0.123826328157277,0.257043109157971,-7.23043563258423,-218.774450202014,-63.5829446213554,-0.614366656610687,-6.77384668424261,-3.05036047284407,-1.44433016494172,5.4303358509374,0.937677414407838,2.99296821684623,44.7140803598011,3.26135181942925,29.3131773545325,-0.972836330176748,8.05596442127056,-1.54961622512746,37.2467209378608,14.8094946663618,-122.607205014571,-77.1288784793315,-18.9733026476948,-8.07621993696069,-7.16637686072868,23.4190294982895,116.058928889991,4,0,0
120.07,3.59211107637478,-122.917498816776,-86.2559750069593,-0.674697427626393,-5.31290575844423,0.822190492902314,0.972668202609351,-52.1793713641529,-298.980272063743,-352.144819558602,0.0883222983247427,0.804635395900697,-3.02188640074141,-3.46907783489339,1.92286623471227,-2.18075285307163,-0.696914976549236,-3.56992705622079,-19.3101804322352,154.239125684405,3.1052063285154,6.85492888088027,-5.06111388004956,-33.3624155493487,-118.949550256549,-400,-22.3053703281049,31.1399281844037,8.16694177069538,62.9059672987035,68.5016231348931,-303.970679547383,18.626653375762,0,0,-28.111714277464,53.7704386731901,28.7819877207715,1.51542009837542,8.43547141397637,0.663367304947096,0.806677801110583,-9.47394797104208,-239.541787620782,-109.676951669674,-0.557988917732021,-7.19337965358455,-3.66058361946666,-2.23411028995953,3.59719242418435,0.20870809850603,3.07068921008576,38.9106481698421,3.66170261474568,35.2952784944674,0.144737951922693,8.0586444555202,-1.72917851985328,43.026992338008,10.7464303965388,-158.704950278227,-78.0197988919955,-24.7135771853403,-5.534401023293,49.6583910519177,21.5336254445626,38.1007545707822,4,0,0
120.075,2.29676761483261,-132.372712362011,-94.012039511034,-0.676371066320078,-5.94943664189884,0.0823761488752768,0.178403480128075,-55.0749356382068,-295.183335523136,-351.932464833467,0.0916223639128532,1.06885274890574,-2.27323696597966,-2.84768776073076,1.54579150731381,-0.756136892323482,-0.88120924180895,3.34646269500193,-27.3174226283743,165.873572030415,0.606938453652984,6.75817056341916,-5.28421125261205,-45.5770620467357,-110.790996703179,-400,-22.2521266937256,33.1446762084961,8.04487133026123,53.5499992370605,60.5499992370605,-317.904998779297,17,0,0,-27.5471607584954,56.3897300784588,31.3574716372828,1.51645157992016,9.38647933991857,1.60809292375151,1.7580244527415,-11.8234803942771,-250.241252606032,-147.580755939465,-0.467330625072149,-7.52175712516328,-4.2159272831697,-2.98953123156124,1.93303867838979,0.375352679099452,2.64139612821828,36.1720738336149,0.92449193269286,38.5143893384112,2.37190908015612,8.76699246934511,-2.34309269408193,45.6899454488725,31.8306082107551,-194.337161209363,-78.4704208374023,-26.633314492156,-1.16207105258105,60.2872358622275,36.8142640933119,-42.9431132951595,12.4457674565312,-0.0559657136064192,0.023000189429441
120.08,0.826906441833919,-141.073658672286,-102.740320785398,-0.677177680293899,-6.45896352667506,-0.809272334667588,-0.764210675334095,-57.8941789045681,-293.601345284904,-342.782170731535,0.0984953498861883,1.20598708370789,-1.6699204735917,-2.35148584314561,0.889836244398014,1.45702309137982,-0.296912957194878,9.46775908459378,-42.9966520687519,174.934723940077,-0.512044053673963,7.664932250391,-5.04994151585642,-49.592142502388,-100.351787518483,-400,-22.2521266937256,33.1446762084961,8.04487133026123,53.5499992370605,60.5499992370605,-317.904998779297,17,0,0,-26.8784930349713,53.6212461101789,35.2633600916994,1.51139647068637,10.2222578007541,2.96737221088491,3.12013464427998,-14.2812815591242,-250.63675016559,-177.099477268964,-0.341600149521337,-7.75681913680511,-4.71505656973898,-3.70485279142561,0.44198070680388,1.45850569727554,1.69329272299545,36.5701792686245,-5.02327131856148,38.9056895523095,5.7343688312371,10.1974159208296,-3.40144068130742,45.1625408127487,78.6471268457714,-229.489530859654,-78.4704208374023,-24.6431281960083,5.08308655460922,23.640558705215,69.6602606105144,-127.136899885879,29.5336776669427,-0.169198417903594,0.0695353532041449
120.085,-0.643024821345163,-149.7750198863,-111.469018266967,-0.677984332731025,-6.9685147081889,-1.70096333637761,-1.70229986609037,-60.7135566062575,-292.019279609629,-333.631440298761,0.10536866359716,1.34312795774685,-1.06657521211823,-1.8345172609153,0.233849702322288,3.67028860939163,0.28741118952804,15.5893473675808,-58.676629171589,183.996307929846,-1.63107991956785,8.57173717620157,-4.81566060797224,-53.607414416743,-89.9120805411597,-400,-22.2521266937256,33.1446762084961,8.04487133026123,53.5499992370605,60.5499992370605,-317.904998779297,17,0,0,-26.2097934260949,50.8526301270229,39.1694347980094,1.5063411204002,11.0580761156005,4.32671631511273,4.47823822325553,-16.7391999239697,-251.032266584409,-206.619606195685,-0.215863678525599,-7.99189235735504,-5.21420965723748,-4.43158395129125,-1.04914836572961,2.54171036549302,0.745144107558269,36.9683036872512,-10.9713181883009,39.2970084253187,9.09698892086899,11.6279075819107,-4.45983913574894,44.6351110273885,125.465877921713,-264.643576747113,-78.4704208374023,-22.6528469980297,11.3285419615042,-13.0078659448668,102.507823385717,-211.334701248742,46.6224027126129,-0.282436521690745,0.116072736003396
120.09,-2.11295608452425,-158.476381100313,-120.197715748535,-0.678790985168152,-7.47806588970275,-2.59265433808764,-2.63481259409726,-63.532934307947,-290.437213934354,-324.480709865986,0.112241977308131,1.4802688317858,-0.46322995064476,-1.29684212159778,-0.422136839753438,5.88355412740344,0.871735336250958,21.7109356505678,-74.3566062744262,193.057891919615,-2.75011578546174,9.47854210201214,-4.58137970008806,-57.622686331098,-79.4723735638366,-400,-22.2521266937256,33.1446762084961,8.04487133026123,53.5499992370605,60.5499992370605,-317.904998779297,17,0,0,-25.5410938172186,48.0840141438669,43.0755095043194,1.50128577011404,11.8938944304468,5.68606041934055,5.83204101647951,-19.1971182888151,-251.427783003228,-236.139735122405,-0.0901272075298614,-8.22696557790496,-5.71336274473598,-5.16480668213848,-2.54027743826309,3.6249150337105,-0.203004507878915,37.366428105878,-16.9193650580404,39.6883272983279,12.4596090105009,13.0583992429918,-5.51823759019046,44.1076812420283,172.284628997654,-299.797622634572,-78.4704208374023,-20.662565800051,17.5739973683991,-49.6562905949486,135.355386160919,-295.532502611603,63.7111277582831,-0.395674625477897,0.162610118802647
120.095,-3.76114785777273,-160.969839884681,-128.19545214541,-0.673809962214451,-7.75597636609219,-3.47481357207127,-3.55132276482878,-66.3732371726688,-288.399318838373,-316.061400238464,0.123691219084886,1.47403833318819,-0.132243574530065,-1.01145077851621,-2.9531627622578,7.85273359575038,0.637663851415902,36.3810515270624,-82.2893499351507,199.798540900871,-3.33727060801772,11.7747850345856,-3.22199296824245,-56.209642528734,-68.5825969662099,-400,-19.4350214284055,35.2153926159375,7.37494977591039,53.3799494149538,60.5985855309259,-338.594373797397,13.066878128941,0,0,-25.2745392846997,35.2632660435907,43.186737914862,1.46527158264369,12.5292603236784,6.77119873862675,6.9071751248601,-22.0547450269701,-266.420660554454,-249.947002476045,0.0506771611453665,-8.26248236497816,-6.16056543865853,-5.84767181512482,-1.30788091871442,8.57303588489317,-0.596064126571628,44.3548437929783,-37.6472944199343,52.3227319114123,11.3228696449727,18.8327194558031,-0.921744945924277,41.0522059874679,186.081899876718,-306.831199130749,-78.4704208374023,-20.3959865570068,18.4105167388916,-54.564998626709,139.755004882812,-306.809997558594,66,-0.410841792821884,0.168843358755112
120.1,-5.4370007897349,-162.503299524346,-136.080575837158,-0.667933522390593,-7.99807576274272,-4.35554716040412,-4.45919711747244,-69.2169327852061,-286.290811324274,-307.75475120627,0.135848820688673,1.44563316130379,0.156637024544839,-0.749280163971648,-5.77432835250506,9.78427026407309,0.277003477662711,52.3741210499638,-89.0243154879996,206.180596897327,-3.84219513127221,14.2860498592375,-1.68851849021032,-53.9569581640935,-57.6226113971026,-400,-16.182057458342,37.6064874566413,6.60137886753875,53.1835897150736,60.6546890302621,-362.484780849462,8.5252289779748,0,0,-25.0701672742025,20.8871132596293,42.7110479234445,1.42446720753775,13.1336585103566,7.81398715638329,7.93541525185076,-24.9743494353909,-283.672043793296,-261.324822583157,0.1938197375593,-8.26713699453296,-6.5997579215437,-6.51937207076928,0.345813683902106,14.1191909657202,-0.903293333842882,52.3629223249653,-60.6622746490137,66.8513916862898,9.49018063464161,25.2791896918511,4.54960650182799,37.6055659273665,194.772709980419,-309.51595033546,-78.4704208374023,-20.3959865570068,18.4105167388916,-54.564998626709,139.755004882812,-306.809997558594,66,-0.410841792821884,0.168843358755112
120.105,-7.11277381263109,-164.036686044631,-143.965323545514,-0.662057362770808,-8.24016361545864,-5.23623875304803,-5.35927243974557,-72.0604928028733,-284.182404349347,-299.448498256901,0.148005842586108,1.41722934385253,0.445503849034625,-0.469929889268676,-8.59535942217296,11.7157148316582,-0.0836396988573247,68.3664279813373,-95.7589599000155,212.562348580603,-4.34709557840029,16.7971949401919,-0.155117132265835,-51.7043812133556,-46.6631484288711,-400,-12.9292485981379,39.9974682836678,5.82784484505822,52.9872393781393,60.7107898544362,-386.374048744219,3.98379638475943,0,0,-24.8658050086991,6.51164596836208,42.2353806141743,1.38366477809149,13.738027877743,8.85672585125132,8.95907242472175,-27.893814629411,-300.922604440909,-272.702100165947,0.336955488559519,-8.27179140214281,-7.03892946257864,-7.18344585629825,1.99942943401994,19.6650815913173,-1.21050789161923,60.370619010751,-83.6761574634341,81.3793586965394,7.65757901173235,31.7253525432797,10.0206970611839,34.1590902121086,203.463105683485,-312.200573524187,-78.4704208374023,-20.3959865570068,18.4105167388916,-54.564998626709,139.755004882812,-306.809997558594,66,-0.410841792821884,0.168843358755112
120.11,-8.75512359187864,-164.185908595088,-151.172569185042,-0.654297217972283,-8.47006425641879,-6.07641964446334,-6.21075830407018,-74.8477382551478,-280.470070254064,-291.435234654733,0.160593561742264,1.38329826352017,0.701437174837802,-0.208442344283937,-10.6379261388381,13.7997639578434,-0.265698109920716,79.0148597629363,-99.6148816993401,219.247920074068,-5.20732950091457,18.9756397526348,1.22589931190663,-48.8605909280067,-39.80356273005,-397.766581609336,-9.13030281628417,42.1186618770044,5.30582083821785,54.2868704784624,61.0808520603238,-401.836270349199,0,0,0,-24.6886379636072,-5.79970722839751,41.0729181253197,1.34003740010636,14.2724125470564,9.84215595535094,9.92099835513588,-30.7399386310037,-311.06448674989,-282.48400551176,0.481132713471904,-8.24029288546455,-7.52392735355418,-7.88171545064691,3.29614580611444,24.1879949481752,-1.54282379583662,65.1675790705201,-102.179240849885,95.0700083121765,4.98039282292484,36.1514101559098,14.4334413378625,29.5865762112605,210.824060363822,-316.575287565823,-76.6402078593154,-17.2281006199279,18.0881701403717,-62.792672374836,130.829538244828,-322.578771017869,101.16209389426,-0.408343648806171,0.166600789696007
120.115,-10.1581502577957,-154.450337041697,-153.538768510983,-0.633085974104154,-8.61284306193628,-6.62697513188301,-6.76446889674747,-77.2317422515148,-265.305045564069,-285.517407890565,0.17625213456778,1.30990848874658,0.722083010282018,-0.169643226383244,-7.12044906491469,16.9727996565755,0.827642315875941,51.4969189952205,-82.9114723244155,228.100565968435,-8.60477397439249,18.777325021464,1.51815259994774,-41.7958702415631,-62.2251112834686,-379.584509765156,-1.43270180737916,42.3123992806858,6.58010904866133,66.2692558057605,63.6928643888026,-357.112387230435,0,0,0,-24.7057490403077,-3.36581421562368,35.0062935009278,1.2762531409321,14.3068077402752,10.417945428286,10.4690750890925,-33.0612059944375,-270.437196465782,-280.869074841758,0.632691451141779,-7.95062756106598,-8.33599688102668,-8.89193540618479,2.04363171450967,21.4037604987121,-2.05426704990856,47.0338295292567,-88.4621497952218,102.775804883984,-3.72718951808577,26.1495632535742,11.2864996827056,16.9744551499625,208.688214574897,-333.017756504996,-61.7405974697731,8.56139316364465,15.4639735108834,-129.773474460229,58.168062753687,-450.951033523481,387.413751913099,-0.388006467845958,0.148344223027338
120.12,-11.5612438268964,-144.714301248567,-155.905080668898,-0.61187371878002,-8.75562867584657,-7.17755687248504,-7.31025172415022,-79.6158599288697,-250.139297731415,-279.599298935431,0.191911454070747,1.23651521438906,0.742729830220795,-0.120973478421311,-3.60280426045514,20.1459866611918,1.92103487749949,23.9776660373008,-66.2072664491153,236.95363400032,-12.0023804546642,18.5790008336755,1.81041982405714,-34.7308126746329,-84.6477290061472,-361.401570910731,6.26526626084629,42.5061459227155,7.85445802340839,78.252212511883,66.3050012708234,-312.386371457857,0,0,0,-24.7228609329481,-0.931805142909312,28.9393795901584,1.21246584021193,14.3412045736252,10.9937623576835,11.0132879112499,-35.3825840472692,-229.807968873472,-279.254067163952,0.78425741587463,-7.66094842400591,-9.14810513195192,-9.88420007612902,0.791057896897963,18.6193932833128,-2.5657346921,28.8992152819926,-74.7444046424681,110.481968905916,-12.4351870792738,16.1472394141874,8.13940796595617,4.36173268095575,206.552266938383,-349.461009501627,-46.8402765938263,34.3521167166027,12.8396517468461,-196.75747051835,-14.4968775925151,-579.329417447363,673.679059813107,-0.367668317109341,0.130086785796146
120.125,-12.9642704928134,-134.978729695176,-158.271279994839,-0.59066247491189,-8.89840748136406,-7.72811235990471,-7.84852273383356,-81.9998639252367,-234.97427304142,-273.681472171263,0.207570026896262,1.16312543961548,0.763375665665011,-0.0653239444899137,-0.0853271865317631,23.3190223599238,3.01437530329615,-3.54027473041497,-49.5038570741907,245.806279894687,-15.3998249281422,18.3806861025048,2.10267311209825,-27.6660919881894,-107.069277559566,-343.219499066551,13.9628672697513,42.6998833263969,9.12874623385187,90.2345978391812,68.9170135993022,-267.662488339093,0,0,0,-24.7399720096485,1.50208786986453,22.8727549657665,1.14868158103766,14.375599766844,11.5695518306186,11.5539976914308,-37.703851410703,-189.180678589364,-277.639136493949,0.935816153544505,-7.37128309960734,-9.96017465942442,-10.8562335043722,-0.461456194706803,15.8351588338497,-3.07717794617194,10.7654657407292,-61.0273135878048,118.187765477723,-21.1427694202844,6.14539251185189,4.9924663107992,-8.25038838034221,204.416421149458,-365.903478440801,-31.940666204284,60.1416105001752,10.2154551173579,-263.738272603742,-87.1583530836559,-707.701679952975,959.930717831946,-0.347331136149127,0.111830219127478
120.13,-13.9595891571045,-128.072235107422,-158.843860758308,-0.565616235869994,-9.03485563959679,-8.11868095397949,-8.22005625504779,-83.6910959815979,-224.216079711914,-267.377898806489,0.221571609229555,1.10543963035229,0.778021991252899,-0.0116389897310754,2.65122587631659,25.6336459152496,3.60927703077262,-23.1257526353677,-35.5551019570151,252.116491744745,-18.3466686434014,17.5288944036922,2.23299630006833,-22.3235290794067,-117.722410744142,-320.517518373526,19.4236087799072,42.8373222351074,10.0327367782593,98.7350006103516,70.7699966430664,-235.934997558594,0,0,0,-24.752110748291,3.22871160507202,17.1843751468927,1.08261742450635,14.4,11.9780216217041,11.924418229646,-39.350577583313,-160.359344482422,-272.071262043484,1.08078998320727,-6.91756717329725,-10.5362634658813,-11.5705966201525,-1.42386069177122,13.760995242945,-3.41485593471619,-3.17262655359491,-49.420192042481,115.992753564369,-28.3925515347626,-3.56576854155654,1.66859041627453,-23.8182193503864,200.936854467603,-370.449569789637,-19.9550129662557,73.1032328168643,8.07436755247278,-291.261543862293,-127.998737268283,-732.082063747587,1243.38243370419,-0.320157841498234,0.0961912374121154
120.135,-13.9595891571045,-128.072235107422,-155.038388046033,-0.531213446055158,-9.15582923050981,-8.11868095397949,-8.19525390987908,-83.6910959815979,-224.216079711914,-260.133808853717,0.231526423862252,1.08609435935118,0.778021991252899,0.0285354276410636,3.4812091170442,25.8526317214351,2.98746548234477,-23.3460401404468,-28.332341941997,252.219960118343,-20.1931785893849,15.0822011370522,1.96805050986863,-21.1853769698313,-99.6488222592422,-286.786828580655,19.4236087799072,42.8373222351074,10.0327367782593,98.7350006103516,70.7699966430664,-235.934997558594,0,0,0,-24.752110748291,3.22871160507202,12.4201686424588,1.01099921238452,14.4,11.9780216217041,11.8839840605735,-39.350577583313,-160.359344482422,-256.855745796873,1.20966723366553,-6.06350225786305,-10.5362634658813,-11.6863837910063,-1.67799236808521,13.4203506555454,-3.32834302363057,-6.86744879787634,-42.9651006057689,89.6316821232359,-32.0828678982583,-12.5658148229318,-2.0866106305354,-46.5979499892489,194.17803328904,-345.957604452205,-15.083867717778,54.7517779497729,7.11282955964101,-222.470260669295,-91.1618095987361,-502.629541887179,1519.95339633101,-0.276303055447573,0.0869439620678855
120.14,-13.9595891571045,-128.072235107422,-151.232733870179,-0.496809015746792,-9.2768085900362,-8.11868095397949,-8.16588617311356,-83.6910959815979,-224.216079711914,-252.889373467252,0.241481713189271,1.0667481658728,0.778021991252899,0.0670945349297645,4.31123193543815,26.0716279699364,2.36562428289653,-23.5663381499132,-21.1092375104029,252.32343342582,-22.0397765860073,12.6353912000928,1.7030920857559,-20.0471705875884,-81.5743719371156,-253.054530343275,19.4236087799072,42.8373222351074,10.0327367782593,98.7350006103516,70.7699966430664,-235.934997558594,0,0,0,-24.752110748291,3.22871160507202,7.65573495732272,0.939377585155526,14.4,11.9780216217041,11.841814041779,-39.350577583313,-160.359344482422,-241.639503999919,1.33855062962237,-5.20939661643031,-10.5362634658813,-11.7795561273027,-1.93213616264231,13.0796898245433,-3.2418259871856,-10.5624472293803,-36.5097013586788,63.2693536570945,-35.7733602341142,-21.5662902705978,-5.84199074372494,-69.3787668772478,187.418889816776,-321.464471217899,-10.2124901892351,36.3994479954245,6.15124571596794,-153.675697170962,-54.3231253640437,-273.166078606626,1796.53754721603,-0.232446178185904,0.0776962457682722
120.145,-13.9595891571045,-128.072235107422,-147.427261157904,-0.462406225931955,-9.39778218094922,-8.11868095397949,-8.13333328070399,-83.6910959815979,-224.216079711914,-245.645283514479,0.251436527821968,1.04740289487169,0.778021991252899,0.101530472630416,5.14121517616575,26.2906137761219,1.74381273446868,-23.7866256549923,-13.8864774953848,252.426901799417,-23.8862865319909,10.1886979334528,1.4381462955562,-18.909018478013,-63.5007834522159,-219.323840550404,19.4236087799072,42.8373222351074,10.0327367782593,98.7350006103516,70.7699966430664,-235.934997558594,0,0,0,-24.752110748291,3.22871160507202,2.89152845288879,0.86775937303369,14.4,11.9780216217041,11.7986057137437,-39.350577583313,-160.359344482422,-226.423987753308,1.46742788008063,-4.35533170099612,-10.5362634658813,-11.8506011120021,-2.1862678389563,12.7390452371437,-3.15531307609999,-14.2572694736617,-30.0546099219667,36.908282215961,-39.4636765976099,-30.5663365519731,-9.59719179053487,-92.1584975161103,180.660068638213,-296.972505880467,-5.34134494075751,18.0479931283331,5.18970772313617,-84.8844139779648,-17.486197694497,-43.7135567462179,2073.10850984285,-0.188591392135243,0.0684489704240423
120.15,-14.5661929540123,-125.880872179192,-143.396316834717,-0.442977793960162,-9.47357023904087,-8.16654427306874,-8.1469684494763,-84.6924273802424,-216.212846565349,-238.746853695219,0.252821112481278,1.08427090452169,0.785026365512831,0.136668050736109,5.07233080132665,25.8714094361827,2.10615149245748,-20.4059368094602,-7.56438970977683,250.698585536787,-23.8525477693377,8.18078634856103,1.38046068257193,-17.2771927878094,-47.0526654752895,-189.768149019888,19.1815822231562,40.7646705301762,10.2703109391248,100.594078389318,64.6908127212239,-214.128016062335,0,0,0,-24.5953805370419,10.5650101546592,1.95932912644157,0.812114072761085,14.4,12.2044964527617,11.9815630847044,-39.5885752270797,-137.397682907498,-208.850935753397,1.55292709546129,-3.25203092255989,-10.3588193179631,-11.7231015783361,-0.954119824542654,14.877370279234,-2.97260169038194,-15.2506610030022,-21.8867835061623,7.77377094651087,-40.568970364823,-29.2749344174602,-10.6944446346421,-68.3868457166557,146.934638300795,-273.233871302207,-3.49900688087416,10.3944109539686,3.9270733469474,-53.835123330391,-2.36169384241844,47.0680769635787,2233.53927463357,-0.159266624752501,0.0646734593647157
120.155,-15.5910953246982,-122.178401024834,-139.210199610701,-0.433878070622627,-9.51818975467289,-8.24741292152352,-8.19351847642679,-86.3842514828022,-202.690787081251,-232.08736596206,0.248295082158566,1.15990372357902,0.796860778387873,0.168552783679112,4.38354327591743,25.0121077351022,3.14718540708249,-14.5420883706002,-1.86396453869798,247.707108770623,-22.5220884775864,6.47564459184764,1.4657177704076,-15.3050340308569,-31.726886820489,-163.094147854927,18.7726602990806,37.2627708440568,10.6717102081798,103.73512899379,54.4195779464124,-177.283493909737,0,0,0,-24.3305731522444,22.9602338803596,3.66996847570275,0.767489056949459,14.4,12.5871425760383,12.3211265479423,-39.9906900020904,-98.6022426168332,-189.653412838545,1.60850353614975,-1.97693223190008,-10.0590141917953,-11.4536153649853,1.30294939552796,18.7251572697122,-2.7235612495988,-14.380916832099,-12.5384186119003,-23.2711101601227,-39.8914008772868,-20.8860856959452,-9.95854135016583,-12.5127074508623,94.6142636377685,-250.016687733702,-3.74564979685505,10.1192886436,2.45688801948892,-48.8172946131649,-2.21249392051881,42.2073013756841,2313.86042580507,-0.139964922513553,0.0646718830290301
120.16,-16.6160465677493,-118.475753318515,-135.023882772111,-0.42477791336571,-9.56281139798197,-8.32828542619156,-8.24158337088943,-88.0761562598222,-189.168082799123,-225.427560671907,0.24376883601256,1.23554014917962,0.808695755585689,0.191028420814682,3.69472290574518,24.1527650583075,4.18826896330374,-8.67796031472436,3.83673245657481,244.715489356194,-21.1915657430191,4.77042152562318,1.55097892371882,-13.3327812317149,-16.4003773574937,-136.418874742936,18.3637188756046,33.7607041702075,11.0731286179181,106.87632937894,44.1478533888164,-140.437214829851,0,0,0,-24.0657531401337,35.3560486710415,5.38068939662715,0.722861913198498,14.4,12.9698069457563,12.6618855842054,-40.3928239519032,-59.8049523695479,-170.454974491766,1.66408262699512,-0.701772738289023,-9.75919476945068,-11.1663089378714,3.56012624371454,22.5731277415214,-2.47450893334759,-13.5111311875336,-3.18960794181005,-54.3174716387512,-39.2137990799187,-12.4968369530331,-9.22260297421634,43.3640951675259,42.2913940830028,-226.798397056162,-3.99230447397827,9.84415321405194,0.986632586392768,-43.7992266212872,-2.0632868840361,37.3462940022003,2394.18540708249,-0.120662299874898,0.064670306618177
120.165,-17.6409489384353,-114.773282164156,-130.837765548095,-0.415678190028175,-9.60743091361399,-8.40915407464634,-8.29271465616153,-89.7679803623821,-175.646023315025,-218.768072938748,0.239242805689848,1.31117296823695,0.820530168460731,0.203254918874341,3.00593538033596,23.2934633572269,5.22930287792875,-2.81411187586433,9.53715762765367,241.72401259003,-19.8611064512678,3.06527976890979,1.63623601155449,-11.3606224747625,-1.07459870269329,-109.744873577975,17.954796951529,30.2588044840881,11.4745278869732,110.017379983412,33.876618614005,-103.592692677253,0,0,0,-23.8009457553363,47.7512723967419,7.09132874588833,0.678236897386873,14.4,13.3524530690329,13.0045300201153,-40.7949387269139,-21.0095120788832,-151.257451576914,1.71965906768357,0.573325952370783,-9.45938964328294,-10.8632679048809,5.81719546378515,26.4209147319996,-2.22546849256445,-12.6413870166304,6.15875695245192,-85.3623527453847,-38.5362295923826,-4.10798823151815,-8.48669968974004,99.2382334333192,-10.0289805800237,-203.581213487658,-4.23894738995915,9.56903090368328,-0.483552741065719,-38.7813979040611,-1.91408696213648,32.4855184143057,2474.50655825399,-0.101360597635949,0.0646687302824915
120.17,-18.6518681588522,-111.74412795563,-126.949562535085,-0.405768523033925,-9.64642482587552,-8.49150116454524,-8.34985444032255,-91.3723678908693,-162.257022754042,-211.962031217167,0.235900467673864,1.39368884332037,0.8200968539845,0.192627869349678,2.5209581372987,22.6036580926543,6.00058930595144,1.72780404292473,15.2439873164142,239.29107252106,-18.8199869501013,1.41834266286615,1.70975720320064,-9.67080719007869,12.9444497441109,-81.7828540103,17.7820217472916,26.7805820411573,11.7770407121339,111.90305739223,21.8534293318029,-68.2818571875607,0,0,0,-23.4768440749479,59.6253060369997,9.43958980055576,0.63457011646245,14.4,13.6971771566499,13.3118532108511,-41.1025147022787,13.4097035804077,-132.248711889549,1.7598768794913,1.86603948524457,-9.15389510110543,-10.5409748154934,7.6087829252378,29.5285693190013,-2.09327930217383,-12.2327011467207,13.6674985023143,-114.548275509732,-37.3602465744016,3.55619904529686,-7.73928465950069,145.867180607121,-56.4656176718862,-182.69979170191,-4.45234155654907,9.3309965133667,-1.75554943084717,-34.439998626709,-1.7849999666214,28.2800006866455,2544,-0.0846608653664589,0.0646673664450645
120.175,-19.5727162343964,-113.035939736993,-124.974104800545,-0.390665889971627,-9.64931196958455,-8.58330458205105,-8.42228784227773,-92.4152088891221,-149.726441606625,-204.218128984898,0.240153693855649,1.52033613730844,0.740955897447792,0.0928648278462311,3.34376687042827,23.0015590336207,5.04094586009135,-2.21319572431391,20.9898894023206,240.442475724348,-19.635593856245,0.145419743123023,1.70795674645419,-9.79306042594904,18.5747669524671,-45.5669999732897,19.1243875826399,23.4554989627439,11.4450068078594,105.733792460396,-1.40577105111099,-42.8233985179703,0,0,0,-22.7724341917587,68.151267914913,15.8779003466787,0.59706665964493,14.4,13.7984775741487,13.3790106442658,-40.8034359546061,19.7395843997746,-114.4578971029,1.70154194015904,3.27130994301144,-8.81200619204702,-10.1709368645276,6.41327964559221,27.8865527662351,-2.71083596620762,-14.7822368111441,9.37085295799826,-131.797095697985,-32.9869371372643,6.56836318211475,-6.91827638311757,133.163958007139,-65.1367062742539,-176.811631305172,-4.45234155654907,9.3309965133667,-1.75554943084717,-34.439998626709,-1.7849999666214,28.2800006866455,2544,-0.0846608653664589,0.0646673664450645
120.18,-20.4936082204873,-114.327813118269,-122.998552866505,-0.375562536741808,-9.65219925096673,-8.67511237719347,-8.50167041392461,-93.4580996151416,-137.195262939721,-196.473857485439,0.244407122852091,1.64698947045983,0.661811167082629,-0.0167049099308261,4.16661483910851,23.3994789484529,4.08125665373124,-6.15438341772523,26.7360654809829,241.59393383218,-20.4512396545211,-1.12756387581993,1.70615620385314,-9.91531949145249,24.2053526419261,-9.34941898696664,20.4668174285663,20.1302573280825,11.112957070582,99.5642333477915,-24.6660805466272,-17.3637258643702,0,0,0,-22.0679907188558,76.6776363524505,22.3165179029846,0.559561414478891,14.4,13.8997828221476,13.4500392853428,-40.5043429453939,26.0697670588639,-96.666233963059,1.64320421913114,4.67664741095703,-8.47010098005079,-9.79167549883232,5.21771935849444,26.2444579140767,-3.32842207836807,-17.3318940499161,5.07400252857689,-149.046738394472,-28.6134191593118,9.58067095367284,-6.09722895703838,120.46012965528,-73.8082083565989,-170.923190132106,-4.45234155654907,9.3309965133667,-1.75554943084717,-34.439998626709,-1.7849999666214,28.2800006866455,2544,-0.0846608653664589,0.0646673664450645
120.185,-21.4144562960315,-115.619624899632,-121.023095131966,-0.360459903679509,-9.65508639467576,-8.76691579469928,-8.58886168901024,-94.5009406133944,-124.664681792304,-188.72995525317,0.248660349033876,1.77363676444789,0.582670210545922,-0.135025141652642,4.98942357223808,23.7973798894193,3.12161320787115,-10.0953831849639,32.4819675668892,242.745337035468,-21.2668465606649,-2.40048679556306,1.70435574710668,-10.0375727273228,29.8356698502823,26.8664350500437,21.8091832639146,16.8051742496692,10.7809231663074,93.3949684159573,-47.9252809295411,8.09473280522017,0,0,0,-21.3635808356666,85.2035982303638,28.7548284491075,0.522057957661371,14.4,14.0010832396464,13.5254827501695,-40.2052641977213,32.3996478782307,-78.8754191764101,1.58486927979889,6.0819178687239,-8.12821207099238,-9.40521537803715,4.02221607884885,24.6024413613105,-3.94597874240186,-19.8814297143395,0.777356984260862,-166.295558582725,-24.2401097221745,12.5928350904907,-5.27622068065526,107.756907055298,-82.4792969589666,-165.035029735369,-4.45234155654907,9.3309965133667,-1.75554943084717,-34.439998626709,-1.7849999666214,28.2800006866455,2544,-0.0846608653664589,0.0646673664450645
120.19,-22.3353482821224,-116.911498280908,-119.047543197926,-0.345356550449691,-9.65797367605794,-8.85872358984171,-8.68446904826687,-95.543831339414,-112.133503125401,-180.985683753712,0.252913778030319,1.90029009759928,0.503525480180759,-0.26069168935986,5.81227154091832,24.1952998042515,2.16192400151105,-14.0365708783752,38.2281436455515,243.896795143301,-22.0824923589409,-3.67347041450601,1.70255520450564,-10.1598317928263,35.4662555397414,63.0840160363668,23.1516131098411,13.4799326150077,10.44887342903,87.2254093033529,-71.1855904250573,33.5544054588203,0,0,0,-20.6591373627638,93.7299666679013,35.1934460054134,0.484552712495331,14.4,14.1023884876453,13.6058440896198,-39.9061711885091,38.72983053732,-61.0837560365693,1.52653155877099,7.48725533666948,-7.78630685899615,-9.01329671109358,2.82665579175108,22.9603465091521,-4.56356485456231,-22.4310869531115,-3.51949344516051,-183.545201279212,-19.866591744222,15.6051428620488,-4.45517325457607,95.0530787034387,-91.1507990413116,-159.146588562302,-4.45234155654907,9.3309965133667,-1.75554943084717,-34.439998626709,-1.7849999666214,28.2800006866455,2544,-0.0846608653664589,0.0646673664450645
120.195,-23.2561963576665,-118.203310062271,-117.072085463386,-0.330253917387392,-9.66086081976697,-8.95052700734752,-8.78879230399022,-96.5866723376667,-99.6029219779836,-173.241781521443,0.257167004212104,2.02693739158735,0.424384523644051,-0.391994691006321,6.63508027404789,24.5932007452179,1.20228055565096,-17.9775706456138,43.9740457314579,245.048198346589,-22.8980992650847,-4.94639333424913,1.70075474775918,-10.2820850286966,41.0965727480975,99.2998700733771,24.4939789451893,10.1548495365944,10.1168395247555,81.0561443715187,-94.4447908079711,59.0128641284107,0,0,0,-19.9547274795745,102.255928545815,41.6317565515363,0.447049255677811,14.4,14.203688905144,13.6915438652816,-39.6070924408365,45.0597113566869,-43.2929412499204,1.46819661943874,8.89252579443636,-7.44441794993774,-8.61745417156038,1.63115251210549,21.3183299563859,-5.1811215185961,-24.9806226175349,-7.81613898947654,-200.794021467465,-15.4932823070847,18.6173069988667,-3.63416497819295,82.3498561034563,-99.8218876436793,-153.258428165565,-4.45234155654907,9.3309965133667,-1.75554943084717,-34.439998626709,-1.7849999666214,28.2800006866455,2544,-0.0846608653664589,0.0646673664450645
120.2,-24.450068334624,-119.024968367407,-116.049235578157,-0.318815268519808,-9.6513844257276,-9.05765842906409,-8.91717266676127,-97.2485485436112,-80.5302532220621,-160.928258491396,0.255436961317298,2.16653380869858,0.370614510290336,-0.501655376026032,7.63462658660628,24.5947165477157,0.369221868455928,-17.924897998701,38.305726503032,242.042671576658,-22.8821027608018,-5.63357045172873,1.54512810376511,-10.7655414471126,43.8761444643356,130.741504200612,24.7191263223959,9.45077038243304,9.51758459105064,66.9639302373488,-105.812044890917,87.2082976680306,0,0,0,-19.0450158573325,103.028667470004,49.4414728549944,0.417549630569757,14.4,14.2942072262881,13.7721695159664,-39.0095223788399,50.5145105918843,-25.6217823476199,1.36751196182087,10.1217131438226,-6.83887149655741,-7.95521102335747,1.18075633574084,20.1094221975298,-5.60137911876576,-25.5480855729299,-11.6449666256709,-209.142969600368,-13.9150831232104,19.1746170776529,-3.47350367537076,67.0806912978765,-80.1079116497012,-139.173526197965,-4.21264538933484,9.70472306088253,-1.72063919189618,-31.5930888935656,-2.36804709235589,21.9666933574006,2558.0556006667,-0.0718383938185258,0.0632098684021086
120.205,-25.8408830293673,-119.507250523801,-115.713964582442,-0.310021847770162,-9.6329860725755,-9.17584324160205,-9.06504589670409,-97.6354289885027,-56.7377404880104,-145.317861402551,0.249388948764055,2.31546411834397,0.335159063190215,-0.594695596844969,8.76164195051071,24.3101619727339,-0.372412496260513,-14.9900053764037,24.4002550494139,236.037344636971,-22.2659412795419,-5.89795974186933,1.27849822641992,-11.509637691597,44.5981114524784,158.735013472666,24.1379611954648,10.6383216015788,8.72552604394884,47.1548985821543,-108.595975176382,117.376685041399,0,0,0,-17.9872131197149,98.2058595815242,58.2402884357229,0.393828774379117,14.4,14.3769367019042,13.8510115391145,-38.1965808716287,55.3373176256476,-8.03842953991009,1.23627187453458,11.2237208040928,-6.04309370538211,-7.10086878664266,1.26813923671951,19.2131873156972,-5.87921193213385,-24.6850445756097,-15.1358568135496,-211.068214902082,-14.3542382153084,17.9602188127698,-3.78942647121673,49.9609453606491,-39.9101175052854,-119.174210779294,-3.79998072119186,10.3481365267683,-1.66053717883969,-26.6918045972228,-3.37183013757206,11.0976047766933,2582.25394247617,-0.0497630263748263,0.0607006169893486
120.21,-27.2317640449677,-119.98955567777,-115.378677599364,-0.301228007707143,-9.6145868420998,-9.29403368977075,-9.22078821947117,-98.0223278817487,-32.9440932104112,-129.706719933509,0.24334064781195,2.46440152971602,0.29970192540071,-0.687361739137359,9.88871105602804,24.0255938287961,-1.11408222573613,-12.0549728040504,10.4941205148052,230.031731333881,-21.6497504166845,-6.16236163938632,1.01185563485618,-12.2537694182351,45.3201128675437,186.72985761236,23.5567683557337,11.8259294489835,7.93342972761586,27.344922335302,-111.380038213279,147.546510991248,0,0,0,-16.9293599408814,93.3828217179415,67.0395235870766,0.370106787061865,14.4,14.4596701224669,13.9360904842319,-37.3836005993844,60.1603546344733,9.54576172818824,1.10502552907808,12.325781013486,-5.24727796762386,-6.24517419926933,1.35552630454292,18.3169096969956,-6.15705799393137,-23.8219624242674,-18.6269134641715,-212.993552008923,-14.7934142484722,16.745762639429,-4.10536433180905,32.8403830700795,0.289593466851755,-99.173941695303,-3.38729637517619,10.9915806737597,-1.60043229982483,-21.7902865836374,-4.37566104808054,0.227997904603535,2606.45343818112,-0.0276866062694777,0.0581912459231905
120.215,-28.6226450605681,-120.471860831739,-115.043390616285,-0.292434167644124,-9.5961876116241,-9.41222413793946,-9.38355379974551,-98.4092267749947,-9.15044593281194,-114.095578464468,0.237292346859845,2.61333894108806,0.264244787611204,-0.77763190842703,11.0157801615454,23.7410256848583,-1.85575195521175,-9.11994023169716,-3.4120140198035,224.026118030791,-21.0335595538271,-6.42676353690331,0.745213043292439,-12.9979011448732,46.0421142826089,214.724701752053,22.9755755160027,13.0135372963883,7.14133341128288,7.53494608844976,-114.164101250177,177.716336941097,0,0,0,-15.8715067620479,88.5597838543588,75.8387587384303,0.346384799744613,14.4,14.5424035430296,14.0275581248699,-36.5706203271401,64.983391643299,27.1299529962866,0.973779183621582,13.4278412228793,-4.4514622298656,-5.38841172104068,1.44291337236632,17.4206320782939,-6.43490405572888,-22.958880272925,-22.1179701147933,-214.918889115764,-15.232590281636,15.5313064660883,-4.42130219240138,15.7198207795099,40.4893044389889,-79.1736726113124,-2.97461202916052,11.6350248207511,-1.54032742080997,-16.8887685700519,-5.37949195858902,-10.6416089674862,2630.65293388606,-0.00561018616412905,0.0556818748570323
120.22,-30.0034012495096,-120.3410245809,-114.758047277231,-0.282873750406201,-9.55839078840534,-9.52592094156633,-9.54777592793222,-98.6579685453514,14.684253135543,-97.5506771782806,0.229169581545941,2.75194325995797,0.240831729994601,-0.851570393485606,11.9268013468013,23.3632637003246,-2.51745507645148,-5.44334341542185,-16.9907376492181,217.396421402395,-20.329864957822,-6.69488975779301,0.518051482567602,-13.7371551704487,46.998936367227,242.682315432747,22.2345582885547,14.0321634849134,6.25733859437997,-11.4043257686513,-114.740279660898,208.642614766129,0,0,0,-14.8190683920806,84.4122237008275,84.003239262972,0.323300253713476,14.4,14.5983448604823,14.0987026413785,-35.6853077837414,71.6342614242495,44.0259977548424,0.83541875171444,14.4,-3.6057886656906,-4.48069171685052,1.65001653331401,16.6544526507609,-6.65405633394881,-22.0300217389912,-25.1216915679502,-217.336652809196,-15.654889757793,14.4987663975477,-4.60546963059507,1.37420430539593,73.8186494947856,-60.5291228136045,-2.56314835936342,12.2328360175697,-1.46459556200936,-11.663233568075,-6.1428857204667,-22.8163146511374,2636.07595669961,0.0169122904407294,0.0534397747013403
120.225,-31.3089131903736,-115.619639230419,-114.846508904225,-0.267570217768463,-9.37535185164146,-9.60602052656903,-9.68308411247031,-97.8724496796566,38.8359464685875,-74.0081629748614,0.205512330817797,2.81324138418168,0.30758138793489,-0.829365123245991,11.2206734006734,22.2876207716351,-2.58072818990381,3.78671965312966,-28.1236810186321,206.091625132246,-18.970758480866,-6.99100792874988,0.586386445096108,-14.4401897643634,49.7142121988354,270.372504638401,20.2966603690827,13.7860620072776,4.68495597684544,-23.8324313212038,-98.7865959081761,245.244848062111,0,0,0,-13.8067439539847,85.3201836103459,87.4187128609673,0.304978791149399,14.4,14.4537204287571,13.9757508477623,-34.2580962808521,91.9725278681251,55.7768323224719,0.643740246246456,14.4,-2.38649492252975,-3.19798124458521,2.75349963192256,16.8619884628845,-6.43386589913472,-20.6083295601858,-24.4780243397439,-223.442117682571,-15.9510079287499,14.8277865874998,-3.80316655201958,7.7983781946789,55.7241013465183,-52.0270911245291,-2.16065718911055,12.4892422095328,-1.2718362414949,-4.0097180641778,-5.10647217521853,-44.7670230541614,2500.92458636545,0.0427834387240725,0.0531977837093338
120.23,-32.6143628810019,-110.898479007983,-114.934966313137,-0.252267414843324,-9.19232164265446,-9.6861162922133,-9.82165601295947,-97.0869682695629,62.9864881855089,-50.4667713403055,0.181856208129455,2.87453658554996,0.374327863076308,-0.799744427873988,10.5145791245791,21.2120291324234,-2.64399828632803,13.0163426080502,-39.2560935400884,194.787367904453,-17.6117168096738,-7.28711198001521,0.654718149234259,-15.1431908357436,52.429358558966,298.061373503163,18.3588548536694,13.5399722644062,3.11264833464076,-36.2599442690665,-82.8336728689656,281.845336067549,0,0,0,-12.7944677861748,86.2281002259529,90.8340236002177,0.28665820220074,14.4,14.3091028931044,13.8591907005279,-32.8309528311529,112.30982453008,67.5271065794699,0.452070880512663,14.4,-1.16725931849456,-1.91349719682975,3.85693011356093,17.0695143791559,-6.21368596357844,-19.1867051713948,-23.8343878032802,-229.547291431357,-16.2471119800152,15.1567910889058,-3.00090172936049,14.2222457624909,37.6304159937949,-43.5254648346378,-1.75818521069299,12.7456361753758,-1.07908611225072,3.64343250001387,-4.07010804888821,-66.7166847898002,2365.77966040332,0.068653353403168,0.0529558042560929
120.235,-33.9198748218659,-106.177093657503,-115.023427940131,-0.236963882205585,-9.00928270589058,-9.766215877216,-9.96198389208956,-96.3014494038681,87.1381815185534,-26.9242571368863,0.15819895740131,2.93583470977367,0.441077521016597,-0.761563908987423,9.8084511784512,20.1363862037339,-2.70727139978035,22.2464056766017,-50.3890369095024,183.482571634304,-16.2526103327179,-7.58323015097208,0.723053111762766,-15.8462254296583,55.1446343905745,325.751562708817,16.4209569341974,13.2938707867704,1.54026571710624,-48.688049821619,-66.8799891162442,318.447569363531,0,0,0,-11.7821433480789,87.1360601354712,94.249497198213,0.268336739636663,14.4,14.1644784613793,13.7488325986608,-31.4037413282636,132.648090973956,79.2779411470995,0.260392375044679,14.4,0.0520344246662828,-0.626524632317926,4.96041321216948,17.2770501912796,-5.99349552876435,-17.7650129925894,-23.1907205750739,-235.652756304732,-16.5432301509721,15.4858112788579,-2.19859865078501,20.6464196517739,19.5358678455276,-35.0234331455625,-1.35569404044012,13.0020423673389,-0.886326791736248,11.2969480039111,-3.03369450364004,-88.6673931928242,2230.62829006915,0.0945245016865111,0.0527138132640864
120.24,-35.1670454404427,-101.256345892188,-114.658185871533,-0.220310284566586,-8.78267173034786,-9.825716768388,-10.0819016163208,-95.385471282996,110.650878294486,-2.82028351574546,0.135288383550912,2.98455396961869,0.532550809814782,-0.689292913671199,8.98129686209205,19.0054203328045,-2.65004078100208,31.2137759199604,-60.7730464627568,172.118776145793,-14.8858784962169,-7.85061735356209,0.769004078100183,-16.7567725910741,58.143862670449,351.171712771329,14.4617849442566,13.2495382987903,0.13566291760633,-60.8057238170533,-50.8460982386808,351.740227109463,0,0,0,-10.7482566891781,89.7335867579207,97.2282353241216,0.251976864715299,14.4,14.0367057668011,13.6612621531527,-29.8328404768615,153.804692580794,91.5990432745833,0.0843625347381359,14.4,1.43828769357372,0.830517208001816,6.07151230642136,17.4417530585751,-5.78159386842554,-16.5259460646924,-23.0270736899158,-242.198379153074,-16.7341040636761,16.100415415481,-1.34673463500345,25.6255503962108,2.29889701400699,-24.0178634420034,-1.00886630738407,13.2351406742716,-0.863293683273634,18.8247603766356,-2.58211806058662,-110.263357218625,2100.17744325409,0.119066920641089,0.0521898581435904
120.245,-36.122749510939,-95.3369783009395,-112.02341182528,-0.196898890812915,-8.33804841001027,-9.78219995172141,-10.0974299592614,-93.8166733622229,130.9740415467,24.0990107170557,0.116106132888409,2.97036765033185,0.747717965182009,-0.483491076609696,7.54853149053909,17.597405226787,-1.99003370005638,38.8697222550044,-67.41385845005,160.456613990194,-13.4806134197034,-7.97436868123941,0.703003370005627,-18.7055589309035,62.5642804656717,365.244394615567,12.3956392560976,14.2144423018588,-0.4301066600872,-71.3740862355675,-34.4064220686903,368.487905109975,0,0,0,-9.60621982430551,100.783075306105,98.0232736482175,0.245424175643047,14.4,13.9931889501345,13.663507782662,-27.5427554111463,179.060664606839,106.776152055101,-0.0134430092930227,14.4,3.66006983619097,3.12690086054663,7.22102463906846,17.3922525275042,-5.61109203918123,-16.2000166420031,-25.2644433727513,-250.947547093388,-16.3986004641953,18.1436873369088,-0.246722833427281,23.3779954189163,-10.6534024397371,-0.486438143471236,-0.94036801455584,13.3517195741154,-1.6892250782231,25.7259597524711,-5.05576956790943,-130.091069522414,1993.20129555081,0.136970055090836,0.0502553675254603
120.25,-37.078408010957,-89.4178929606726,-109.388763411968,-0.17348861337594,-7.89344629047949,-9.73868521005085,-10.1100819533399,-92.2479502458518,151.296235737153,51.0170213672595,0.0969247968859607,2.95618200748594,0.962874860814572,-0.267728679912836,6.11583443699926,16.189457258625,-1.33005808998047,46.5253035344345,-74.0543537859991,148.795007917093,-12.0754153499167,-8.09811410812864,0.637005808998047,-20.6542523474857,66.9844874837728,379.316405437402,10.3295920871875,15.1793002957722,-0.995849260402431,-81.9419447268255,-17.9675297856048,385.234784537247,0,0,0,-8.46423741474783,111.832036985677,98.8182740627997,0.238871799020207,14.4,13.9496742084639,13.6708332632141,-25.2527795426974,204.315432361855,121.95253715124,-0.111243889699156,14.4,5.8817460384047,5.42766355156729,8.3704821599507,17.3427543567485,-5.44059833991162,-15.8741027604842,-27.5017063719284,-259.696297850413,-16.0631128624067,20.1868618297688,0.853236516699258,21.1305476109417,-23.6050842938505,23.0438651149456,-0.87187298790598,13.4682929151713,-2.51511709059603,32.6268300610084,-7.5293031250364,-149.917836388844,1886.230248751,0.154872335872146,0.0483209691489199
120.255,-38.0341120814533,-83.4985253694238,-106.753989365716,-0.150077219622269,-7.4488229701419,-9.69516839338427,-10.1184469169249,-90.6791523250786,171.619398989367,77.9363156000607,0.0777425462234581,2.9419956881991,1.1780420161818,-0.0421684535326832,4.68306906544629,14.7814421526075,-0.670051009034773,54.1812498694784,-80.6951657732922,137.132845761494,-10.6701502734032,-8.22186543580596,0.57100510090349,-22.6030386873151,71.4049052789956,393.389087281641,8.26344639902854,16.1442042988407,-1.56161883809596,-92.5103071453398,-1.52785361561433,401.982462537759,0,0,0,-7.32220054987521,122.881525533861,99.6133123868956,0.232319109947954,14.4,13.9061573917974,13.6826437742338,-22.9626944769822,229.5714043879,137.129645931757,-0.209049433730315,14.4,8.10352818102195,7.73360696623469,9.51999449259779,17.2932538256776,-5.27009651066731,-15.5481733377949,-29.7390760547638,-268.445465790727,-15.727609262926,22.2301337511965,1.95324831827542,18.8829926336472,-36.5573837475946,46.5752904134777,-0.803374695077747,13.5848718150151,-3.34104848554549,39.5280294368438,-10.0029546323592,-169.745548692633,1779.25410104772,0.172775470321893,0.0463864785307898
120.26,-38.7903200932423,-78.0224141970855,-103.110475875298,-0.119816871089292,-7.04581589024141,-9.70562043897717,-10.1752314514642,-89.0972489846651,184.905340374183,100.040390934161,0.0612064589446657,2.90413168513318,1.41761545980912,0.217118687986663,3.46104224338993,13.3311004424875,0.119883601804817,59.0868504538572,-81.9866013174788,126.322280967601,-9.6961367351832,-8.24122152712686,0.466078536085639,-23.0068581125538,74.8219719017868,400,6.80349854454062,17.4034690070953,-1.96787371014043,-99.9731810719205,9.25728769904898,416.483547435948,0,0,0,-6.1818068201969,129.811185800746,101.927712194916,0.2153087633459,13.8799300082586,13.9400470323274,13.7756507843096,-20.8115175018166,239.436088346486,151.755065876965,-0.281393716702267,14.3500363391336,9.92814913183086,9.64792589515241,9.86974311746627,17.2712118272773,-4.51137672472044,-16.2627899022534,-32.3071516779838,-273.62076669312,-14.0552159033939,24.1909693310373,2.53301501841884,11.6513296288492,-60.2463846565575,52.7419262779138,-0.771196305751801,13.6396369934082,-3.72904562950134,42.7700004577637,-11.164999961853,-179.059997558594,1729,0.181185811758041,0.0454777143895626
120.265,-39.3698324523313,-72.9385582750333,-98.5728402050608,-0.0834852784845226,-6.67964667289208,-9.763892583772,-10.2732006233413,-87.5035913050453,191.957139849094,117.879925166123,0.0470135199318178,2.84528464361104,1.67883566352118,0.506668512279725,2.42563059921093,11.8431247684025,1.02501166161693,61.5559458907433,-78.5383331759076,116.265302525244,-9.10414641323539,-8.1680798657279,0.326652244043872,-22.0417945246509,77.3503256291581,400,5.88054152641144,18.9236655376543,-2.23282697006307,-104.685105295416,15.0331932682884,428.995340656901,0,0,0,-5.04276642932647,133.091091722178,105.588551767254,0.189030869992319,12.8990047571749,14.0425257821246,13.9402396180867,-18.7832266972705,235.664194793006,165.892976784893,-0.331184532665287,14.2557978378575,11.4010291490356,11.2163356316855,9.51089184122763,17.273497504196,-3.23139765023867,-17.8994474489893,-35.1684805614153,-275.629904922906,-11.198119754997,26.0789384658979,2.65187021819214,0.00284281345959414,-93.4507800918021,43.5230293724201,-0.771196305751801,13.6396369934082,-3.72904562950134,42.7700004577637,-11.164999961853,-179.059997558594,1729,0.181185811758041,0.0454777143895626
120.27,-39.9493171787501,-67.8549447645739,-94.0354209012016,-0.0471554182654392,-6.31349491545203,-9.82216194999803,-10.363652558402,-85.9100096152061,199.008603075699,135.718608762274,0.0328212576755507,2.78644040807029,1.94004341156836,0.803935713914473,1.39026832617652,10.3552200449027,1.93009656254769,64.024923594679,-75.0902294568111,106.208803626013,-8.51218431893978,-8.09494169191532,0.187232600213627,-21.0767769535126,79.8785587979883,400,4.95762851729515,20.4437895812529,-2.49776759631892,-109.396804841999,20.8088234271916,441.506537282717,0,0,0,-3.90378035089123,136.370841249087,109.249216781153,0.162754229637659,11.9181262791815,14.1449996454661,14.10692976608,-16.7550326069531,231.89248109331,180.030213560125,-0.380972974471527,14.1615638301205,12.8738389354556,12.7906035273843,9.15205767595964,17.2757830721276,-1.95147960851841,-19.5360269555981,-38.0296730091762,-277.638947351708,-8.34115984044292,27.9668175774353,2.77071975063759,-11.6450885715078,-126.653592254329,34.3045720481255,-0.771196305751801,13.6396369934082,-3.72904562950134,42.7700004577637,-11.164999961853,-179.059997558594,1729,0.181185811758041,0.0454777143895626
120.275,-40.5288295378391,-62.7710888425217,-89.4977852309648,-0.0108238256606699,-5.9473256981027,-9.88043409479286,-10.4459423670344,-84.3163519355862,206.06040255061,153.558142994236,0.0186283186627028,2.72759336654815,2.20126361528042,1.10794208067833,0.354856681997528,8.86724437081763,2.8352246223598,66.4940190315651,-71.6419613152399,96.1518251836567,-7.92019399699197,-8.02180003051636,0.0478063081718602,-20.1117133656097,82.4069125253597,400,4.03467149916597,21.9639861118119,-2.76272085624156,-114.108729065495,26.584728996431,454.01833050367,0,0,0,-2.7647399600208,139.650747170519,112.91005635349,0.136476336284079,10.9372010280977,14.2474783952633,14.2747717073299,-14.7267418024069,228.120587539831,194.168124468053,-0.430763790434547,14.0673253288444,14.3467189526603,14.3707448926269,8.793206399721,17.2780687490463,-0.671500534036642,-21.1726845023341,-40.8910018926077,-279.648085581495,-5.48406369204612,29.8547867122959,2.88957495041089,-23.2935753868974,-159.857987689574,25.0856751426318,-0.771196305751801,13.6396369934082,-3.72904562950134,42.7700004577637,-11.164999961853,-179.059997558594,1729,0.181185811758041,0.0454777143895626
120.28,-41.0507513547883,-55.4693040011279,-84.3429466313498,0.0286621357862695,-5.59921884526895,-9.83249688127428,-10.4134493574228,-82.2057791355119,214.996343456796,170.850208475465,0.000579804301349629,2.65259085241134,2.42267961013357,1.37782026753911,-0.527581809254922,7.42723849269671,3.59002393519089,67.199362485926,-66.2149193750029,85.4571235037665,-7.28632073155764,-7.9655865962931,-0.0939425555419114,-19.52242043197,85.3683905459405,400,3.14339543581741,23.4094930070535,-2.94721398456295,-118.108160173859,30.9566198990479,466.358153967239,0,0,0,-1.36623108405547,141.963962859939,116.708761774333,0.106668541654824,9.97793787766629,14.3389776651151,14.4317707133346,-12.565534792249,221.555124228756,206.700214567623,-0.475932134778978,13.6609555970881,15.5263092365267,15.6630377932952,8.19630465201916,16.9699439057321,0.317422118571276,-23.5324709390869,-42.8499893166765,-281.373759787364,-2.5376771817847,30.9236628206702,2.91617712041243,-32.7352819412432,-187.456898168984,15.6321408925803,-0.945327548193057,13.7549917883385,-3.69416203540396,43.2686041343018,-12.2669560334807,-188.114473451947,1711.28250889898,0.18364981333672,0.0453224961750728
120.285,-41.2589289438386,-36.0761619663859,-75.8223772574553,0.0853535422792568,-5.3494561918702,-9.20563694658463,-9.79329867165072,-77.2770437678422,234.204791930838,185.163543043892,-0.0384895786204078,2.48950775468608,2.42720567420083,1.43545764805226,-0.576491591997035,6.24825530870259,3.52566895789864,58.29136241925,-50.0006431209246,71.2831383816204,-6.42396403584142,-8.00162538357677,-0.248394501043329,-20.9811332505944,90.6915800256703,400,2.42452639881432,24.4483389269256,-2.69320540914832,-118.225284739923,27.6770903151533,477.764429514051,0,0,0,1.44697482813176,139.00881875374,121.260091477225,0.0576113903969652,9.13645176827091,14.3706599908386,14.5280543811139,-9.67918586561866,199.76092466179,210.483423512471,-0.495918987663226,11.5531488386198,15.1076483716786,15.3619154438059,6.30169412053517,14.9697912114889,-0.279792070700861,-29.8344916783728,-39.8912493730177,-281.554907130853,0.89630440653001,27.5282942187308,2.43995028844974,-30.1515487788431,-184.510870319606,4.89677727316123,-2.06863742714662,14.4991384383783,-3.46913012663426,46.4850656244145,-19.3756065207697,-246.52433762771,1596.98806922794,0.199544935178629,0.0443211930700957
120.29,-41.4670966064352,-16.6839446475524,-67.3022141666704,0.142042245577199,-5.09970544781026,-8.57880690222183,-9.16452558117641,-72.34854341521,253.412324495644,199.476195114963,-0.0775570986114519,2.32643243319092,2.43173152245348,1.49681029617823,-0.625399042592346,5.06932834172087,3.46131704922059,49.3837871093957,-33.7871400060918,57.109829112284,-5.56164845955567,-8.03766245243648,-0.402839081870633,-22.4397765139634,96.0145156817551,400,1.70569163937356,25.4871353118979,-2.43920894552919,-118.34240372118,24.3977171078363,489.170161179711,0,0,0,4.26004659927797,136.053815556567,125.811204160771,0.00855657831282649,8.29500578314166,14.4023408058656,14.622408809457,-6.79297456768022,177.967764299458,214.266452063988,-0.515904887521875,9.44544258590965,14.6890074696792,15.0648018189586,4.40717392905364,12.9697338897754,-0.876977783233095,-36.1362119207706,-36.9326505098446,-281.736045836762,4.33012225359027,24.1330875168774,1.96374616423223,-27.567938815621,-181.564982944566,-5.83807445594605,-3.19189374373707,15.2432496055527,-3.24410894797655,49.701373745202,-26.4839180489471,-304.931416667855,1482.69907941574,0.215439299099413,0.0433199377098785
120.295,-41.6752741954855,2.70919738718962,-58.7816447927759,0.198733652070186,-4.84994279441151,-7.95194696753218,-8.52738647008815,-67.4198080475403,272.620772969686,213.789529683391,-0.116626481533209,2.16334933546565,2.43625758652074,1.56110187548635,-0.674308825334459,3.89034515772675,3.39696207192834,40.4757870427196,-17.5728637520136,42.935843990138,-4.69929176383945,-8.07370123972016,-0.55729102737205,-23.8984893325878,101.337705161485,400,0.98682260237048,26.52598123177,-2.18520037011455,-118.459528287244,21.1181875239417,500.576436726523,0,0,0,7.0732525114652,133.098671450368,130.362533863662,-0.0405005729450323,7.45351967374628,14.4340231315891,14.7138455329107,-3.90662564104988,156.173564732492,218.049661008836,-0.535891740406124,7.3376358274414,14.270346604831,14.7705774907998,2.51256339756966,10.9695811955321,-1.47419197250523,-42.4382326600566,-33.9739105661859,-281.917193180251,7.76410384190498,20.737718914938,1.48751933226954,-24.9842056532208,-178.618955095188,-16.5734380753652,-4.31520362269063,15.9873962555924,-3.01907703920685,52.9178352353148,-33.5925685362361,-363.341280843618,1368.40463974469,0.231334420941323,0.0423186346049014
120.3,-41.8271886444092,16.8610496520996,-49.727579404792,0.257628726799036,-4.63384316829029,-7.49450540542603,-8.05186141182011,-63.8231379127502,286.637847900391,227.071948832409,-0.150199473104878,1.98487992286151,2.4395604133606,1.62654270037843,-0.778964777876917,2.89404086647115,3.18908218495383,32.0802976378789,-4.33468636286176,29.4658649795007,-4.06146150369142,-8.06059155549891,-0.708094829684418,-23.6452937795412,105.069778033617,400,0.213222342855781,27.3521771919241,-2.021864374247,-119.250737408513,15.4606675118509,510.070098459234,0,0,0,9.12614700317383,130.942199707031,133.94194648763,-0.087459109237878,6.706327919389,14.457142829895,14.7928790762675,-1.80035614013672,140.269577026367,218.245233131865,-0.544684618628964,5.30737509298087,13.9648351669312,14.5911165812272,1.28237931873761,9.1815962958241,-1.91328403704178,-47.5211284231926,-31.31531683513,-280.203024112572,9.77870805855285,18.0458807848773,1.26150937054507,-21.6059476064499,-172.121232933849,-22.3234629142419,-5.02606582837242,16.6048319940351,-3.02978840356847,52.0696314043913,-42.6489227380164,-411.006321921401,1252.29099106408,0.246381156218803,0.0392887121344409
120.305,-41.8271886444092,16.8610496520996,-39.2311852599683,0.322485303867109,-4.50861399740626,-7.49450540542603,-8.02669671091177,-63.8231379127502,286.637847900391,237.572676229267,-0.168935125655867,1.76482755061048,2.4395604133606,1.69073757487941,-1.03418435113175,2.39089370776878,2.59356984735922,25.0673859071729,0.868732097148541,17.8947106647373,-4.02986288985987,-7.91475179935329,-0.849073260625178,-18.7689644845488,104.505624244412,400,-0.70831866654021,27.6042477263566,-2.10336512116978,-121.862483187973,3.38027419234415,514.400331896674,0,0,0,9.12614700317383,130.942199707031,134.897282957865,-0.128758523439976,6.21365065554674,14.457142829895,14.8441314432425,-1.80035614013672,140.269577026367,208.752257813743,-0.523249193456717,3.48617278285064,13.9648351669312,14.7172933372061,1.84629304250066,7.96626499461062,-1.9254373500539,-49.3126167857221,-29.4668129300745,-273.370161463527,7.9605724319375,17.2534847764861,1.71118195199406,-16.081441617477,-156.030846669388,-14.6113605830847,-4.62321913524609,16.8801879097599,-3.67713745336614,40.2444580522096,-56.9667405009006,-429.662873913176,1131.24399346322,0.259139438832309,0.0307798730075785
120.31,-41.8271886444092,16.8610496520996,-28.7352916107647,0.387338788403374,-4.38339079777775,-7.49450540542603,-7.99533530038913,-63.8231379127502,286.637847900391,248.072902923884,-0.187669884841773,1.54478567103407,2.4395604133606,1.75694821884555,-1.28939175484752,1.88777054044341,1.99808590535575,18.0548085705034,6.07190244451055,6.32410809297957,-3.99826578273316,-7.76891899722999,-0.990044969344359,-13.892867705735,103.94149735554,400,-1.62981573444233,27.8563062414045,-2.18486198192304,-124.474104432541,-8.69954310230477,518.73035885722,0,0,0,9.12614700317383,130.942199707031,135.85257387515,-0.170055968377617,5.72099688384943,14.457142829895,14.8900281896939,-1.80035614013672,140.269577026367,199.259735145599,-0.501814790381798,1.66505731242621,13.9648351669312,14.8419456750476,2.4101798773774,6.75099164358317,-1.93759008356417,-51.1040197253848,-27.6183971665364,-266.537624623306,6.14252349880043,16.4611265516162,2.16083309187422,-10.5571990514485,-139.941227636773,-6.8996259852068,-4.22039165090735,17.1555306957919,-4.32445563586218,28.4198485553279,-71.2838755526574,-448.318536311589,1010.20276770088,0.271897113097417,0.0222714396044968
120.315,-41.8271886444092,16.8610496520996,-18.238897465941,0.452195365471447,-4.25816162689371,-7.49450540542603,-7.95878860847878,-63.8231379127502,286.637847900391,258.573630320742,-0.206405537392762,1.32473329878304,2.4395604133606,1.82541437940003,-1.54461132810235,1.38462338174103,1.40257356776114,11.0418968397975,11.2753209045209,-5.24704622178381,-3.96666716890161,-7.62307924108437,-1.13102340028512,-9.01653841074261,103.377343566335,400,-2.55135674383833,28.108376775837,-2.26636272884582,-127.085850212002,-20.7799364218116,523.060592294661,0,0,0,9.12614700317383,130.942199707031,136.807910345384,-0.211355382579715,5.22831962000718,14.457142829895,14.9300231106049,-1.80035614013672,140.269577026367,189.766759827477,-0.480379365209551,-0.156144997704028,13.9648351669312,14.9632959755431,2.97409360114045,5.53566034236969,-1.94974339657629,-52.8955080879143,-25.7698932614808,-259.704761974261,4.32438787218508,15.668730543225,2.61050567332322,-5.03269306247561,-123.850841372312,0.81247634595033,-3.81754495778102,17.4308866115167,-4.97180468565985,16.5946752031462,-85.6016933155417,-466.975088303364,889.155770100022,0.284655395710923,0.0137626004776344
120.32,-41.6808936818854,18.2933374404702,-8.02800020466539,0.513976655702337,-4.13626368450758,-7.37922996387037,-7.80288180336462,-62.8076296716103,289.502422879872,268.847061786812,-0.226423350178727,1.10019795637961,2.39998825006,1.85707337577973,-1.78700800306245,0.911463878554406,0.945796179105884,5.14471912926726,16.8080676907054,-16.8892303434351,-4.02689531420095,-7.42641297716316,-1.20498666156257,-4.11017890475498,102.118877134405,400,-3.38091874262089,28.4961315570209,-2.34920593315019,-128.120038229614,-33.4409484125149,526.612279017731,0,0,0,9.36056081485382,128.021455706519,136.942200781074,-0.250841940840777,4.77058814473256,14.1653411201097,14.6719314708733,-1.40168144822695,135.242527810442,179.373783820798,-0.456233150674313,-1.86582193672506,13.7081322454647,14.8227790436814,3.3372709437393,4.43249877382076,-1.96156568133693,-56.5481383712057,-20.5880303640523,-252.907531391443,2.93834830667642,14.8485203306497,2.94028961755172,-1.74420742004951,-112.746734508605,7.91826609027015,-3.47756862640381,17.6632690429688,-5.51812505722046,6.61500024795532,-97.6849975585938,-482.720001220703,787,0.295422554016113,0.00658169528469443
120.325,-40.7432109330934,27.4736367979603,0.641699487949831,0.55914189445368,-4.03234786780662,-6.64036793443724,-7.02045385034451,-56.2986935978979,307.863017766693,277.894137125885,-0.253382780266528,0.851344574835116,2.14634906645974,1.67818198287727,-1.96011675618771,0.600369887430759,1.23932841266611,5.2810008458089,24.1239180195991,-28.9191891399732,-4.58385391121267,-6.95475434545955,-0.916472073020475,0.960120412941443,97.1043294280208,400,-3.71319866718333,29.6179521199999,-2.43933611679483,-120.621169817235,-49.246529741084,525.953713109102,0,0,0,10.8630444513308,109.300843488073,132.63530555815,-0.280534412689211,4.50174657788808,12.2950277161926,12.8288326168879,1.15363812351253,103.0214776404,164.109320906174,-0.417416273807138,-2.97275502907041,12.0627857696104,13.2865560467721,2.61473006112951,3.93575191702653,-1.97160097137319,-70.2692293775558,2.626321124118,-246.300965450914,3.88919203761081,13.8776060196428,2.62166915890088,-10.5498646956823,-128.611165238746,11.746543400394,-3.47756862640381,17.6632690429688,-5.51812505722046,6.61500024795532,-97.6849975585938,-482.720001220703,787,0.295422554016113,0.00658169528469443
120.33,-39.8055728954757,36.6534984146839,9.3109857865305,0.604304979607906,-3.92843700608453,-5.90154113588478,-6.23628610146784,-49.7900678873399,326.222737172163,286.940781076662,-0.28034092485795,0.602503059272955,1.89272197704142,1.50377041538603,-2.13321725503331,0.28929073008506,1.53284664983909,5.41727606408062,31.439419509549,-40.9485743165039,-5.14078595097677,-6.48311820367734,-0.627971241611152,6.03017796545965,92.0900208284319,400,-4.04546274776691,30.7397191916303,-2.52946200279577,-113.122658970582,-65.0513574180545,525.295178602625,0,0,0,12.3654564454449,90.5811239175494,128.328615699294,-0.310225468722661,4.23291783011506,10.4248034937272,10.9792923906953,3.70883585090852,70.801963854593,148.845585841204,-0.378601247830525,-4.07963533994084,10.4175177481942,11.7414695118511,1.89222363116528,3.43902874642612,-1.98163578290047,-83.9896661262764,25.8395656910844,-239.694714528788,4.83999042982068,12.9067380043784,2.30306389290971,-19.3551020944662,-144.474839511194,15.5746381682086,-3.47756862640381,17.6632690429688,-5.51812505722046,6.61500024795532,-97.6849975585938,-482.720001220703,787,0.295422554016113,0.00658169528469443
120.335,-38.8678901466836,45.833797772174,17.9806854791457,0.649470218359249,-3.82452118938357,-5.16267910645164,-5.45143821167726,-43.2811318136275,344.583332058984,295.987856415735,-0.307300354945752,0.35364967772846,1.63908279344117,1.33490852032615,-2.30632600815857,-0.0218032610385863,1.82637888339932,5.55355778062226,38.7552698384427,-52.978533113042,-5.69774454798849,-6.01145957197373,-0.339456653069055,11.1004772831561,87.075473122048,400,-4.37774267232934,31.8615397546094,-2.61959218644041,-105.623790558202,-80.8569387466237,524.636612693996,0,0,0,13.8679400819219,71.860511699104,124.021720476371,-0.339917940571095,3.96407626327058,8.5544900898101,9.12327067681041,6.26415542264801,38.580913684551,133.58112292658,-0.339784370963349,-5.18656843228619,8.77217127233999,10.1855610359416,1.16968274855549,2.94228188963188,-1.99167107293672,-97.7107571326266,49.0539171792546,-233.088148588258,5.79083416075508,11.9358236933715,1.98444343425887,-28.160759370099,-160.339270241335,19.4029154783325,-3.47756862640381,17.6632690429688,-5.51812505722046,6.61500024795532,-97.6849975585938,-482.720001220703,787,0.295422554016113,0.00658169528469443
120.34,-38.0896474456787,53.4531135559082,26.16958915095,0.690908212332841,-3.70455071627113,-4.54945039749146,-4.79264350849005,-37.8789507484436,359.821960449219,305.1380353731,-0.337349046320121,0.0943849616618751,1.42857146263123,1.21590383368266,-2.47822877498515,-0.329400356223999,2.12551659080414,5.04981565773176,45.6560177346465,-64.5643360624296,-6.13694650042881,-5.40028603469886,-0.0675369087670919,16.7839730136276,81.4330216576715,400,-4.85217921855747,33.1823728827013,-2.63749318147714,-99.28638066349,-95.9230194894043,525.19000835045,0,0,0,15.114947052002,56.3230819702148,118.749677785881,-0.36740436185408,3.71656198737287,7.00219774246216,7.57918147403238,8.38497806549072,11.8386096954346,117.7141572979,-0.30162435968547,-6.16215793154745,7.40659332275391,8.89701580188789,0.311236229302718,2.26888383138727,-2.06916049871364,-105.980240886928,66.3809854228308,-225.723019939261,7.68892037733358,10.8552399234778,1.64519374628936,-35.3756207248434,-172.046524453957,18.3128228432932,-3.93077072335057,17.9961280894221,-5.42167031752874,11.5797360080883,-96.2836743070249,-482.692007628078,780.225094003562,0.295079878396665,0.00720432652781038
120.345,-38.0896474456787,53.4531135559082,32.0114011499162,0.714152046159467,-3.50622532858007,-4.54945039749146,-4.74846537171422,-37.8789507484436,359.821960449219,314.791013025286,-0.382474576901618,-0.215683726155675,1.42857146263123,1.31529986488534,-2.64423708687908,-0.619914902038369,2.45199960419552,1.4222266200497,50.5303770159763,-73.9817211630788,-6.00137304571544,-4.10818800712448,0.123372649910921,25.4601275858615,72.7261248054572,400,-6.02044063872355,35.4744967975688,-2.30285229397934,-98.6181969548083,-107.378978185844,531.658800254896,0,0,0,15.114947052002,56.3230819702148,108.7671305119,-0.384122034150002,3.57315517410483,7.00219774246216,7.58175234894579,8.38497806549072,11.8386096954346,98.907212918154,-0.266672241244788,-6.49663036508568,7.40659332275391,8.96018235083075,-1.21050662972492,0.733306946368481,-2.47588086285376,-87.6407629742019,54.9721837412319,-214.655799146333,14.2102802295666,9.23942568771028,1.20527171977045,-34.8256754940837,-163.462596721664,-6.78312504733772,-6.5959701555072,19.9536118424153,-4.85443746669444,40.7764476249554,-88.0427461217612,-482.527382381038,740.38309914902,0.293064665156215,0.0108659080755907
120.35,-38.0896474456787,53.4531135559082,37.8534917150929,0.737396988365942,-3.30789048376309,-4.54945039749146,-4.70652063287295,-37.8789507484436,359.821960449219,324.444450978728,-0.427602259289447,-0.525767199567036,1.42857146263123,1.42364678217257,-2.81025331486246,-0.910443301009281,2.77849818589616,-2.2055353988463,55.4049687306322,-83.3995553307777,-5.86579312619568,-2.8160283659872,0.314291312091802,34.1366958796429,64.018812765753,400,-7.18875776731651,37.7667300121318,-1.96819544916488,-97.9499813838546,-118.835483158508,538.127900623025,0,0,0,15.114947052002,56.3230819702148,98.7841072211678,-0.400840503626425,3.4297415224975,7.00219774246216,7.57928175924621,8.38497806549072,11.8386096954346,80.0993717311803,-0.231718456115897,-6.83111874790785,7.40659332275391,9.00828017290018,-2.73232205290587,-0.802343162477736,-2.88262062141304,-69.3004105453388,43.5628380320862,-203.588050614108,20.7319510521802,7.62353440200542,0.765328715614495,-34.2757040392416,-154.878259665651,-31.8802696356888,-9.26129667742742,21.911188937822,-4.2871775674194,69.9745514840436,-79.8014249686759,-482.362749283861,700.53920443301,0.291049355820526,0.0145276642255143
120.355,-38.0896474456787,53.4531135559082,43.6953037140591,0.760640822192568,-3.10956509607203,-4.54945039749146,-4.66751339167614,-37.8789507484436,359.821960449219,334.097428630913,-0.472727789870944,-0.835835887384585,1.42857146263123,1.54180989742991,-2.97626162675639,-1.20095784682365,3.10498119928755,-5.83312443652836,60.2793280119621,-92.8169404314269,-5.73021967148231,-1.52393033841281,0.505200870769815,42.8128504518768,55.3119159135387,400,-8.35701918748259,40.0588539269993,-1.63355456166708,-97.281797675173,-130.291441854948,544.596692527471,0,0,0,15.114947052002,56.3230819702148,88.8015599471865,-0.417558175922347,3.28633470922946,7.00219774246216,7.57247249359957,8.38497806549072,11.8386096954346,61.2924273514346,-0.196766337675215,-7.16559118144608,7.40659332275391,9.04041530674136,-4.25406491193351,-2.33792004749652,-3.28934098555316,-50.9609326326128,32.1540363504873,-192.520829821179,27.2533109044132,6.0077201662379,0.325406689095586,-33.7257588084819,-146.294331933358,-56.9762175263198,-11.9264961095841,23.8686726908152,-3.7199447165851,99.1712631009108,-71.5604967834122,-482.198124036821,660.697209578468,0.289034142580076,0.0181892457732947
120.36,-37.8466532795056,52.9384871368003,47.355912872493,0.788183976215867,-2.85552278522911,-4.48954754594658,-4.57209157357433,-36.2197940714942,360.508129008029,341.236129397158,-0.514711903620207,-1.11786355247581,1.40545105278885,1.64723827872239,-3.05836801247014,-1.81534472326765,3.105352927302,-14.414836489671,62.8901481068748,-97.9164966038716,-5.65326397505975,0.221521745818519,0.611517746351744,54.3602202833861,47.8079748277944,400,-11.504536149397,41.7506633086191,-1.16711036614197,-97.2402252460621,-141.953078751065,549.859097547385,0,0,0,15.219461020006,48.9467664858452,79.7334939303153,-0.43154478633334,3.15978700598188,6.81933631916337,7.37925147660364,7.93034296590271,-6.68794891678831,44.3829688805927,-0.163925124130264,-7.20306448502019,6.47336946098344,8.12281870163596,-4.12188908145581,-3.13715217458183,-2.79338642027219,-34.3626794679988,19.5552085299675,-174.565892385605,30.4727661952765,5.14774378800777,-0.172443879277636,-26.5789780735788,-115.504603184912,-84.4403431869103,-13.2388895474752,24.0209560631745,-3.69760740525687,130.114490248456,-62.7202015879772,-471.552015368429,622.199511859957,0.287819345072797,0.0228378363269984
120.365,-37.4095055863756,52.0126716924225,49.2732291537959,0.819160314118207,-2.55697939376093,-4.38178202310644,-4.43268802414552,-33.2349630967746,361.742549600533,346.365082553101,-0.55418213884961,-1.37745970393909,1.36385732242903,1.74475690538492,-3.07342210782153,-2.68848225364822,2.845132136228,-26.9546058626181,63.6919711749735,-99.5652784756904,-5.62315578435696,2.32909509501299,0.650228277255318,68.2009608595397,41.2659482059562,400,-16.233387747532,42.96262181209,-0.59538339030642,-97.699375613694,-153.778070780842,554.157038619936,0,0,0,15.4074821594942,35.676738861009,71.3969592659359,-0.443347830812402,3.04672211628357,6.49036772449931,7.03721748243643,7.11245219868472,-40.0173184507101,28.9912242898151,-0.132773532299072,-7.00320533865699,4.79449517041224,6.44289501294075,-2.66809358752167,-3.34790950950129,-1.57615528185987,-19.1572466501143,6.00652271371732,-151.108585078811,31.0534241588301,4.89182416703416,-0.716541896977834,-14.1613406911367,-66.9730672187678,-113.794501600483,-13.4701557459376,22.7307075809418,-4.11069295468273,162.450687194501,-53.4017161716835,-452.531164316813,584.779331986504,0.287244256525972,0.0282747377925682
120.37,-36.9723370479024,51.0868121006295,51.1906368621304,0.850138129124066,-2.25842176628152,-4.27401136147831,-4.29739675159861,-30.2499897906939,362.977029056257,351.494280282653,-0.593654256213162,-1.63706823421844,1.32226160867641,1.85253798028515,-3.08847692102592,-3.56166141950303,2.58489893655206,-39.4949731931912,64.4938324779235,-101.214138969505,-5.59304615794816,4.43676894362805,0.688940654066616,82.0423614299986,34.7236096282446,400,-20.962464840474,44.1746381076786,-0.0236291517282318,-98.1585478758644,-165.60362668416,558.455184639369,0,0,0,15.5955122647512,22.4060784562565,63.0600270747498,-0.455151438118438,2.93365183509751,6.16138344300131,6.69333142209741,6.29452243042876,-73.3482772922249,13.5987457452637,-0.101620455007395,-6.80333666203074,3.11554082289142,4.74643554667773,-1.21422876949741,-3.55867689436279,-0.358866099904642,-3.95108876271388,-7.54280917023661,-127.650159212706,31.6341098109996,4.63589234255948,-1.26066585993661,-1.74311117492027,-18.4392170312714,-143.150059764111,-13.7014329723051,21.4403975733416,-4.52379820205096,194.788426088805,-44.0827864043615,-433.509406257852,547.357367735584,0.286669140556108,0.0337118985162308
120.375,-36.5351893547724,50.1609966562517,53.1079531434333,0.881114467026406,-1.95987837481333,-4.16624583863817,-4.16631630513946,-27.2651588159743,364.211449648761,356.623233438596,-0.633124491442565,-1.89666438568172,1.28066787831658,1.9697404121043,-3.10353101637731,-4.43479894988359,2.32467814547805,-52.0347425661384,65.2956555460222,-102.862920841324,-5.56293796724538,6.54434229282252,0.727651184970189,95.8831020061523,28.1815830064064,400,-25.691316438609,45.3865966111495,0.54809782410732,-98.6176982434963,-177.428618713938,562.753125711919,0,0,0,15.7835334042394,9.13605083142036,54.7234924103703,-0.466954482597499,2.8205869453992,5.83241484833726,6.34848697692029,5.47663166321077,-106.677646826147,-1.79299884551386,-0.0704688631762028,-6.60347751566754,1.43666653232023,3.03420886031318,0.239566724436727,-3.76943422928225,0.858365038507678,11.2543440551706,-21.0914949864868,-104.192851905912,32.2147677745531,4.37997272158586,-1.80476387763681,10.6745262075218,30.0923189348732,-172.504218177684,-13.9326991707674,20.1501490911089,-4.93688375147682,227.12462303485,-34.7643009880678,-414.488555206236,509.937187862131,0.286094052009283,0.0391487999818006
120.38,-36.0980208162992,49.2351370644587,55.0253608517679,0.912092282032266,-1.66132074733392,-4.05847517701004,-4.03938970042679,-24.2801855098936,365.445929104485,361.752431168147,-0.672596608806117,-2.15627291596106,1.23907216456396,2.09492229389059,-3.1185858295817,-5.3079781157384,2.06444494580212,-64.5751098967114,66.0975168489722,-104.511781335138,-5.53282834083658,8.65201614143757,0.766363561781488,109.724502576611,21.6392444286947,400,-30.4203935315511,46.5986129067381,1.11985206268551,-99.0768705056667,-189.254174617256,567.051271731352,0,0,0,15.9715635094964,-4.13460957333214,46.3865602191842,-0.478758089903535,2.70751666421314,5.50343056683926,6.0034762960464,4.65870189495481,-140.008605667661,-17.1854773900653,-0.0393157858845257,-6.40360883904129,-0.242287815200593,1.3070325520747,1.69343154246099,-3.98020161414375,2.07565422046291,26.460501942571,-34.6408268704407,-80.7344260398076,32.7954534267226,4.12404089711118,-2.34888784059559,23.0927557237382,78.6261691223696,-201.859776341312,-14.1639763971349,18.8598390835087,-5.34998899884505,259.462361929154,-25.4453712207457,-395.466797147274,472.515223611211,0.28551893603942,0.0445859607054633
120.385,-35.7227826109326,47.8912109437924,54.7257436027436,0.938130150257131,-1.18896703308302,-3.97834671933831,-3.9441001247737,-21.716278560308,347.507438732121,360.061920306892,-0.68181374732639,-2.41402947078446,1.28696858620619,2.31552611492066,-2.34280436185639,-3.94072124854366,0.765908789928524,-50.4207357158371,54.0689730104937,-100.535701184629,-4.68113673128984,9.08252164583807,0.642590878992839,99.9963308683781,17.3892057910151,398.861575909519,-34.5797870232189,40.5290337944832,2.93692985123709,-53.395257603505,-180.398426710763,540.632209751294,0,0,0,15.7629630860185,-11.7802328381774,39.095288143213,-0.488699478366856,2.42381957309032,5.23031014049702,5.71493339592607,2.98758716940895,-161.993876708968,-34.178606222046,-0.0271057098214257,-6.04298476704191,-1.21765850627841,0.269883126087135,3.20283327885202,-3.75314482804865,1.63417770960631,20.4920815859738,-20.0523243956068,-56.9676569431264,30.6378591365134,5.0173456712515,-3.52597810690067,10.5745758918246,115.943879091051,-231.121527024327,-14.5640841971534,15.7321698002641,-2.70387870088156,235.816548817688,-47.4518807916612,-365.775803922079,417.558567393363,0.284910637522411,0.0444392351931523
120.39,-35.353945516982,46.503869477197,54.1962522006092,0.963657221298146,-0.698569497735649,-3.90107995385839,-3.85540628873959,-19.1958923104406,327.580174660914,357.664261588433,-0.687894572432488,-2.6716075805211,1.34414596164819,2.54868354683678,-1.48498914564946,-2.34110680848567,-0.640345662869719,-33.4979390755274,40.7095557089103,-95.9762249418375,-3.74421970211301,9.33916308347374,0.501965433713023,87.8239832977834,13.3766062798671,397.605061514195,-38.6803353330007,33.7041885103128,4.88321686410508,-2.92742142958716,-169.398000931883,511.027035523407,0,0,0,15.5132295252304,-18.8430616426073,31.9120450738676,-0.498448317504789,2.12241717631692,4.96296723503423,5.43342948017277,1.22792734199546,-182.803998037345,-51.3385828091485,-0.0168589779162245,-5.66567479677628,-2.1201338532953,-0.706329267204409,4.71807245174213,-3.48068302781898,1.02069920457307,12.3279932350063,-2.54575854572502,-33.1676683878203,28.1962498428424,6.02984887726623,-4.76875547956113,-4.52963860119352,152.100677606594,-260.375091875747,-14.9817171978399,12.4138407916207,0.259546513907428,206.365186352794,-72.7073310502194,-334.977075089773,360.781043861634,0.284298866666241,0.0437135715928261
120.395,-34.985126010152,45.1165941626837,53.6667860460144,0.98918307514142,-0.208195345829788,-3.82381687266063,-3.77011585963905,-16.6756262392043,307.653860773956,355.266717196633,-0.693975107588885,-2.92917340825747,1.40132061072287,2.781886774133,-0.627214832323341,-0.741568642242286,-2.04653306176501,-16.5759493585746,27.3507754194051,-91.416966106839,-2.80734734759903,9.59579228377213,0.361346693823502,75.6522161366666,9.36419809999455,396.348607032775,-42.7806881178773,26.8796686526771,6.82941107290036,47.5380083054515,-158.398099682174,481.423272947926,0,0,0,15.2635078723938,-25.9055536728238,24.7291445204038,-0.508196691792487,1.82102915120081,4.6956370771828,5.15373577256352,-0.531648580219307,-203.613127084522,-68.4977411635317,-0.00661273460209249,-5.28838281764026,-3.02256616791915,-1.69263601216675,6.2332393740518,-3.20823421928302,0.407249951805,4.16429416919751,14.9599725451519,-9.3688146784305,25.7547569715105,7.04230380447084,-6.01147359333484,-19.6331328856244,188.255752071091,-289.627261840421,-15.3993302846889,9.09567000961318,3.22283042480481,176.915228206156,-97.9615770626275,-304.179814821688,304.006227631237,0.283687124980912,0.0429879425940447
120.4,-34.6162889162013,43.7292526960883,53.13729464388,1.01471014618243,0.282202189517583,-3.74655010718071,-3.68783786189228,-14.1552399893369,287.72659670275,352.869058478173,-0.700055932694983,-3.18675151799412,1.45849798616487,3.01141891769534,0.230600383883587,0.858045797815709,-3.45278751456325,0.346847281735162,13.9913581178218,-86.8574898640472,-1.87043031842221,9.85243372140781,0.220721248543686,63.4798685660719,5.35159858884647,395.09209263745,-46.881236427659,20.0548233685067,8.77569808576835,98.0058444793693,-147.397673903294,451.818098720039,0,0,0,15.0137743116057,-32.9683824772537,17.5459014510585,-0.517945530930421,1.51962675442742,4.42829417172001,4.87622076775123,-2.29130840763279,-224.4232484129,-85.6577177506342,0.00363399730310877,-4.91107284737463,-3.92504151493604,-2.68715464230502,7.74847854694191,-2.93577241905336,-0.206228553228235,-3.99979418177007,32.4665383950338,14.4311738768756,23.3131476778395,8.05480701048557,-7.2542509659953,-34.7373473786425,224.412550586634,-318.880826691841,-15.8169632853754,5.77734100096976,6.1862556395938,147.463865741261,-123.217027321186,-273.381085989382,247.228704099508,0.283075354124743,0.0422622789937184
120.405,-34.2474694093713,42.3419773815749,52.6078284892853,1.04023600002571,0.772576341423444,-3.66928702598295,-3.60817119110205,-11.6349739181006,267.800282815792,350.471514086374,-0.706136467851381,-3.44431734573049,1.51567263523955,3.23315149827157,1.08837469720971,2.45758396405909,-4.85897491345854,17.268836998688,0.632577828316574,-82.2982310290487,-0.933557963908223,10.1090629217062,0.0801025086541653,51.3081014049552,1.33919040897396,393.83563815603,-50.9815892125357,13.230303510871,10.7218922945636,148.471274214408,-136.397772653584,422.214336144557,0,0,0,14.7640526587691,-40.0308745074702,10.3630008975947,-0.527693905218119,1.21823872931131,4.16096401386858,4.60114641497278,-4.05088432984756,-245.232377460077,-102.816876105017,0.0138802406172408,-4.53378086823861,-4.82747382955988,-3.68776654198125,9.26364546925158,-2.66332361051739,-0.819677805996305,-12.1634932475788,49.9722694859107,38.2300275862654,20.8716548065076,9.06726193769018,-8.49696907976902,-49.8408416630734,260.567625051131,-348.132996656514,-16.2345763722243,2.45917021896226,9.14953955049118,118.013907594623,-148.471273333594,-242.583825721297,190.453887869111,0.282463612439413,0.041536649994937
120.41,-33.8387943093027,40.2517449418979,51.6210428577165,1.06477735587573,1.40330950574365,-3.50791555455745,-3.44659401760962,-9.21142512991544,235.812729575315,342.803471932657,-0.712030674172419,-3.7592109759864,1.43545229946492,3.30529177539674,1.85403570901578,3.56950617283949,-5.70364074565932,30.1184106737203,-10.0247958023112,-75.8281314613517,-0.444045054350489,10.0933820274458,-0.196241699867172,38.5264696434503,-6.31352960357929,380.981294756958,-54.1921081542969,7.88679981231689,12.245735168457,187.985000610352,-127.785003662109,399.035003662109,0,0,0,14.3177245418246,-45.761510249241,2.60332444600358,-0.537755296144447,0.804114711702654,3.87882100295683,4.31375617811338,-6.83797868561647,-261.846919475118,-122.102829860168,0.0285146337661801,-4.09912921270373,-5.59016240206572,-4.55276298547369,10.2333820274458,-2.45503762726869,-1.23059269096455,-18.5071832772552,64.120582143306,59.0900133652253,18.6012089911957,9.26276130047712,-8.92537651861692,-61.3052566445087,288.999547003269,-372.658199392644,-16.836514371876,0.704849664403494,10.7233147182805,81.8859973209676,-164.773510380588,-218.855939682267,140.682504549702,0.282022942854542,0.0382843793668819
120.415,-33.2864416683993,35.626260796872,48.9848286175623,1.08576203369304,2.54020792724296,-3.04318327555988,-2.98346474069458,-7.13728788313843,160.324833050227,316.125345154923,-0.717251459209862,-4.28082860091293,0.859637624742588,2.86510713125889,2.28725689833259,2.92225308641974,-4.52259726525993,28.2751194581528,-10.9352988897937,-62.4666578314087,-1.56835718852982,9.09542607348384,-0.962114873837963,23.5477387811959,-27.0959217542268,326.293805117892,-54.1921081542969,7.88679981231689,12.245735168457,187.985000610352,-127.785003662109,399.035003662109,0,0,0,13.1622945328466,-46.6866075700937,-7.23519659495485,-0.54894359212688,-0.0165802357632457,3.54330696738785,3.97539004610456,-13.330931034488,-263.327073614571,-149.056335137032,0.0589747707407761,-3.45766489574223,-5.84859901188479,-4.9157411856189,9.23542607348383,-2.47824590526782,-0.910834194087855,-18.2843328712281,66.1548879926112,69.3443156197038,16.9482638581476,6.5112910088043,-6.41630379715707,-59.6402457537629,289.566223750024,-380.126871571783,-18.1032179976746,4.59204384078999,7.28450040078821,21.6772772899844,-148.780429007294,-220.633952748493,116.184877772859,0.282199462320439,0.0259187073148268
120.42,-32.7340626886165,31.0005560861054,46.3484886698004,1.10674771216257,3.67716056162776,-2.57842883585089,-2.52177273380665,-5.06305173133796,84.8333368924791,289.445946233429,-0.722472493199908,-4.8024710991228,0.283795492356112,2.40365903203834,2.7204987457577,2.27496913580245,-3.34149746692242,26.4317403454313,-11.8458453945231,-49.104547060956,-2.69272293541882,8.09742253209385,-1.72802456839308,8.56829365968528,-47.8793049111282,271.60370771145,-54.1921081542969,7.88679981231689,12.245735168457,187.985000610352,-127.785003662109,399.035003662109,0,0,0,12.0068094273063,-47.611749004118,-17.0741867847875,-0.560132421622067,-0.837314317984163,3.20777693286624,3.63913369584182,-19.8241929991313,-264.807298335022,-176.01112568905,0.0894363602039026,-2.81616999062008,-6.10704794522729,-5.27926816939617,8.23742253209383,-2.50145528995131,-0.591060449559792,-18.061471838602,68.1892908475836,79.5991068495413,15.2952399045792,3.75968951355074,-3.90711143081995,-57.9751554671423,290.132927518701,-387.595899893795,-19.3699820261066,8.47942337763505,3.84552210378527,-38.5343137876839,-132.786585005543,-222.412050599092,91.6860828291771,0.282375990203649,0.0135524456069589
120.425,-32.1817100477132,26.3750719410795,43.7122744296462,1.12773238997987,4.81405898312707,-2.11369655685332,-2.0612691138943,-2.98891448456095,9.34544036739148,262.767819455694,-0.727693278237351,-5.32408872404933,-0.292019182366221,1.91669498251951,3.15371993507451,1.6277160493827,-2.16045398652304,24.5884491298637,-12.7563484820055,-35.743073431013,-3.81703506959815,7.09946657813192,-2.49389774236387,-6.4104372025691,-68.6616970617757,216.916218072384,-54.1921081542969,7.88679981231689,12.245735168457,187.985000610352,-127.785003662109,399.035003662109,0,0,0,10.8513794183283,-48.5368463249708,-26.9127078257459,-0.571320717604499,-1.65800926545006,2.87226289729726,3.30459300057708,-26.3171453480028,-266.287452474475,-202.964630965914,0.119896497178498,-2.17470567365858,-6.36548455504636,-5.64189216072944,7.2394665781319,-2.52466356795044,-0.271301952683099,-17.8386214325748,70.2235966968887,89.8534091040198,13.6422947715312,1.00821922187792,-1.3980387093601,-56.3101445763964,290.699604265456,-395.064572072934,-20.6366856519052,12.3666175540215,0.406707786292968,-98.7430338186671,-116.793503632249,-224.190063665318,67.1884560523339,0.282552509669547,0.00118677355490382
120.43,-31.8167058563232,23.3184719085693,40.9746325429616,1.15355371292733,5.90911726990851,-1.80659341812134,-1.75933615813388,-1.61828866958618,-40.5382690429688,231.082555562084,-0.72265926301324,-5.8230322158939,-0.672527492046356,1.59555706540338,3.51284704918592,1.20485646994572,-1.24563766483485,18.2750740219613,-10.2402908990387,-23.3821471629211,-4.40783060836718,6.44647529326097,-2.23996245349353,-17.0041364366722,-71.5969106515351,161.623700428041,-54.1921081542969,7.88679981231689,12.245735168457,187.985000610352,-127.785003662109,399.035003662109,0,0,0,10.0878512573242,-49.1481666564941,-34.9391958218645,-0.584238645069474,-2.44789079273823,2.65054941177368,3.08498788089532,-30.6078007125855,-267.265563964844,-225.207712197579,0.135813512350055,-1.60487990805733,-6.53626394271851,-5.91486705170317,6.1372518232811,-3.15758109476513,-0.757712848869625,-17.313632584468,69.1586524610801,97.9067013560989,11.4629601438145,-0.436051814178928,0.724602291474659,-49.8637625083033,283.337697465056,-400,-21.0691685814649,15.2298095681554,-2.18131733993729,-146.861677479412,-102.706486208402,-226.704985899525,47.438588706466,0.259789585714215,-0.00641932882550885
120.435,-31.8167058563232,23.3184719085693,38.0397954519293,1.18879314198822,6.92251746768139,-1.80659341812134,-1.76529992194432,-1.61828866958618,-40.5382690429688,189.647893174248,-0.697649708288228,-6.27773659054116,-0.672527492046356,1.62204856134451,3.72758917295285,1.21917261153018,-0.849557747664727,3.25490819085537,-1.04968148679109,-12.9720145786637,-3.95925817205403,6.46556348204025,0.000513704474855992,-19.0543493055582,-39.765588437193,105.160366705618,-54.1921081542969,7.88679981231689,12.245735168457,187.985000610352,-127.785003662109,399.035003662109,0,0,0,10.0878512573242,-49.1481666564941,-39.434733519503,-0.600524061311171,-3.17763705739633,2.65054941177368,3.08755377508801,-30.6078007125855,-267.265563964844,-238.271808399781,0.123398436017297,-1.17468541466802,-6.53626394271851,-6.01432895693378,4.8320969154976,-4.97811709958928,-2.81446518983742,-16.2001549056765,62.0565501236029,101.671316365346,8.2585304524923,0.666291087824691,2.09417983638825,-34.1042239328147,260.532025006844,-400,-19.8765372445913,16.0978532611603,-3.11164993908917,-171.422210796831,-92.3344422493919,-230.655046217463,36.9400848778601,0.192344057878162,-0.0047527684828402
120.44,-31.8167058563232,23.3184719085693,35.1048184134892,1.2240342514377,7.93596598933954,-1.80659341812134,-1.77198978938979,-1.61828866958618,-40.5382690429688,148.211254978755,-0.672638960985145,-6.73246264772024,-0.672527492046356,1.6129558252239,3.9423415366761,1.2334894357784,-0.453458943464077,-11.765973875329,8.14136617873065,-2.56138558829391,-3.51066434560991,6.48465258103787,2.24109669932074,-21.1046599386361,-7.93274834949179,48.6943405348741,-54.1921081542969,7.88679981231689,12.245735168457,187.985000610352,-127.785003662109,399.035003662109,0,0,0,10.0878512573242,-49.1481666564941,-43.930485586399,-0.616810254121284,-3.90741811993076,2.65054941177368,3.08981917071359,-30.6078007125855,-267.265563964844,-251.336527562081,0.110982767672888,-0.744470407498091,-6.53626394271851,-6.1106829355156,3.5268797715352,-6.79873991648749,-4.87131560683119,-15.0866241308152,54.9541091230987,105.436110889877,5.0539479582665,1.76868655493737,3.46382268946763,-18.3439338653335,237.725265062463,-400,-18.6838490372137,16.9659383467403,-4.04202690105632,-195.983915280781,-81.9619037005216,-234.605294893624,26.4410804291679,0.124895313908982,-0.00308612867041126
120.445,-31.8167058563232,23.3184719085693,32.1699813224569,1.25927368049859,8.94936618711242,-1.80659341812134,-1.77941760425492,-1.61828866958618,-40.5382690429688,106.776592590919,-0.647629406260133,-7.18716702236751,-0.672527492046356,1.56640259239653,4.15708366044303,1.24780557736286,-0.0573790262939531,-26.7861397064349,17.3319755909782,7.84874699596344,-3.06209190929675,6.50374076981715,4.48157285728913,-23.1548728075221,23.8985738648503,-7.76899318754949,-54.1921081542969,7.88679981231689,12.245735168457,187.985000610352,-127.785003662109,399.035003662109,0,0,0,10.0878512573242,-49.1481666564941,-48.4260232840375,-0.633095670362981,-4.63716438458886,2.65054941177368,3.09098328321667,-30.6078007125855,-267.265563964844,-264.400623764284,0.0985676913401306,-0.314275914108783,-6.53626394271851,-6.20390328870129,2.2217248637517,-8.61927592131164,-6.92806794779898,-13.9731464520237,47.8520067856215,109.200725899125,1.84951826694429,2.87102945694099,4.83340023438122,-2.58439528984485,214.919592604251,-400,-17.4912177003401,17.8339820397452,-4.97235950020819,-220.5444485982,-71.5898597415116,-238.555355211561,15.9425766005621,0.0574497860729294,-0.00141956832774261
120.45,-31.7275545106637,25.0193725148988,29.7219959113658,1.29363698010682,9.8945680087906,-1.71464947882148,-1.69572440391616,-1.83621441762205,-46.5914737253987,66.3128055277135,-0.614457003976142,-7.60483448547976,-0.722790177533728,1.43118896705175,4.29189033415562,1.24744965238842,0.310678627494929,-39.9288676805684,27.2677126853998,17.146875787352,-2.30104922628393,6.51477068849516,6.33666102265081,-24.6180339942244,49.208986402864,-63.6121864781729,-55.038500553173,6.75193089017635,11.6157626914508,175.120719827882,-124.726030646421,383.796266814405,0,0,0,9.97126855447704,-50.373815398891,-52.5388677565757,-0.647427634759282,-5.31399187718855,2.59385065304963,3.03354517635348,-30.9743122583677,-266.215008241902,-275.551183948333,0.0887089309359784,0.080395439018129,-6.44830423844024,-6.20630952637109,0.987634110787186,-9.70180230993498,-8.41713994169097,-11.8238864939545,42.1743312872565,112.872665492734,-0.9326417358152,3.99442038573672,5.9295786050684,12.2632561693786,188.701317352338,-399.923389510464,-16.4472019656674,18.8812249710004,-6.04702677465816,-239.734791833057,-62.8221105391628,-244.066282537973,6.89541376990357,0,0
120.455,-31.1262058873678,36.4923820405777,30.0720418750575,1.32295535732445,10.4476267638875,-1.09446409732992,-1.08475955275883,-3.3061793137495,-87.4218871687046,31.4402727941737,-0.534394999394382,-7.80956916692166,-1.06182484377871,0.968886318195231,3.96737833594974,1.16279434850862,0.517613814756659,-42.2804038994515,41.481442719538,20.0529100529101,0.255070643642067,6.47949764521192,5.97687598116169,-22.7077737077737,37.0448669496289,-115.874353160067,-60.7476337139423,-0.903050186121295,7.36643724426557,88.3478564347727,-104.092475447962,281.007090090957,0,0,0,9.18488841249954,-58.6411295760557,-54.4515958172643,-0.650531280635574,-5.68655277192009,2.21140302705989,2.64769382757058,-33.4465263550547,-259.128741253863,-275.703788374117,0.0935408524852144,0.270838897046843,-5.85499354097495,-5.7010299416449,0.1622448979592,-6.5436891679749,-6.64408163265306,-3.72415062891255,44.6826365873985,116.010950249045,-1.28772370486656,5.23838304552591,5.45456828885401,21.866813962052,142.884101788864,-399.406632168537,-16.2574044741117,20.9577341453995,-7.95063442787158,-228.064120018688,-63.2747810818898,-258.543519431792,6.18995290423862,0,0
120.46,-30.5248285888241,47.9659386555479,30.4221045306554,1.35227513258591,11.0007118915348,-0.474249142361585,-0.474927642245427,-4.77621430500336,-128.254247606119,-3.43392283253917,-0.454329177064085,-8.014313611116,-1.40087567685725,0.469392380047715,3.64285086342227,1.07813500784928,0.724558869701726,-44.6320522510999,55.6958505339458,22.9590828924162,2.81131240188383,6.4442229199372,5.6170737833595,-20.7974223307557,24.880167451596,-168.13901195806,-66.4570391141451,-8.55839628941223,3.11690916842905,1.57085528650687,-83.4579363405237,178.213011876081,0,0,0,8.39847077206502,-66.9088379792553,-56.3644150861958,-0.653635074508904,-6.05913143217996,1.82893716409405,2.25848160990005,-35.9188583390193,-252.042136357905,-275.856400076826,0.0983730044441375,0.461291436352465,-5.26165455154946,-5.19406767834514,-0.66318367346937,-3.38542543171116,-4.8709387755102,4.37597147120955,47.1910614958234,119.149384654147,-1.64282260596545,6.48240502354789,4.97953532182104,31.4708296994011,97.06470143613,-398.889850185088,-16.067597932082,23.0343423379272,-9.85433285442215,-216.392891689522,-63.7274732101656,-273.021446671179,5.48445839874411,0,0
120.465,-29.9234512902803,59.439495270518,30.7721671862534,1.38159490784737,11.5537970191821,0.145965812606752,0.133523391521461,-6.24624929625722,-169.086608043533,-38.308118459252,-0.374263354733788,-8.21905805531034,-1.73992650993578,-0.0650685345166221,3.3183233908948,0.993475667189934,0.931503924646793,-46.9837006027482,69.9102583483536,25.8652557319224,5.36755416012558,6.40894819466248,5.25727158555731,-18.8870709537376,12.7154679535632,-220.403670756052,-72.166444514348,-16.2137423927032,-1.13261890740746,-85.2061458617589,-62.8233972330857,75.4189336612049,0,0,0,7.61205313163051,-75.1765463824549,-58.2772343551272,-0.656738868382233,-6.43171009243984,1.4464713011282,1.86536871253172,-38.3911903229838,-244.955531461946,-276.009011779536,0.103205156403061,0.651743975658086,-4.66831556212397,-4.68620464316759,-1.48861224489794,-0.227161695447421,-3.09779591836734,12.4760935713317,49.6994864042483,122.287819059248,-1.99792150706435,7.72642700156988,4.50450235478808,41.0748454367502,51.2453010833963,-398.37306820164,-15.8777913900522,25.1109505304549,-11.7580312809727,-204.721663360356,-64.1801653384414,-287.499373910566,4.77896389324961,0,0
120.47,-29.3221026669845,70.9125047961969,31.1222131499451,1.410913285065,12.106855774279,0.766151194098312,0.740343367172943,-7.71621419238467,-209.917021486839,-73.1806511927918,-0.294201350152029,-8.42379273675224,-2.07896117618076,-0.63124085031191,2.99381139268892,0.908820363310137,1.13843911190852,-49.3352368216314,84.1239883824918,28.7712899974805,7.92367403005158,6.37367515137924,4.89748654406819,-16.9768106672869,0.55134850032809,-272.665837437946,-77.8755776751172,-23.8687234690008,-5.38194435459264,-171.979009254868,-42.1898420346267,-27.3702430622437,0,0,0,6.825672989653,-83.4438605596196,-60.1899624158158,-0.659842514258525,-6.80427098717138,1.06402367513847,1.46796685995735,-40.8634044196708,-237.869264473908,-276.16161620532,0.108037077952297,0.842187433686801,-4.07500486465868,-4.17820699040797,-2.31400145772593,2.93095144651266,-1.32473760932943,20.5758294363736,52.2077917043903,125.42610381556,-2.35300347611571,8.97038966135907,4.02949203857369,50.6784032294236,5.42808551992226,-397.856310859712,-15.6879938984965,27.187459704854,-13.6616389341861,-193.050991545988,-64.6328358811684,-301.976610804385,4.07350302758466,0,0
120.475,-28.3388066761381,71.6013877367148,35.9585677251932,1.39841102322289,12.4066491047643,2.19197027735712,2.15099790588292,-10.5027132371522,-224.976696890411,-102.043118799209,-0.150483799283848,-8.42243142804084,-3.05554180706505,-1.86249086985762,3.7200642551166,5.72158408276758,-1.54611112502816,-51.6574014539937,98.4164788635258,39.8781827954695,12.8609831158095,12.7634816753927,1.58913524887899,-35.1206501808137,-27.7713504105072,-297.066961986912,-71.7553459922316,-22.0445255413302,-6.58157800870195,-135.277312720609,-32.9241050562038,-106.965826666347,22.3548310328415,-0.0942274401305795,-0.0408455198346761,5.73566341932134,-90.214498245112,-64.3886509076937,-0.659735746645076,-6.93592396225731,0.264964952895074,0.649414818687381,-43.4457341595666,-238.65045535588,-271.204757745007,0.120690396820061,0.942741607480276,-3.40292200456506,-3.59191274465374,-3.76482126305767,4.03182995566021,0.601323680452926,17.2392980043848,57.2945255809681,134.506186601943,-1.06282897868182,11.0554594303465,2.62694443748593,47.8646012805561,-10.7511457615251,-394.586510987218,-13.6872289711895,28.8775802460506,-13.9817123665367,-154.501260810913,-69.6874821692837,-314.340045158447,4,0,0
120.48,-27.3111410838596,71.0359988152263,41.3164397306683,1.38104552647985,12.6769707396034,3.71141174946344,3.65332631988979,-13.4421819213371,-237.038335231535,-130.205056530162,0.000629485394145174,-8.39710043938181,-4.10621949187524,-3.19033042193218,4.56848643503093,11.1036802024099,-4.56680928880982,-53.9760264535685,112.717368721043,51.9382756254254,18.0749708159022,19.9002094240838,-2.06196948821364,-55.5958924847508,-57.9718463839893,-318.226441878137,-64.2596396751999,-19.1179599165424,-7.42645698130144,-84.2170058842929,-24.9809820421049,-183.859669888837,47.3084245597335,-0.199408876601457,-0.0864393558091793,4.61039860379974,-96.8107063371626,-68.8529818573166,-0.659255601339207,-7.03955141664271,-0.582504701726664,-0.222131231710105,-46.0407333171807,-240.346620116337,-265.653913041672,0.134252700614749,1.03283596117327,-2.7217134143132,-2.99743480859703,-5.28830381522582,4.89338560585186,2.54507728149503,12.5728625157302,62.6808698107495,144.276839921829,0.41862646859892,13.2382421904357,1.1165953555951,43.6067626449733,-23.4825048500992,-390.996695778086,-11.475948097633,30.5226723482155,-14.1175976716707,-112.827444590608,-75.2770867986662,-326.456978102826,4,0,0
120.485,-26.2834264874519,70.4705829332245,46.6745672257244,1.36367920166487,12.9473052647022,5.23092567598167,5.15370116536811,-16.3817907737869,-249.100548730656,-158.368337160248,0.151749975893734,-8.37176824281716,-5.15694727814387,-4.53497752164014,5.41694907187053,16.4860329667577,-7.58765149427588,-56.2947620165403,127.018940515037,63.9989435396802,23.2892071444676,27.037277486911,-5.71324832786394,-76.0721111485326,-88.1737824650473,-339.386930757005,-56.7635759261756,-16.1912547387706,-8.27137624186873,-33.1542642424432,-17.0374802609938,-260.757179786412,72.2632079961923,-0.304595328638425,-0.132035365921109,3.48508013013997,-103.407228968725,-73.3175256881064,-0.658775433137659,-7.14318381249272,-1.4300147678526,-1.09815422878194,-48.6358562170654,-242.042865758239,-260.102803646873,0.147815651126513,1.12293461100634,-2.04047234069907,-2.40410387423872,-6.81185901450436,5.75498233923697,4.48892357022971,7.90620450857431,68.067470887807,154.047959154325,1.90015255893184,15.4211290362985,-0.393825747137936,39.3487209747887,-36.2144710322354,-387.406709388982,-9.26456177937321,32.1678428964298,-14.2534894564816,-71.15164115862,-80.8669579677763,-338.574488841919,4,0,0
120.49,-25.3429832744982,67.8834017500787,51.6048417333884,1.34263717228789,13.2151945239607,6.74478066042965,6.64640535418425,-19.5717027168098,-260.174216333513,-185.65565643163,0.304946892207467,-8.32749451746779,-6.21583730355976,-5.89829058728131,6.0749511213341,21.3143099482461,-9.78059229442206,-56.6402998743424,137.973189501558,76.7961649592855,27.0376308223117,33.3473979298448,-8.97152961472112,-93.1504767178526,-119.163468432972,-359.19340617213,-49.612371337215,-11.3829607267089,-8.07316798626383,23.0153577104254,-7.47526765952788,-339.824678566896,129.840713053479,-0.398137166899055,-0.172210710591253,2.23326135412724,-110.420040009966,-78.0763092880742,-0.65692661786967,-7.23966469298864,-2.30845818202889,-2.00921835535163,-51.403476585862,-243.137182844446,-254.641365695486,0.162002672702428,1.20742699905669,-1.3757610180088,-1.82845246349486,-8.25612708453133,6.84276020701555,6.05295859689476,3.45736871623397,71.7795064568114,164.137793822191,3.02688901667625,17.6100546290972,-1.80889304197813,34.777646440767,-44.4571379890529,-382.033732313874,-6.76032642498313,33.8842134952819,-14.2075700471976,-34.448332658782,-85.8776716898062,-346.056160859365,4,0,0
120.495,-25.2971407871631,44.5584435645475,52.1494562257102,1.28388370716211,13.4581475242736,8.20140686865988,8.07998976487229,-25.3305794298885,-261.114732396815,-203.973258943575,0.479523057782055,-8.08892180889576,-7.35901232932536,-7.34981953235116,4.77983298747406,20.4622585443908,-3.48327699577466,-36.7477721322926,114.601249569026,97.1547721017348,15.7538485386404,31.1792548191114,-8.2007508063105,-75.3876729026282,-158.249404816472,-365.122971877212,-45.9944021888926,12.726572007642,2.8240626994397,131.594232806022,18.6945072435709,-441.19127293159,522.046528489637,-0.372295356099032,-0.156810156218463,-0.316689250192682,-121.706308777029,-85.8555396368627,-0.641039178360771,-7.2628473048288,-3.50464333424071,-3.24163975084496,-55.9418158254789,-238.058361699248,-250.096718137426,0.182598141361202,1.23446369319596,-0.880231536075595,-1.42281832156033,-8.88795597169787,10.2509658224367,3.72227029527214,1.24025490183369,58.3182271077738,177.501973296145,0.515303647773588,19.8620920319024,-2.24671637872839,26.9934731215952,-6.65939328165664,-358.370492756093,-1.25111865098409,36.3317740770579,-12.2968657661069,-48.7260922507459,-84.9509029721762,-305.994019338857,4,0,0
