X[s],"Avanti sensor 2: ACC.X 2",X[s],"Avanti sensor 2: ACC.Y 2",X[s],"Avanti sensor 2: ACC.Z 2",X[s],"Avanti sensor 2: GYRO.X 2",X[s],"Avanti sensor 2: GYRO.Y 2",X[s],"Avanti sensor 2: GYRO.Z 2",X[s],"L RECTUS FEMORIS: EMG 4",X[s],"L BICEPS FEMORIS: EMG 5",X[s],"Avanti sensor 7: ACC.X 7",X[s],"Avanti sensor 7: ACC.Y 7",X[s],"Avanti sensor 7: ACC.Z 7",X[s],"Avanti sensor 7: GYRO.X 7",X[s],"Avanti sensor 7: GYRO.Y 7",X[s],"Avanti sensor 7: GYRO.Z 7",X[s],"R RECTUS FEMORIS: EMG 10",X[s],"R BICEPS FEMORIS: EMG 15"
0.000000,0,0.000000,0,0.000000,0,0.000000,0,0.000000,0,0.000000,0,0.000000,0,0.000000,0,0.000000,0,0.000000,0,0.000000,0,0.000000,0,0.000000,0,0.000000,0,0.000000,0,0.000000,0
0.0027,0,0.0027,0,0.0027,0,0.0027,0,0.0027,0,0.0027,0,0.0004655172,0,0.0004655172,0,0.0027,0,0.0027,0,0.0027,0,0.0027,0,0.0027,0,0.0027,0,0.0004655172,0,0.0004655172,0
0.0054,0,0.0054,0,0.0054,0,0.0054,0,0.0054,0,0.0054,0,0.0009310344,0,0.0009310344,0,0.0054,0,0.0054,0,0.0054,0,0.0054,0,0.0054,0,0.0054,0,0.0009310344,0,0.0009310344,0
0.0081,0,0.0081,0,0.0081,0,0.0081,0,0.0081,0,0.0081,0,0.001396552,0,0.001396552,0,0.0081,0,0.0081,0,0.0081,0,0.0081,0,0.0081,0,0.0081,0,0.001396552,0,0.001396552,0
0.0108,0,0.0108,0,0.0108,0,0.0108,0,0.0108,0,0.0108,0,0.001862069,0,0.001862069,0,0.0108,0,0.0108,0,0.0108,0,0.0108,0,0.0108,0,0.0108,0,0.001862069,0,0.001862069,0
0.0135,0,0.0135,0,0.0135,0,0.0135,0,0.0135,0,0.0135,0,0.002327586,0,0.002327586,0,0.0135,0,0.0135,0,0.0135,0,0.0135,0,0.0135,0,0.0135,0,0.002327586,0,0.002327586,0
0.0162,0,0.0162,0,0.0162,0,0.0162,0,0.0162,0,0.0162,0,0.002793103,0,0.002793103,0,0.0162,0,0.0162,0,0.0162,0,0.0162,0,0.0162,0,0.0162,0,0.002793103,0,0.002793103,0
0.0189,0,0.0189,0,0.0189,0,0.0189,0,0.0189,0,0.0189,0,0.003258621,0,0.003258621,0,0.0189,0,0.0189,0,0.0189,0,0.0189,0,0.0189,0,0.0189,0,0.003258621,0,0.003258621,0
0.0216,0,0.0216,0,0.0216,0,0.0216,0,0.0216,0,0.0216,0,0.003724138,0,0.003724138,0,0.0216,0,0.0216,0,0.0216,0,0.0216,0,0.0216,0,0.0216,0,0.003724138,0,0.003724138,0
0.0243,0,0.0243,0,0.0243,0,0.0243,0,0.0243,0,0.0243,0,0.004189655,0,0.004189655,0,0.0243,0,0.0243,0,0.0243,0,0.0243,0,0.0243,0,0.0243,0,0.004189655,0,0.004189655,0
0.027,0,0.027,0,0.027,0,0.027,0,0.027,0,0.027,0,0.004655172,0,0.004655172,0,0.027,0,0.027,0,0.027,0,0.027,0,0.027,0,0.027,0,0.004655172,0,0.004655172,0
0.0297,0,0.0297,0,0.0297,0,0.0297,0,0.0297,0,0.0297,0,0.00512069,0,0.00512069,0,0.0297,0,0.0297,0,0.0297,0,0.0297,0,0.0297,0,0.0297,0,0.00512069,0,0.00512069,0
0.0324,0,0.0324,0,0.0324,0,0.0324,0,0.0324,0,0.0324,0,0.005586207,0,0.005586207,0,0.0324,0,0.0324,0,0.0324,0,0.0324,0,0.0324,0,0.0324,0,0.005586207,0,0.005586207,0
0.0351,0,0.0351,0,0.0351,0,0.0351,0,0.0351,0,0.0351,0,0.006051724,0,0.006051724,0,0.0351,0,0.0351,0,0.0351,0,0.0351,0,0.0351,0,0.0351,0,0.006051724,0,0.006051724,0
0.0378,0,0.0378,0,0.0378,0,0.0378,0,0.0378,0,0.0378,0,0.006517241,0,0.006517241,0,0.0378,0,0.0378,0,0.0378,0,0.0378,0,0.0378,0,0.0378,0,0.006517241,0,0.006517241,0
0.0405,0,0.0405,0,0.0405,0,0.0405,0,0.0405,0,0.0405,0,0.006982759,0,0.006982759,0,0.0405,0,0.0405,0,0.0405,0,0.0405,0,0.0405,0,0.0405,0,0.006982759,0,0.006982759,0
0.0432,0,0.0432,0,0.0432,0,0.0432,0,0.0432,0,0.0432,0,0.007448276,0,0.007448276,0,0.0432,0,0.0432,0,0.0432,0,0.0432,0,0.0432,0,0.0432,0,0.007448276,0,0.007448276,0
0.0459,0,0.0459,0,0.0459,0,0.0459,0,0.0459,0,0.0459,0,0.007913793,0,0.007913793,0,0.0459,0,0.0459,0,0.0459,0,0.0459,0,0.0459,0,0.0459,0,0.007913793,0,0.007913793,0
0.0486,0,0.0486,0,0.0486,0,0.0486,0,0.0486,0,0.0486,0,0.00837931,0,0.00837931,0,0.0486,0,0.0486,0,0.0486,0,0.0486,0,0.0486,0,0.0486,0,0.00837931,0,0.00837931,0
0.0513,0,0.0513,0,0.0513,0,0.0513,0,0.0513,0,0.0513,0,0.008844827,0,0.008844827,0,0.0513,0,0.0513,0,0.0513,0,0.0513,0,0.0513,0,0.0513,0,0.008844827,0,0.008844827,0
0.054,0,0.054,0,0.054,0,0.054,0,0.054,0,0.054,0,0.009310344,0,0.009310344,0,0.054,0,0.054,0,0.054,0,0.054,0,0.054,0,0.054,0,0.009310344,0,0.009310344,0
0.0567,0,0.0567,0,0.0567,0,0.0567,0,0.0567,0,0.0567,0,0.009775862,0,0.009775862,0,0.0567,0,0.0567,0,0.0567,0,0.0567,0,0.0567,0,0.0567,0,0.009775862,0,0.009775862,0
0.0594,0,0.0594,0,0.0594,0,0.0594,0,0.0594,0,0.0594,0,0.01024138,0,0.01024138,0,0.0594,0,0.0594,0,0.0594,0,0.0594,0,0.0594,0,0.0594,0,0.01024138,0,0.01024138,0
0.0621,0,0.0621,0,0.0621,0,0.0621,0,0.0621,0,0.0621,0,0.0107069,0,0.0107069,0,0.0621,0,0.0621,0,0.0621,0,0.0621,0,0.0621,0,0.0621,0,0.0107069,0,0.0107069,0
0.0648,0,0.0648,0,0.0648,0,0.0648,0,0.0648,0,0.0648,0,0.01117241,0,0.01117241,0,0.0648,0,0.0648,0,0.0648,0,0.0648,0,0.0648,0,0.0648,0,0.01117241,0,0.01117241,0
0.0675,0,0.0675,0,0.0675,0,0.0675,0,0.0675,0,0.0675,0,0.01163793,0,0.01163793,0,0.0675,0,0.0675,0,0.0675,0,0.0675,0,0.0675,0,0.0675,0,0.01163793,0,0.01163793,0
0.0702,0,0.0702,0,0.0702,0,0.0702,0,0.0702,0,0.0702,0,0.01210345,0,0.01210345,0,0.0702,0,0.0702,0,0.0702,0,0.0702,0,0.0702,0,0.0702,0,0.01210345,0,0.01210345,0
0.0729,0,0.0729,0,0.0729,0,0.0729,0,0.0729,0,0.0729,0,0.01256897,0,0.01256897,0,0.0729,0,0.0729,0,0.0729,0,0.0729,0,0.0729,0,0.0729,0,0.01256897,0,0.01256897,0
0.0756,0,0.0756,0,0.0756,0,0.0756,0,0.0756,0,0.0756,0,0.01303448,0,0.01303448,0,0.0756,0,0.0756,0,0.0756,0,0.0756,0,0.0756,0,0.0756,0,0.01303448,0,0.01303448,0
0.0783,0,0.0783,0,0.0783,0,0.0783,0,0.0783,0,0.0783,0,0.0135,0,0.0135,0,0.0783,0,0.0783,0,0.0783,0,0.0783,0,0.0783,0,0.0783,0,0.0135,0,0.0135,0
0.081,0,0.081,0,0.081,0,0.081,0,0.081,0,0.081,0,0.01396552,0,0.01396552,0,0.081,0,0.081,0,0.081,0,0.081,0,0.081,0,0.081,0,0.01396552,0,0.01396552,0
0.0837,0,0.0837,0,0.0837,0,0.0837,0,0.0837,0,0.0837,0,0.01443103,0,0.01443103,0,0.0837,0,0.0837,0,0.0837,0,0.0837,0,0.0837,0,0.0837,0,0.01443103,0,0.01443103,0
0.0864,0,0.0864,0,0.0864,0,0.0864,0,0.0864,0,0.0864,0,0.01489655,0,0.01489655,0,0.0864,0,0.0864,0,0.0864,0,0.0864,0,0.0864,0,0.0864,0,0.01489655,0,0.01489655,0
0.0891,0,0.0891,0,0.0891,0,0.0891,0,0.0891,0,0.0891,0,0.01536207,0,0.01536207,0,0.0891,0,0.0891,0,0.0891,0,0.0891,0,0.0891,0,0.0891,0,0.01536207,0,0.01536207,0
0.0918,0,0.0918,0,0.0918,0,0.0918,0,0.0918,0,0.0918,0,0.01582759,0,0.01582759,0,0.0918,0,0.0918,0,0.0918,0,0.0918,0,0.0918,0,0.0918,0,0.01582759,0,0.01582759,0
0.09450001,0.04052734,0.09450001,-0.996582,0.09450001,-0.1464844,0.09450001,-3.353659,0.09450001,2.926829,0.09450001,1.768293,0.0162931,0,0.0162931,0,0.09450001,0,0.09450001,0,0.09450001,0,0.09450001,0,0.09450001,0,0.09450001,0,0.0162931,0,0.0162931,0
0.0972,0.04052734,0.0972,-0.9975586,0.0972,-0.1499023,0.0972,-3.841464,0.0972,3.04878,0.0972,2.134146,0.01675862,0,0.01675862,0,0.0972,0,0.0972,0,0.0972,0,0.0972,0,0.0972,0,0.0972,0,0.01675862,0,0.01675862,0
0.0999,0.03808594,0.0999,-0.9990234,0.0999,-0.1499023,0.0999,-3.353659,0.0999,2.926829,0.0999,2.195122,0.01722414,0,0.01722414,0,0.0999,0,0.0999,0,0.0999,0,0.0999,0,0.0999,0,0.0999,0,0.01722414,0,0.01722414,0
0.1026,0.04345703,0.1026,-0.9985352,0.1026,-0.1474609,0.1026,-3.292683,0.1026,2.865854,0.1026,2.134146,0.01768965,0,0.01768965,0,0.1026,0,0.1026,0,0.1026,0,0.1026,0,0.1026,0,0.1026,0,0.01768965,0,0.01768965,0
0.1053,0.04003906,0.1053,-0.9985352,0.1053,-0.1484375,0.1053,-3.353659,0.1053,2.865854,0.1053,1.95122,0.01815517,0,0.01815517,0,0.1053,0,0.1053,0,0.1053,0,0.1053,0,0.1053,0,0.1053,0,0.01815517,0,0.01815517,0
0.108,0.03564453,0.108,-0.9975586,0.108,-0.1503906,0.108,-3.658537,0.108,3.04878,0.108,2.195122,0.01862069,0,0.01862069,0,0.108,0.09716797,0.108,-1.009277,0.108,-0.04785156,0.108,-1.402439,0.108,3.658537,0.108,1.097561,0.01862069,0,0.01862069,0
0.1107,0.03417969,0.1107,-0.9960938,0.1107,-0.1508789,0.1107,-3.170732,0.1107,2.926829,0.1107,2.256098,0.01908621,0,0.01908621,0,0.1107,0.09960938,0.1107,-1.008301,0.1107,-0.04736328,0.1107,-1.463415,0.1107,3.536585,0.1107,1.097561,0.01908621,0,0.01908621,0
0.1134,0.03613281,0.1134,-0.9956055,0.1134,-0.1489258,0.1134,-3.536585,0.1134,2.865854,0.1134,2.012195,0.01955172,0,0.01955172,0,0.1134,0.1005859,0.1134,-1.009277,0.1134,-0.04785156,0.1134,-1.341463,0.1134,3.841464,0.1134,0.8536586,0.01955172,0,0.01955172,0
0.1161,0.03759766,0.1161,-1.000488,0.1161,-0.1479492,0.1161,-3.597561,0.1161,2.987805,0.1161,2.134146,0.02001724,0,0.02001724,0,0.1161,0.1035156,0.1161,-1.00293,0.1161,-0.04589844,0.1161,-1.280488,0.1161,3.597561,0.1161,1.036585,0.02001724,0,0.02001724,0
0.1188,0.03857422,0.1188,-0.9985352,0.1188,-0.1450195,0.1188,-3.658537,0.1188,2.926829,0.1188,2.134146,0.02048276,0,0.02048276,0,0.1188,0.1020508,0.1188,-1.003906,0.1188,-0.04882813,0.1188,-1.280488,0.1188,3.841464,0.1188,0.9146342,0.02048276,0,0.02048276,0
0.1215,0.03662109,0.1215,-1.001465,0.1215,-0.1484375,0.1215,-3.414634,0.1215,2.804878,0.1215,2.073171,0.02094828,0,0.02094828,0,0.1215,0.1000977,0.1215,-1.006348,0.1215,-0.04785156,0.1215,-1.341463,0.1215,3.719512,0.1215,1.036585,0.02094828,0,0.02094828,0
0.1242,0.03808594,0.1242,-1.000488,0.1242,-0.1523438,0.1242,-3.841464,0.1242,2.926829,0.1242,2.073171,0.02141379,0,0.02141379,0,0.1242,0.09619141,0.1242,-1.004395,0.1242,-0.05029297,0.1242,-1.52439,0.1242,3.47561,0.1242,1.036585,0.02141379,0,0.02141379,0
0.1269,0.04150391,0.1269,-1.000977,0.1269,-0.1499023,0.1269,-3.658537,0.1269,3.04878,0.1269,2.073171,0.02187931,0,0.02187931,0,0.1269,0.09814453,0.1269,-1.006836,0.1269,-0.05126953,0.1269,-1.402439,0.1269,3.597561,0.1269,0.9146342,0.02187931,0,0.02187931,0
0.1296,0.04101563,0.1296,-1.001465,0.1296,-0.152832,0.1296,-3.841464,0.1296,2.987805,0.1296,2.134146,0.02234483,0,0.02234483,0,0.1296,0.09570313,0.1296,-1.008789,0.1296,-0.04638672,0.1296,-1.585366,0.1296,3.658537,0.1296,0.9756098,0.02234483,0,0.02234483,0
0.1323,0.04394531,0.1323,-1.000977,0.1323,-0.1459961,0.1323,-3.719512,0.1323,3.04878,0.1323,2.012195,0.02281034,0,0.02281034,0,0.1323,0.09472656,0.1323,-1.008789,0.1323,-0.04589844,0.1323,-1.402439,0.1323,3.780488,0.1323,0.7317073,0.02281034,0,0.02281034,0
0.135,0.04150391,0.135,-0.9990234,0.135,-0.1484375,0.135,-3.902439,0.135,3.109756,0.135,2.134146,0.02327586,0,0.02327586,0,0.135,0.09326172,0.135,-1.009277,0.135,-0.04833984,0.135,-1.707317,0.135,3.719512,0.135,0.9146342,0.02327586,0,0.02327586,0
0.1377,0.03955078,0.1377,-0.9975586,0.1377,-0.1450195,0.1377,-4.02439,0.1377,2.926829,0.1377,2.073171,0.02374138,0,0.02374138,0,0.1377,0.09667969,0.1377,-1.009277,0.1377,-0.04785156,0.1377,-1.52439,0.1377,3.47561,0.1377,0.9756098,0.02374138,0,0.02374138,0
0.1404,0.03808594,0.1404,-0.9960938,0.1404,-0.1464844,0.1404,-3.963415,0.1404,3.04878,0.1404,2.317073,0.0242069,0,0.0242069,0,0.1404,0.09863281,0.1404,-1.00293,0.1404,-0.04785156,0.1404,-1.829268,0.1404,3.658537,0.1404,0.7926829,0.0242069,0,0.0242069,0
0.1431,0.03564453,0.1431,-0.9956055,0.1431,-0.1484375,0.1431,-4.02439,0.1431,2.926829,0.1431,2.012195,0.02467241,0,0.02467241,0,0.1431,0.09716797,0.1431,-1.006836,0.1431,-0.046875,0.1431,-1.707317,0.1431,3.597561,0.1431,0.9146342,0.02467241,0,0.02467241,0
0.1458,0.03515625,0.1458,-0.9931641,0.1458,-0.1513672,0.1458,-3.841464,0.1458,3.04878,0.1458,2.195122,0.02513793,0,0.02513793,0,0.1458,0.09375,0.1458,-1.008301,0.1458,-0.04785156,0.1458,-1.768293,0.1458,3.597561,0.1458,0.7926829,0.02513793,0,0.02513793,0
0.1485,0.03808594,0.1485,-0.996582,0.1485,-0.1494141,0.1485,-4.02439,0.1485,2.621951,0.1485,2.012195,0.02560345,0,0.02560345,0,0.1485,0.09423828,0.1485,-1.006836,0.1485,-0.04931641,0.1485,-1.463415,0.1485,3.414634,0.1485,1.036585,0.02560345,0,0.02560345,0
0.1512,0.03955078,0.1512,-1.001953,0.1512,-0.1479492,0.1512,-3.902439,0.1512,3.109756,0.1512,2.012195,0.02606896,0,0.02606896,0,0.1512,0.09667969,0.1512,-1.008789,0.1512,-0.04638672,0.1512,-1.707317,0.1512,3.353659,0.1512,1.158537,0.02606896,0,0.02606896,0
0.1539,0.04199219,0.1539,-0.9970703,0.1539,-0.1484375,0.1539,-3.963415,0.1539,3.170732,0.1539,2.317073,0.02653448,0,0.02653448,0,0.1539,0.09814453,0.1539,-1.005859,0.1539,-0.04443359,0.1539,-1.341463,0.1539,3.47561,0.1539,0.9146342,0.02653448,0,0.02653448,0
0.1566,0.04052734,0.1566,-0.996582,0.1566,-0.1484375,0.1566,-4.085366,0.1566,3.170732,0.1566,2.195122,0.027,0,0.027,0,0.1566,0.09912109,0.1566,-1.01123,0.1566,-0.04833984,0.1566,-1.585366,0.1566,3.414634,0.1566,1.036585,0.027,0,0.027,0
0.1593,0.04003906,0.1593,-1.00293,0.1593,-0.1513672,0.1593,-4.02439,0.1593,3.170732,0.1593,2.134146,0.02746552,0,0.02746552,0,0.1593,0.09326172,0.1593,-1.009766,0.1593,-0.04833984,0.1593,-1.646341,0.1593,3.47561,0.1593,0.8536586,0.02746552,0,0.02746552,0
0.162,0.04150391,0.162,-1.003418,0.162,-0.1489258,0.162,-4.085366,0.162,2.926829,0.162,2.073171,0.02793103,0,0.02793103,0,0.162,0.09423828,0.162,-1.006348,0.162,-0.04882813,0.162,-1.829268,0.162,3.292683,0.162,0.8536586,0.02793103,0,0.02793103,0
0.1647,0.04150391,0.1647,-1.001953,0.1647,-0.1523438,0.1647,-3.902439,0.1647,2.926829,0.1647,2.012195,0.02839655,0,0.02839655,0,0.1647,0.09375,0.1647,-1.007324,0.1647,-0.04736328,0.1647,-1.646341,0.1647,3.47561,0.1647,0.7926829,0.02839655,0,0.02839655,0
0.1674,0.03564453,0.1674,-1,0.1674,-0.1523438,0.1674,-4.085366,0.1674,3.109756,0.1674,1.890244,0.02886207,0,0.02886207,0,0.1674,0.09765625,0.1674,-1.004395,0.1674,-0.04736328,0.1674,-1.585366,0.1674,3.353659,0.1674,0.9146342,0.02886207,0,0.02886207,0
0.1701,0.0390625,0.1701,-1,0.1701,-0.1503906,0.1701,-4.02439,0.1701,3.109756,0.1701,1.768293,0.02932759,0,0.02932759,0,0.1701,0.09863281,0.1701,-1.007813,0.1701,-0.05078125,0.1701,-1.585366,0.1701,3.231707,0.1701,1.097561,0.02932759,0,0.02932759,0
0.1728,0.04150391,0.1728,-0.996582,0.1728,-0.1523438,0.1728,-3.597561,0.1728,3.231707,0.1728,1.890244,0.0297931,0,0.0297931,0,0.1728,0.09912109,0.1728,-1.012695,0.1728,-0.05029297,0.1728,-1.707317,0.1728,3.231707,0.1728,0.9756098,0.0297931,0,0.0297931,0
0.1755,0.04052734,0.1755,-0.9951172,0.1755,-0.1499023,0.1755,-3.658537,0.1755,3.170732,0.1755,1.890244,0.03025862,0,0.03025862,0,0.1755,0.09814453,0.1755,-1.009277,0.1755,-0.04882813,0.1755,-1.585366,0.1755,3.292683,0.1755,1.219512,0.03025862,0,0.03025862,0
0.1782,0.0390625,0.1782,-0.9970703,0.1782,-0.1489258,0.1782,-3.658537,0.1782,3.170732,0.1782,2.073171,0.03072414,0,0.03072414,0,0.1782,0.09960938,0.1782,-1.009277,0.1782,-0.04833984,0.1782,-1.646341,0.1782,3.353659,0.1782,0.7926829,0.03072414,0,0.03072414,0
0.1809,0.03564453,0.1809,-0.9975586,0.1809,-0.1464844,0.1809,-3.841464,0.1809,3.109756,0.1809,1.829268,0.03118965,0,0.03118965,0,0.1809,0.1035156,0.1809,-1.009766,0.1809,-0.04785156,0.1809,-1.52439,0.1809,3.231707,0.1809,1.036585,0.03118965,0,0.03118965,0
0.1836,0.0390625,0.1836,-0.9975586,0.1836,-0.1484375,0.1836,-3.780488,0.1836,3.109756,0.1836,1.707317,0.03165517,0,0.03165517,0,0.1836,0.1030273,0.1836,-1.007324,0.1836,-0.04736328,0.1836,-1.52439,0.1836,3.231707,0.1836,1.158537,0.03165517,0,0.03165517,0
0.1863,0.03417969,0.1863,-0.9946289,0.1863,-0.1542969,0.1863,-3.841464,0.1863,3.04878,0.1863,2.073171,0.03212069,0,0.03212069,0,0.1863,0.1000977,0.1863,-1.008789,0.1863,-0.046875,0.1863,-1.402439,0.1863,3.170732,0.1863,0.9756098,0.03212069,0,0.03212069,0
0.189,0.03759766,0.189,-0.9956055,0.189,-0.1533203,0.189,-3.780488,0.189,2.926829,0.189,2.073171,0.03258621,0,0.03258621,0,0.189,0.1030273,0.189,-1.006348,0.189,-0.04785156,0.189,-1.341463,0.189,3.536585,0.189,1.036585,0.03258621,0,0.03258621,0
0.1917,0.03564453,0.1917,-0.9990234,0.1917,-0.1499023,0.1917,-4.146341,0.1917,3.170732,0.1917,1.890244,0.03305172,0,0.03305172,0,0.1917,0.09667969,0.1917,-1.009766,0.1917,-0.04296875,0.1917,-1.402439,0.1917,3.597561,0.1917,1.097561,0.03305172,0,0.03305172,0
0.1944,0.03808594,0.1944,-0.9975586,0.1944,-0.1484375,0.1944,-4.02439,0.1944,3.109756,0.1944,2.073171,0.03351724,0,0.03351724,0,0.1944,0.09912109,0.1944,-1.011719,0.1944,-0.04492188,0.1944,-1.341463,0.1944,3.292683,0.1944,1.158537,0.03351724,0,0.03351724,0
0.1971,0.0390625,0.1971,-0.9980469,0.1971,-0.1499023,0.1971,-4.207317,0.1971,3.292683,0.1971,2.012195,0.03398276,0,0.03398276,0,0.1971,0.1015625,0.1971,-1.010742,0.1971,-0.04785156,0.1971,-1.219512,0.1971,3.536585,0.1971,0.9756098,0.03398276,0,0.03398276,0
0.1998,0.03759766,0.1998,-1,0.1998,-0.1503906,0.1998,-4.390244,0.1998,3.658537,0.1998,1.95122,0.03444827,0,0.03444827,0,0.1998,0.1000977,0.1998,-1.009277,0.1998,-0.04638672,0.1998,-1.097561,0.1998,3.597561,0.1998,0.9146342,0.03444827,0,0.03444827,0
0.2025,0.04101563,0.2025,-0.9970703,0.2025,-0.1503906,0.2025,-4.085366,0.2025,3.292683,0.2025,1.829268,0.03491379,0,0.03491379,0,0.2025,0.1044922,0.2025,-1.012695,0.2025,-0.04882813,0.2025,-0.9146342,0.2025,3.597561,0.2025,1.158537,0.03491379,0,0.03491379,0
0.2052,0.03857422,0.2052,-0.9985352,0.2052,-0.1552734,0.2052,-3.841464,0.2052,3.536585,0.2052,1.707317,0.03537931,0,0.03537931,0,0.2052,0.1044922,0.2052,-1.010742,0.2052,-0.04785156,0.2052,-0.9756098,0.2052,3.47561,0.2052,0.7926829,0.03537931,0,0.03537931,0
0.2079,0.03710938,0.2079,-1,0.2079,-0.1494141,0.2079,-4.085366,0.2079,3.536585,0.2079,2.012195,0.03584483,0,0.03584483,0,0.2079,0.1044922,0.2079,-1.010254,0.2079,-0.04980469,0.2079,-0.9756098,0.2079,3.536585,0.2079,1.097561,0.03584483,0,0.03584483,0
0.2106,0.03662109,0.2106,-1.000488,0.2106,-0.1430664,0.2106,-3.902439,0.2106,3.536585,0.2106,2.134146,0.03631034,0,0.03631034,0,0.2106,0.09863281,0.2106,-1.005859,0.2106,-0.046875,0.2106,-0.9756098,0.2106,3.780488,0.2106,1.158537,0.03631034,0,0.03631034,0
0.2133,0.04101563,0.2133,-1.000488,0.2133,-0.1464844,0.2133,-3.719512,0.2133,3.597561,0.2133,2.134146,0.03677586,0,0.03677586,0,0.2133,0.1005859,0.2133,-1.006348,0.2133,-0.04443359,0.2133,-0.9146342,0.2133,4.02439,0.2133,1.280488,0.03677586,0,0.03677586,0
0.216,0.03759766,0.216,-1.001953,0.216,-0.1474609,0.216,-3.719512,0.216,3.597561,0.216,1.890244,0.03724138,0,0.03724138,0,0.216,0.1035156,0.216,-1,0.216,-0.04541016,0.216,-1.158537,0.216,3.841464,0.216,1.219512,0.03724138,0,0.03724138,0
0.2187,0.0390625,0.2187,-1.003906,0.2187,-0.1459961,0.2187,-3.719512,0.2187,3.231707,0.2187,2.012195,0.0377069,0,0.0377069,0,0.2187,0.1010742,0.2187,-1.004883,0.2187,-0.046875,0.2187,-1.158537,0.2187,3.963415,0.2187,0.9756098,0.0377069,0,0.0377069,0
0.2214,0.04052734,0.2214,-1.001953,0.2214,-0.1450195,0.2214,-3.902439,0.2214,3.231707,0.2214,2.012195,0.03817241,0,0.03817241,0,0.2214,0.09716797,0.2214,-1.007324,0.2214,-0.04589844,0.2214,-1.158537,0.2214,3.719512,0.2214,0.7317073,0.03817241,0,0.03817241,0
0.2241,0.0390625,0.2241,-1.000977,0.2241,-0.1474609,0.2241,-4.02439,0.2241,3.353659,0.2241,1.95122,0.03863793,0,0.03863793,0,0.2241,0.09570313,0.2241,-1.009277,0.2241,-0.04785156,0.2241,-1.402439,0.2241,3.780488,0.2241,0.8536586,0.03863793,0,0.03863793,0
0.2268,0.03759766,0.2268,-1.001953,0.2268,-0.1484375,0.2268,-3.780488,0.2268,3.109756,0.2268,2.134146,0.03910345,0,0.03910345,0,0.2268,0.09375,0.2268,-1.015625,0.2268,-0.05175781,0.2268,-1.341463,0.2268,3.719512,0.2268,0.7926829,0.03910345,0,0.03910345,0
0.2295,0.03759766,0.2295,-1.001953,0.2295,-0.1474609,0.2295,-3.780488,0.2295,3.04878,0.2295,1.95122,0.03956896,0,0.03956896,0,0.2295,0.09667969,0.2295,-1.011719,0.2295,-0.05029297,0.2295,-1.829268,0.2295,3.597561,0.2295,0.7926829,0.03956896,0,0.03956896,0
0.2322,0.03466797,0.2322,-1.003418,0.2322,-0.1489258,0.2322,-3.902439,0.2322,3.04878,0.2322,2.317073,0.04003448,0,0.04003448,0,0.2322,0.09472656,0.2322,-1.010254,0.2322,-0.04785156,0.2322,-1.52439,0.2322,3.353659,0.2322,0.9146342,0.04003448,0,0.04003448,0
0.2349,0.03613281,0.2349,-1.003418,0.2349,-0.1479492,0.2349,-3.902439,0.2349,2.865854,0.2349,2.195122,0.0405,0,0.0405,0,0.2349,0.09521484,0.2349,-1.007813,0.2349,-0.04882813,0.2349,-1.463415,0.2349,3.719512,0.2349,0.9756098,0.0405,0,0.0405,0
0.2376,0.03564453,0.2376,-1.004395,0.2376,-0.1484375,0.2376,-4.268293,0.2376,2.926829,0.2376,2.439024,0.04096552,0,0.04096552,0,0.2376,0.1020508,0.2376,-1.007813,0.2376,-0.04931641,0.2376,-1.52439,0.2376,3.597561,0.2376,0.9756098,0.04096552,0,0.04096552,0
0.2403,0.03759766,0.2403,-1.002441,0.2403,-0.1503906,0.2403,-4.146341,0.2403,2.987805,0.2403,2.5,0.04143103,0,0.04143103,0,0.2403,0.09912109,0.2403,-1.013672,0.2403,-0.05029297,0.2403,-1.280488,0.2403,3.719512,0.2403,0.8536586,0.04143103,0,0.04143103,0
0.243,0.03271484,0.243,-1.001465,0.243,-0.1469727,0.243,-3.963415,0.243,2.865854,0.243,2.012195,0.04189655,0,0.04189655,0,0.243,0.09375,0.243,-1.012207,0.243,-0.05078125,0.243,-1.219512,0.243,3.841464,0.243,0.8536586,0.04189655,0,0.04189655,0
0.2457,0.03857422,0.2457,-0.9990234,0.2457,-0.1464844,0.2457,-3.841464,0.2457,2.621951,0.2457,2.317073,0.04236207,0,0.04236207,0,0.2457,0.09472656,0.2457,-1.013184,0.2457,-0.04931641,0.2457,-1.707317,0.2457,3.780488,0.2457,0.8536586,0.04236207,0,0.04236207,0
0.2484,0.03710938,0.2484,-1.000977,0.2484,-0.1484375,0.2484,-4.02439,0.2484,2.865854,0.2484,2.378049,0.04282758,0,0.04282758,0,0.2484,0.09765625,0.2484,-1.012207,0.2484,-0.05078125,0.2484,-1.646341,0.2484,3.658537,0.2484,0.9756098,0.04282758,0,0.04282758,0
0.2511,0.03808594,0.2511,-1.001953,0.2511,-0.1464844,0.2511,-4.02439,0.2511,2.804878,0.2511,2.073171,0.0432931,0,0.0432931,0,0.2511,0.09765625,0.2511,-1.011719,0.2511,-0.05224609,0.2511,-1.402439,0.2511,3.719512,0.2511,0.8536586,0.0432931,0,0.0432931,0
0.2538,0.03369141,0.2538,-1.00293,0.2538,-0.1474609,0.2538,-3.597561,0.2538,2.378049,0.2538,2.134146,0.04375862,0,0.04375862,0,0.2538,0.09765625,0.2538,-1.010742,0.2538,-0.05322266,0.2538,-1.402439,0.2538,3.597561,0.2538,0.7317073,0.04375862,0,0.04375862,0
0.2565,0.03955078,0.2565,-0.9985352,0.2565,-0.1459961,0.2565,-3.841464,0.2565,2.439024,0.2565,1.646341,0.04422414,0,0.04422414,0,0.2565,0.1010742,0.2565,-1.013672,0.2565,-0.05224609,0.2565,-1.219512,0.2565,3.597561,0.2565,0.9756098,0.04422414,0,0.04422414,0
0.2592,0.04101563,0.2592,-1,0.2592,-0.1474609,0.2592,-3.719512,0.2592,2.743902,0.2592,2.012195,0.04468966,0,0.04468966,0,0.2592,0.09863281,0.2592,-1.011719,0.2592,-0.04931641,0.2592,-1.158537,0.2592,3.658537,0.2592,0.9756098,0.04468966,0,0.04468966,0
0.2619,0.04101563,0.2619,-1.000977,0.2619,-0.1499023,0.2619,-3.902439,0.2619,2.682927,0.2619,2.134146,0.04515517,0,0.04515517,0,0.2619,0.1035156,0.2619,-1.008301,0.2619,-0.05322266,0.2619,-1.402439,0.2619,3.414634,0.2619,0.9756098,0.04515517,0,0.04515517,0
0.2646,0.03662109,0.2646,-1.000488,0.2646,-0.1499023,0.2646,-3.902439,0.2646,2.926829,0.2646,1.95122,0.04562069,0,0.04562069,0,0.2646,0.09863281,0.2646,-1.006348,0.2646,-0.05322266,0.2646,-1.036585,0.2646,3.658537,0.2646,0.7317073,0.04562069,0,0.04562069,0
0.2673,0.04101563,0.2673,-0.9995117,0.2673,-0.1484375,0.2673,-3.841464,0.2673,2.865854,0.2673,1.707317,0.04608621,0,0.04608621,0,0.2673,0.09765625,0.2673,-1.004883,0.2673,-0.05566406,0.2673,-1.158537,0.2673,3.719512,0.2673,0.9756098,0.04608621,0,0.04608621,0
0.27,0.04101563,0.27,-0.9975586,0.27,-0.1508789,0.27,-3.597561,0.27,2.743902,0.27,1.829268,0.04655172,0,0.04655172,0,0.27,0.1000977,0.27,-1.004883,0.27,-0.05419922,0.27,-0.9146342,0.27,3.47561,0.27,1.036585,0.04655172,0,0.04655172,0
0.2727,0.0390625,0.2727,-0.9985352,0.2727,-0.1489258,0.2727,-3.597561,0.2727,2.865854,0.2727,1.768293,0.04701724,0,0.04701724,0,0.2727,0.1035156,0.2727,-1.007324,0.2727,-0.05273438,0.2727,-0.9756098,0.2727,3.658537,0.2727,0.7926829,0.04701724,0,0.04701724,0
0.2754,0.04248047,0.2754,-0.9956055,0.2754,-0.1455078,0.2754,-3.841464,0.2754,2.682927,0.2754,2.012195,0.04748276,0,0.04748276,0,0.2754,0.1044922,0.2754,-1.005859,0.2754,-0.04882813,0.2754,-1.097561,0.2754,3.536585,0.2754,0.7317073,0.04748276,0,0.04748276,0
0.2781,0.04492188,0.2781,-0.9975586,0.2781,-0.1450195,0.2781,-3.719512,0.2781,2.865854,0.2781,1.829268,0.04794827,0,0.04794827,0,0.2781,0.09765625,0.2781,-1.004395,0.2781,-0.04931641,0.2781,-1.036585,0.2781,3.597561,0.2781,0.9756098,0.04794827,0,0.04794827,0
0.2808,0.04248047,0.2808,-0.9975586,0.2808,-0.1464844,0.2808,-3.902439,0.2808,2.621951,0.2808,1.890244,0.04841379,0,0.04841379,0,0.2808,0.09765625,0.2808,-1.007813,0.2808,-0.04736328,0.2808,-0.8536586,0.2808,3.47561,0.2808,0.9146342,0.04841379,0,0.04841379,0
0.2835,0.04199219,0.2835,-0.9975586,0.2835,-0.1464844,0.2835,-3.658537,0.2835,2.743902,0.2835,1.768293,0.04887931,0,0.04887931,0,0.2835,0.09765625,0.2835,-1.000977,0.2835,-0.04736328,0.2835,-0.9756098,0.2835,3.47561,0.2835,0.8536586,0.04887931,0,0.04887931,0
0.2862,0.03808594,0.2862,-0.9960938,0.2862,-0.1450195,0.2862,-3.47561,0.2862,2.926829,0.2862,1.768293,0.04934483,0,0.04934483,0,0.2862,0.09960938,0.2862,-1.007813,0.2862,-0.04589844,0.2862,-1.402439,0.2862,3.536585,0.2862,0.6707317,0.04934483,0,0.04934483,0
0.2889,0.03955078,0.2889,-0.9975586,0.2889,-0.1450195,0.2889,-3.658537,0.2889,2.682927,0.2889,2.012195,0.04981034,0,0.04981034,0,0.2889,0.1020508,0.2889,-1.003906,0.2889,-0.04638672,0.2889,-1.219512,0.2889,3.47561,0.2889,1.036585,0.04981034,0,0.04981034,0
0.2916,0.04052734,0.2916,-0.9970703,0.2916,-0.1489258,0.2916,-3.536585,0.2916,2.804878,0.2916,1.829268,0.05027586,0,0.05027586,0,0.2916,0.1025391,0.2916,-1.006836,0.2916,-0.04638672,0.2916,-1.280488,0.2916,3.719512,0.2916,1.097561,0.05027586,0,0.05027586,0
0.2943,0.04052734,0.2943,-0.9946289,0.2943,-0.1435547,0.2943,-3.536585,0.2943,2.743902,0.2943,1.95122,0.05074138,0,0.05074138,0,0.2943,0.1010742,0.2943,-1.006836,0.2943,-0.04345703,0.2943,-1.219512,0.2943,3.780488,0.2943,1.036585,0.05074138,0,0.05074138,0
0.297,0.03857422,0.297,-0.9956055,0.297,-0.1484375,0.297,-3.719512,0.297,2.926829,0.297,2.134146,0.05120689,0,0.05120689,0,0.297,0.1000977,0.297,-1.004395,0.297,-0.04443359,0.297,-1.219512,0.297,3.658537,0.297,1.036585,0.05120689,0,0.05120689,0
0.2997,0.03710938,0.2997,-0.9936523,0.2997,-0.1489258,0.2997,-3.658537,0.2997,2.804878,0.2997,2.195122,0.05167241,0,0.05167241,0,0.2997,0.1015625,0.2997,-1.003418,0.2997,-0.04443359,0.2997,-2.073171,0.2997,3.597561,0.2997,1.097561,0.05167241,0,0.05167241,0
0.3024,0.03613281,0.3024,-0.9956055,0.3024,-0.1499023,0.3024,-3.841464,0.3024,2.865854,0.3024,2.195122,0.05213793,0,0.05213793,0,0.3024,0.09814453,0.3024,-1.000488,0.3024,-0.04589844,0.3024,-1.585366,0.3024,3.658537,0.3024,0.7317073,0.05213793,0,0.05213793,0
0.3051,0.03710938,0.3051,-0.9921875,0.3051,-0.1538086,0.3051,-3.841464,0.3051,2.621951,0.3051,1.95122,0.05260345,0,0.05260345,0,0.3051,0.09863281,0.3051,-1.003906,0.3051,-0.04394531,0.3051,-1.829268,0.3051,3.414634,0.3051,0.8536586,0.05260345,0,0.05260345,0
0.3078,0.03955078,0.3078,-0.9926758,0.3078,-0.1499023,0.3078,-3.902439,0.3078,2.865854,0.3078,1.95122,0.05306897,0,0.05306897,0,0.3078,0.09960938,0.3078,-1.008301,0.3078,-0.04736328,0.3078,-1.768293,0.3078,3.536585,0.3078,0.8536586,0.05306897,0,0.05306897,0
0.3105,0.04150391,0.3105,-0.9956055,0.3105,-0.1513672,0.3105,-4.085366,0.3105,2.865854,0.3105,2.012195,0.05353448,0,0.05353448,0,0.3105,0.1000977,0.3105,-1.005859,0.3105,-0.04394531,0.3105,-1.768293,0.3105,3.658537,0.3105,1.097561,0.05353448,0,0.05353448,0
0.3132,0.0390625,0.3132,-0.9980469,0.3132,-0.1503906,0.3132,-4.390244,0.3132,2.987805,0.3132,2.256098,0.054,0,0.054,0,0.3132,0.09960938,0.3132,-1.006348,0.3132,-0.04492188,0.3132,-1.646341,0.3132,3.658537,0.3132,1.158537,0.054,0,0.054,0
0.3159,0.04248047,0.3159,-0.9941406,0.3159,-0.1489258,0.3159,-4.45122,0.3159,2.865854,0.3159,2.256098,0.05446552,0,0.05446552,0,0.3159,0.09912109,0.3159,-1.010254,0.3159,-0.04492188,0.3159,-1.829268,0.3159,3.353659,0.3159,1.036585,0.05446552,0,0.05446552,0
0.3186,0.04003906,0.3186,-0.9985352,0.3186,-0.1494141,0.3186,-4.329268,0.3186,2.804878,0.3186,2.195122,0.05493103,0,0.05493103,0,0.3186,0.09765625,0.3186,-1.010742,0.3186,-0.04443359,0.3186,-1.768293,0.3186,3.47561,0.3186,0.9146342,0.05493103,0,0.05493103,0
0.3213,0.0390625,0.3213,-0.9980469,0.3213,-0.1533203,0.3213,-4.207317,0.3213,3.109756,0.3213,2.012195,0.05539655,0,0.05539655,0,0.3213,0.09716797,0.3213,-1.003906,0.3213,-0.04150391,0.3213,-1.95122,0.3213,3.414634,0.3213,0.9756098,0.05539655,0,0.05539655,0
0.324,0.04052734,0.324,-1.000977,0.324,-0.1518555,0.324,-4.146341,0.324,2.926829,0.324,2.134146,0.05586207,0,0.05586207,0,0.324,0.09521484,0.324,-1.006348,0.324,-0.046875,0.324,-1.890244,0.324,3.414634,0.324,0.7317073,0.05586207,0,0.05586207,0
0.3267,0.04052734,0.3267,-1.003418,0.3267,-0.1513672,0.3267,-4.146341,0.3267,3.292683,0.3267,2.012195,0.05632759,0,0.05632759,0,0.3267,0.09326172,0.3267,-1.004883,0.3267,-0.04980469,0.3267,-1.829268,0.3267,3.780488,0.3267,1.097561,0.05632759,0,0.05632759,0
0.3294,0.04394531,0.3294,-0.9990234,0.3294,-0.152832,0.3294,-4.02439,0.3294,3.292683,0.3294,2.012195,0.0567931,0,0.0567931,0,0.3294,0.09375,0.3294,-1.007324,0.3294,-0.05371094,0.3294,-1.768293,0.3294,3.597561,0.3294,0.9756098,0.0567931,0,0.0567931,0
0.3321,0.04296875,0.3321,-1.000977,0.3321,-0.1513672,0.3321,-4.02439,0.3321,3.231707,0.3321,2.012195,0.05725862,0,0.05725862,0,0.3321,0.09472656,0.3321,-1.008301,0.3321,-0.0546875,0.3321,-1.768293,0.3321,3.47561,0.3321,0.9756098,0.05725862,0,0.05725862,0
0.3348,0.04394531,0.3348,-0.9985352,0.3348,-0.1474609,0.3348,-3.963415,0.3348,3.597561,0.3348,2.012195,0.05772414,0,0.05772414,0,0.3348,0.09326172,0.3348,-1.005371,0.3348,-0.05078125,0.3348,-1.768293,0.3348,3.47561,0.3348,0.9756098,0.05772414,0,0.05772414,0
0.3375,0.04248047,0.3375,-0.9975586,0.3375,-0.1430664,0.3375,-3.902439,0.3375,3.414634,0.3375,1.768293,0.05818965,0,0.05818965,0,0.3375,0.09033203,0.3375,-1.009277,0.3375,-0.05224609,0.3375,-1.585366,0.3375,3.47561,0.3375,1.036585,0.05818965,0,0.05818965,0
0.3402,0.04101563,0.3402,-1.000977,0.3402,-0.1479492,0.3402,-3.719512,0.3402,3.47561,0.3402,2.195122,0.05865517,0,0.05865517,0,0.3402,0.1035156,0.3402,-1.012207,0.3402,-0.05273438,0.3402,-1.707317,0.3402,3.414634,0.3402,1.036585,0.05865517,0,0.05865517,0
0.3429,0.04101563,0.3429,-1.000488,0.3429,-0.1474609,0.3429,-3.963415,0.3429,3.780488,0.3429,2.073171,0.05912069,0,0.05912069,0,0.3429,0.1040039,0.3429,-1.008301,0.3429,-0.05615234,0.3429,-1.829268,0.3429,3.47561,0.3429,0.7926829,0.05912069,0,0.05912069,0
0.3456,0.04003906,0.3456,-0.9995117,0.3456,-0.1459961,0.3456,-4.02439,0.3456,3.47561,0.3456,2.134146,0.0595862,0,0.0595862,0,0.3456,0.1035156,0.3456,-1.006836,0.3456,-0.05371094,0.3456,-1.463415,0.3456,3.353659,0.3456,0.9756098,0.0595862,0,0.0595862,0
0.3483,0.03564453,0.3483,-0.9990234,0.3483,-0.1503906,0.3483,-3.902439,0.3483,3.597561,0.3483,1.707317,0.06005172,0,0.06005172,0,0.3483,0.1020508,0.3483,-1.009277,0.3483,-0.05175781,0.3483,-1.52439,0.3483,3.04878,0.3483,0.9756098,0.06005172,0,0.06005172,0
0.351,0.04296875,0.351,-1.000977,0.351,-0.1459961,0.351,-3.963415,0.351,3.47561,0.351,2.073171,0.06051724,0,0.06051724,0,0.351,0.1035156,0.351,-1.008789,0.351,-0.05419922,0.351,-1.707317,0.351,3.414634,0.351,1.036585,0.06051724,0,0.06051724,0
0.3537,0.04003906,0.3537,-0.9975586,0.3537,-0.1513672,0.3537,-3.963415,0.3537,3.597561,0.3537,2.012195,0.06098276,0,0.06098276,0,0.3537,0.09765625,0.3537,-1.00293,0.3537,-0.05175781,0.3537,-1.52439,0.3537,3.04878,0.3537,1.036585,0.06098276,0,0.06098276,0
0.3564,0.0390625,0.3564,-0.9980469,0.3564,-0.1489258,0.3564,-4.146341,0.3564,3.47561,0.3564,1.890244,0.06144828,0,0.06144828,0,0.3564,0.09814453,0.3564,-1.008789,0.3564,-0.05029297,0.3564,-1.463415,0.3564,3.170732,0.3564,0.9756098,0.06144828,0,0.06144828,0
0.3591,0.04394531,0.3591,-1.000488,0.3591,-0.1533203,0.3591,-4.207317,0.3591,3.292683,0.3591,2.012195,0.06191379,0,0.06191379,0,0.3591,0.1035156,0.3591,-1.010254,0.3591,-0.05224609,0.3591,-1.158537,0.3591,3.170732,0.3591,0.9146342,0.06191379,0,0.06191379,0
0.3618,0.04003906,0.3618,-1.001953,0.3618,-0.1508789,0.3618,-3.963415,0.3618,3.536585,0.3618,1.768293,0.06237931,0,0.06237931,0,0.3618,0.1005859,0.3618,-1.009277,0.3618,-0.05273438,0.3618,-1.463415,0.3618,3.292683,0.3618,1.158537,0.06237931,0,0.06237931,0
0.3645,0.03613281,0.3645,-1.004883,0.3645,-0.1494141,0.3645,-3.841464,0.3645,3.292683,0.3645,1.829268,0.06284483,0,0.06284483,0,0.3645,0.1025391,0.3645,-1.008789,0.3645,-0.05224609,0.3645,-1.341463,0.3645,3.231707,0.3645,1.097561,0.06284483,0,0.06284483,0
0.3672,0.03710938,0.3672,-0.9995117,0.3672,-0.1503906,0.3672,-3.963415,0.3672,2.987805,0.3672,1.95122,0.06331034,0,0.06331034,0,0.3672,0.1020508,0.3672,-1.005859,0.3672,-0.05224609,0.3672,-1.402439,0.3672,3.47561,0.3672,0.9146342,0.06331034,0,0.06331034,0
0.3699,0.03710938,0.3699,-1.000977,0.3699,-0.1503906,0.3699,-3.719512,0.3699,3.231707,0.3699,2.256098,0.06377586,0,0.06377586,0,0.3699,0.09912109,0.3699,-1.011719,0.3699,-0.05078125,0.3699,-1.158537,0.3699,3.47561,0.3699,0.9146342,0.06377586,0,0.06377586,0
0.3726,0.03515625,0.3726,-0.9995117,0.3726,-0.1533203,0.3726,-4.146341,0.3726,3.231707,0.3726,1.95122,0.06424138,0,0.06424138,0,0.3726,0.1020508,0.3726,-1.006836,0.3726,-0.05078125,0.3726,-1.158537,0.3726,3.353659,0.3726,0.9756098,0.06424138,0,0.06424138,0
0.3753,0.03515625,0.3753,-0.9990234,0.3753,-0.1518555,0.3753,-3.902439,0.3753,3.231707,0.3753,1.890244,0.06470689,0,0.06470689,0,0.3753,0.1035156,0.3753,-1.006836,0.3753,-0.05175781,0.3753,-1.341463,0.3753,3.170732,0.3753,1.219512,0.06470689,0,0.06470689,0
0.378,0.03564453,0.378,-1.000488,0.378,-0.1538086,0.378,-3.902439,0.378,2.987805,0.378,2.073171,0.06517241,0,0.06517241,0,0.378,0.1020508,0.378,-1.008301,0.378,-0.05078125,0.378,-1.280488,0.378,3.658537,0.378,0.7926829,0.06517241,0,0.06517241,0
0.3807,0.0390625,0.3807,-0.9995117,0.3807,-0.1542969,0.3807,-4.02439,0.3807,3.04878,0.3807,1.890244,0.06563793,0,0.06563793,0,0.3807,0.09863281,0.3807,-1.009766,0.3807,-0.04882813,0.3807,-1.341463,0.3807,3.597561,0.3807,0.9146342,0.06563793,0,0.06563793,0
0.3834,0.03515625,0.3834,-1,0.3834,-0.15625,0.3834,-4.146341,0.3834,3.231707,0.3834,1.829268,0.06610344,0,0.06610344,0,0.3834,0.1015625,0.3834,-1.008301,0.3834,-0.04931641,0.3834,-1.158537,0.3834,3.597561,0.3834,1.097561,0.06610344,0,0.06610344,0
0.3861,0.03759766,0.3861,-0.9980469,0.3861,-0.1542969,0.3861,-3.719512,0.3861,3.109756,0.3861,1.95122,0.06656896,0,0.06656896,0,0.3861,0.1040039,0.3861,-1.006836,0.3861,-0.04541016,0.3861,-1.52439,0.3861,3.902439,0.3861,0.9756098,0.06656896,0,0.06656896,0
0.3888,0.03662109,0.3888,-1,0.3888,-0.1547852,0.3888,-3.780488,0.3888,3.109756,0.3888,1.890244,0.06703448,0,0.06703448,0,0.3888,0.1010742,0.3888,-1.007813,0.3888,-0.04638672,0.3888,-1.219512,0.3888,3.841464,0.3888,0.8536586,0.06703448,0,0.06703448,0
0.3915,0.03710938,0.3915,-1.00293,0.3915,-0.1538086,0.3915,-4.02439,0.3915,3.231707,0.3915,1.95122,0.0675,0,0.0675,0,0.3915,0.1000977,0.3915,-1.010254,0.3915,-0.04443359,0.3915,-1.097561,0.3915,4.085366,0.3915,0.8536586,0.0675,0,0.0675,0
0.3942,0.03808594,0.3942,-1.003418,0.3942,-0.1547852,0.3942,-3.902439,0.3942,3.04878,0.3942,1.768293,0.06796551,0,0.06796551,0,0.3942,0.1000977,0.3942,-1.008789,0.3942,-0.04589844,0.3942,-0.9146342,0.3942,4.268293,0.3942,0.9146342,0.06796551,0,0.06796551,0
0.3969,0.03173828,0.3969,-0.9995117,0.3969,-0.1557617,0.3969,-3.597561,0.3969,2.804878,0.3969,2.195122,0.06843103,0,0.06843103,0,0.3969,0.1035156,0.3969,-1.009277,0.3969,-0.04785156,0.3969,-1.097561,0.3969,4.085366,0.3969,1.097561,0.06843103,0,0.06843103,0
0.3996,0.03613281,0.3996,-1,0.3996,-0.1518555,0.3996,-3.902439,0.3996,3.170732,0.3996,2.012195,0.06889655,0,0.06889655,0,0.3996,0.1035156,0.3996,-1.01123,0.3996,-0.05419922,0.3996,-1.280488,0.3996,3.841464,0.3996,0.8536586,0.06889655,0,0.06889655,0
0.4023,0.03515625,0.4023,-0.9970703,0.4023,-0.1552734,0.4023,-3.963415,0.4023,2.987805,0.4023,1.829268,0.06936207,0,0.06936207,0,0.4023,0.1025391,0.4023,-1.007324,0.4023,-0.05175781,0.4023,-1.219512,0.4023,3.841464,0.4023,0.9146342,0.06936207,0,0.06936207,0
0.405,0.03662109,0.405,-1.00293,0.405,-0.1518555,0.405,-3.780488,0.405,3.231707,0.405,1.768293,0.06982759,0,0.06982759,0,0.405,0.1030273,0.405,-1.01123,0.405,-0.04931641,0.405,-1.219512,0.405,3.719512,0.405,0.9146342,0.06982759,0,0.06982759,0
0.4077,0.03613281,0.4077,-0.9975586,0.4077,-0.1552734,0.4077,-3.597561,0.4077,2.865854,0.4077,1.707317,0.0702931,0,0.0702931,0,0.4077,0.1015625,0.4077,-1.010254,0.4077,-0.04833984,0.4077,-1.463415,0.4077,3.902439,0.4077,1.036585,0.0702931,0,0.0702931,0
0.4104,0.03955078,0.4104,-1.000488,0.4104,-0.1567383,0.4104,-3.231707,0.4104,2.987805,0.4104,1.95122,0.07075862,0,0.07075862,0,0.4104,0.09960938,0.4104,-1.007324,0.4104,-0.04980469,0.4104,-1.463415,0.4104,3.963415,0.4104,1.158537,0.07075862,0,0.07075862,0
0.4131,0.03320313,0.4131,-0.9985352,0.4131,-0.1557617,0.4131,-3.536585,0.4131,2.926829,0.4131,1.829268,0.07122414,0,0.07122414,0,0.4131,0.1015625,0.4131,-1.006348,0.4131,-0.05175781,0.4131,-1.341463,0.4131,3.597561,0.4131,1.158537,0.07122414,0,0.07122414,0
0.4158,0.04052734,0.4158,-0.9985352,0.4158,-0.159668,0.4158,-3.170732,0.4158,3.231707,0.4158,1.768293,0.07168965,0,0.07168965,0,0.4158,0.09765625,0.4158,-1.006348,0.4158,-0.05126953,0.4158,-1.097561,0.4158,3.658537,0.4158,0.9756098,0.07168965,0,0.07168965,0
0.4185,0.03857422,0.4185,-0.9931641,0.4185,-0.1557617,0.4185,-3.353659,0.4185,3.170732,0.4185,1.646341,0.07215517,0,0.07215517,0,0.4185,0.1015625,0.4185,-1.009766,0.4185,-0.05078125,0.4185,-1.219512,0.4185,3.658537,0.4185,0.9756098,0.07215517,0,0.07215517,0
0.4212,0.03613281,0.4212,-0.9931641,0.4212,-0.1567383,0.4212,-3.353659,0.4212,3.231707,0.4212,1.890244,0.07262069,0,0.07262069,0,0.4212,0.09667969,0.4212,-1.009766,0.4212,-0.05175781,0.4212,-1.219512,0.4212,3.597561,0.4212,1.158537,0.07262069,0,0.07262069,0
0.4239,0.03613281,0.4239,-0.9936523,0.4239,-0.15625,0.4239,-3.47561,0.4239,3.04878,0.4239,1.95122,0.0730862,0,0.0730862,0,0.4239,0.09863281,0.4239,-1.007324,0.4239,-0.05078125,0.4239,-1.463415,0.4239,3.170732,0.4239,0.9756098,0.0730862,0,0.0730862,0
0.4266,0.03759766,0.4266,-0.9921875,0.4266,-0.1518555,0.4266,-2.926829,0.4266,3.353659,0.4266,2.134146,0.07355172,0,0.07355172,0,0.4266,0.1000977,0.4266,-1.006836,0.4266,-0.05908203,0.4266,-1.402439,0.4266,3.353659,0.4266,0.9146342,0.07355172,0,0.07355172,0
0.4293,0.03759766,0.4293,-0.9960938,0.4293,-0.1518555,0.4293,-3.292683,0.4293,3.231707,0.4293,2.012195,0.07401724,0,0.07401724,0,0.4293,0.1010742,0.4293,-1.007324,0.4293,-0.05566406,0.4293,-1.280488,0.4293,3.292683,0.4293,0.9756098,0.07401724,0,0.07401724,0
0.432,0.04101563,0.432,-0.9946289,0.432,-0.1552734,0.432,-3.109756,0.432,3.170732,0.432,1.768293,0.07448275,0,0.07448275,0,0.432,0.1010742,0.432,-1.009277,0.432,-0.0546875,0.432,-1.219512,0.432,3.353659,0.432,0.9756098,0.07448275,0,0.07448275,0
0.4347,0.03857422,0.4347,-0.9956055,0.4347,-0.1557617,0.4347,-3.109756,0.4347,2.743902,0.4347,1.829268,0.07494827,0,0.07494827,0,0.4347,0.09667969,0.4347,-1.011719,0.4347,-0.05322266,0.4347,-1.341463,0.4347,3.292683,0.4347,0.9756098,0.07494827,0,0.07494827,0
0.4374,0.04101563,0.4374,-0.9907227,0.4374,-0.1557617,0.4374,-3.231707,0.4374,2.926829,0.4374,1.52439,0.07541379,0,0.07541379,0,0.4374,0.09863281,0.4374,-1.009277,0.4374,-0.05566406,0.4374,-1.280488,0.4374,3.536585,0.4374,1.158537,0.07541379,0,0.07541379,0
0.4401,0.03759766,0.4401,-0.9931641,0.4401,-0.1552734,0.4401,-3.353659,0.4401,2.987805,0.4401,1.890244,0.07587931,0,0.07587931,0,0.4401,0.1010742,0.4401,-1.009766,0.4401,-0.05371094,0.4401,-1.280488,0.4401,3.414634,0.4401,0.9756098,0.07587931,0,0.07587931,0
0.4428,0.03564453,0.4428,-0.996582,0.4428,-0.1518555,0.4428,-3.47561,0.4428,3.170732,0.4428,1.829268,0.07634483,0,0.07634483,0,0.4428,0.1015625,0.4428,-1.006836,0.4428,-0.05664063,0.4428,-1.463415,0.4428,3.47561,0.4428,1.036585,0.07634483,0,0.07634483,0
0.4455,0.03955078,0.4455,-0.9960938,0.4455,-0.152832,0.4455,-3.658537,0.4455,2.865854,0.4455,1.829268,0.07681035,0,0.07681035,0,0.4455,0.1040039,0.4455,-1.005859,0.4455,-0.05566406,0.4455,-1.280488,0.4455,3.536585,0.4455,1.036585,0.07681035,0,0.07681035,0
0.4482,0.0390625,0.4482,-0.9931641,0.4482,-0.1538086,0.4482,-3.658537,0.4482,2.987805,0.4482,1.768293,0.07727586,0,0.07727586,0,0.4482,0.1015625,0.4482,-1.006348,0.4482,-0.05615234,0.4482,-1.158537,0.4482,3.170732,0.4482,0.9756098,0.07727586,0,0.07727586,0
0.4509,0.04101563,0.4509,-0.9941406,0.4509,-0.15625,0.4509,-3.658537,0.4509,2.987805,0.4509,1.646341,0.07774138,0,0.07774138,0,0.4509,0.09960938,0.4509,-1.004883,0.4509,-0.05566406,0.4509,-1.158537,0.4509,3.47561,0.4509,0.8536586,0.07774138,0,0.07774138,0
0.4536,0.03564453,0.4536,-0.9946289,0.4536,-0.1577148,0.4536,-3.719512,0.4536,3.292683,0.4536,1.585366,0.0782069,0,0.0782069,0,0.4536,0.09716797,0.4536,-1.004883,0.4536,-0.05664063,0.4536,-1.280488,0.4536,3.170732,0.4536,1.158537,0.0782069,0,0.0782069,0
0.4563,0.03808594,0.4563,-0.9970703,0.4563,-0.1586914,0.4563,-3.658537,0.4563,3.292683,0.4563,1.646341,0.07867241,0,0.07867241,0,0.4563,0.09863281,0.4563,-1.003418,0.4563,-0.05517578,0.4563,-1.341463,0.4563,3.170732,0.4563,0.9756098,0.07867241,0,0.07867241,0
0.459,0.03857422,0.459,-0.996582,0.459,-0.1577148,0.459,-3.780488,0.459,3.292683,0.459,1.95122,0.07913793,0,0.07913793,0,0.459,0.1030273,0.459,-1.006836,0.459,-0.05615234,0.459,-1.036585,0.459,3.231707,0.459,0.9756098,0.07913793,0,0.07913793,0
0.4617,0.03564453,0.4617,-0.9956055,0.4617,-0.1606445,0.4617,-3.841464,0.4617,2.987805,0.4617,1.890244,0.07960345,0,0.07960345,0,0.4617,0.09863281,0.4617,-1.008789,0.4617,-0.05957031,0.4617,-1.158537,0.4617,3.292683,0.4617,0.9756098,0.07960345,0,0.07960345,0
0.4644,0.0390625,0.4644,-0.996582,0.4644,-0.1630859,0.4644,-3.719512,0.4644,3.04878,0.4644,1.95122,0.08006896,0,0.08006896,0,0.4644,0.1005859,0.4644,-1.008301,0.4644,-0.05175781,0.4644,-1.219512,0.4644,3.170732,0.4644,0.9146342,0.08006896,0,0.08006896,0
0.4671,0.03808594,0.4671,-0.9985352,0.4671,-0.1621094,0.4671,-3.658537,0.4671,3.353659,0.4671,1.707317,0.08053448,0,0.08053448,0,0.4671,0.09667969,0.4671,-1.001953,0.4671,-0.05419922,0.4671,-1.402439,0.4671,2.987805,0.4671,0.9756098,0.08053448,0,0.08053448,0
0.4698,0.03857422,0.4698,-0.9975586,0.4698,-0.1621094,0.4698,-3.902439,0.4698,3.109756,0.4698,1.95122,0.081,0,0.081,0,0.4698,0.09912109,0.4698,-1.00293,0.4698,-0.05810547,0.4698,-1.463415,0.4698,3.231707,0.4698,0.9756098,0.081,0,0.081,0
0.4725,0.0390625,0.4725,-1.000488,0.4725,-0.159668,0.4725,-3.597561,0.4725,3.109756,0.4725,1.768293,0.08146551,0,0.08146551,0,0.4725,0.1010742,0.4725,-1.005859,0.4725,-0.05664063,0.4725,-1.768293,0.4725,2.926829,0.4725,0.9146342,0.08146551,0,0.08146551,0
0.4752,0.03808594,0.4752,-0.9990234,0.4752,-0.1621094,0.4752,-3.841464,0.4752,3.109756,0.4752,1.95122,0.08193103,0,0.08193103,0,0.4752,0.1044922,0.4752,-1.007324,0.4752,-0.05761719,0.4752,-1.707317,0.4752,2.926829,0.4752,1.036585,0.08193103,0,0.08193103,0
0.4779,0.04003906,0.4779,-0.9985352,0.4779,-0.1601563,0.4779,-3.963415,0.4779,3.231707,0.4779,1.95122,0.08239655,0,0.08239655,0,0.4779,0.1030273,0.4779,-1.008789,0.4779,-0.05615234,0.4779,-1.341463,0.4779,2.804878,0.4779,0.9756098,0.08239655,0,0.08239655,0
0.4806,0.04052734,0.4806,-0.996582,0.4806,-0.1577148,0.4806,-3.963415,0.4806,2.987805,0.4806,1.890244,0.08286206,0,0.08286206,0,0.4806,0.1030273,0.4806,-1.007813,0.4806,-0.05029297,0.4806,-1.707317,0.4806,3.04878,0.4806,1.036585,0.08286206,0,0.08286206,0
0.4833,0.03808594,0.4833,-0.9995117,0.4833,-0.1625977,0.4833,-4.02439,0.4833,3.109756,0.4833,2.073171,0.08332758,0,0.08332758,0,0.4833,0.1030273,0.4833,-1.004883,0.4833,-0.05175781,0.4833,-1.646341,0.4833,3.170732,0.4833,0.9146342,0.08332758,0,0.08332758,0
0.486,0.0390625,0.486,-1.000977,0.486,-0.1621094,0.486,-4.02439,0.486,3.04878,0.486,1.646341,0.0837931,0,0.0837931,0,0.486,0.1005859,0.486,-1.007813,0.486,-0.05322266,0.486,-1.585366,0.486,3.109756,0.486,1.036585,0.0837931,0,0.0837931,0
0.4887,0.03515625,0.4887,-1.000977,0.4887,-0.1586914,0.4887,-4.146341,0.4887,2.987805,0.4887,2.012195,0.08425862,0,0.08425862,0,0.4887,0.1025391,0.4887,-1.007813,0.4887,-0.04980469,0.4887,-1.768293,0.4887,3.109756,0.4887,1.036585,0.08425862,0,0.08425862,0
0.4914,0.03662109,0.4914,-0.9956055,0.4914,-0.1577148,0.4914,-3.963415,0.4914,2.987805,0.4914,2.073171,0.08472414,0,0.08472414,0,0.4914,0.1015625,0.4914,-1.008301,0.4914,-0.04980469,0.4914,-1.95122,0.4914,3.170732,0.4914,1.036585,0.08472414,0,0.08472414,0
0.4941,0.03759766,0.4941,-1,0.4941,-0.1616211,0.4941,-4.146341,0.4941,2.865854,0.4941,1.829268,0.08518966,0,0.08518966,0,0.4941,0.1044922,0.4941,-1.007813,0.4941,-0.05078125,0.4941,-1.646341,0.4941,3.231707,0.4941,0.7317073,0.08518966,0,0.08518966,0
0.4968,0.03955078,0.4968,-1,0.4968,-0.1572266,0.4968,-4.085366,0.4968,2.865854,0.4968,1.890244,0.08565517,0,0.08565517,0,0.4968,0.1044922,0.4968,-1.003906,0.4968,-0.05029297,0.4968,-1.829268,0.4968,3.170732,0.4968,0.7926829,0.08565517,0,0.08565517,0
0.4995,0.03662109,0.4995,-0.9990234,0.4995,-0.1557617,0.4995,-4.207317,0.4995,2.987805,0.4995,2.256098,0.08612069,0,0.08612069,0,0.4995,0.1054688,0.4995,-1.004395,0.4995,-0.04980469,0.4995,-1.768293,0.4995,3.658537,0.4995,0.9756098,0.08612069,0,0.08612069,0
0.5022,0.03759766,0.5022,-0.9995117,0.5022,-0.1611328,0.5022,-3.963415,0.5022,2.987805,0.5022,1.707317,0.08658621,0,0.08658621,0,0.5022,0.1040039,0.5022,-1.005859,0.5022,-0.05322266,0.5022,-1.829268,0.5022,3.414634,0.5022,0.9756098,0.08658621,0,0.08658621,0
0.5049,0.03515625,0.5049,-0.9975586,0.5049,-0.1591797,0.5049,-4.329268,0.5049,2.987805,0.5049,1.707317,0.08705172,0,0.08705172,0,0.5049,0.09960938,0.5049,-1.005859,0.5049,-0.05126953,0.5049,-2.195122,0.5049,3.414634,0.5049,0.9756098,0.08705172,0,0.08705172,0
0.5076,0.03613281,0.5076,-0.996582,0.5076,-0.1557617,0.5076,-4.207317,0.5076,2.804878,0.5076,1.829268,0.08751724,0,0.08751724,0,0.5076,0.1010742,0.5076,-1.007324,0.5076,-0.05371094,0.5076,-2.073171,0.5076,3.536585,0.5076,0.9756098,0.08751724,0,0.08751724,0
0.5103,0.03613281,0.5103,-0.9990234,0.5103,-0.1542969,0.5103,-3.963415,0.5103,3.109756,0.5103,2.012195,0.08798276,0,0.08798276,0,0.5103,0.1040039,0.5103,-1.005859,0.5103,-0.05126953,0.5103,-1.95122,0.5103,3.47561,0.5103,0.7926829,0.08798276,0,0.08798276,0
0.513,0.03564453,0.513,-0.9990234,0.513,-0.1582031,0.513,-3.963415,0.513,2.987805,0.513,1.95122,0.08844827,0,0.08844827,0,0.513,0.09960938,0.513,-1.006836,0.513,-0.05273438,0.513,-1.95122,0.513,3.536585,0.513,0.8536586,0.08844827,0,0.08844827,0
0.5157,0.03125,0.5157,-1.001465,0.5157,-0.1572266,0.5157,-4.207317,0.5157,3.04878,0.5157,1.890244,0.08891379,0,0.08891379,0,0.5157,0.09765625,0.5157,-1.007324,0.5157,-0.05517578,0.5157,-2.073171,0.5157,3.780488,0.5157,0.6707317,0.08891379,0,0.08891379,0
0.5184,0.03222656,0.5184,-0.996582,0.5184,-0.1547852,0.5184,-3.841464,0.5184,2.865854,0.5184,1.890244,0.08937931,0,0.08937931,0,0.5184,0.1015625,0.5184,-1.006836,0.5184,-0.05371094,0.5184,-2.134146,0.5184,3.597561,0.5184,1.036585,0.08937931,0,0.08937931,0
0.5211,0.03271484,0.5211,-0.9960938,0.5211,-0.152832,0.5211,-4.085366,0.5211,2.926829,0.5211,1.768293,0.08984482,0,0.08984482,0,0.5211,0.1040039,0.5211,-1.008789,0.5211,-0.05419922,0.5211,-2.073171,0.5211,3.658537,0.5211,0.7317073,0.08984482,0,0.08984482,0
0.5238,0.03271484,0.5238,-0.9995117,0.5238,-0.1538086,0.5238,-4.146341,0.5238,3.231707,0.5238,1.95122,0.09031034,0,0.09031034,0,0.5238,0.1044922,0.5238,-1.008301,0.5238,-0.05273438,0.5238,-1.95122,0.5238,3.414634,0.5238,0.8536586,0.09031034,0,0.09031034,0
0.5265,0.03759766,0.5265,-0.996582,0.5265,-0.1518555,0.5265,-4.02439,0.5265,3.04878,0.5265,1.890244,0.09077586,0,0.09077586,0,0.5265,0.1005859,0.5265,-1.009277,0.5265,-0.05615234,0.5265,-1.890244,0.5265,3.353659,0.5265,0.7317073,0.09077586,0,0.09077586,0
0.5292,0.03613281,0.5292,-0.9960938,0.5292,-0.1484375,0.5292,-4.02439,0.5292,3.353659,0.5292,1.890244,0.09124137,0,0.09124137,0,0.5292,0.1005859,0.5292,-1.010254,0.5292,-0.05273438,0.5292,-1.829268,0.5292,2.987805,0.5292,0.7317073,0.09124137,0,0.09124137,0
0.5319,0.03808594,0.5319,-0.9995117,0.5319,-0.1523438,0.5319,-3.841464,0.5319,2.926829,0.5319,1.646341,0.09170689,0,0.09170689,0,0.5319,0.1020508,0.5319,-1.010742,0.5319,-0.05175781,0.5319,-1.768293,0.5319,2.804878,0.5319,0.6097561,0.09170689,0,0.09170689,0
0.5346,0.03417969,0.5346,-0.9980469,0.5346,-0.1508789,0.5346,-4.02439,0.5346,3.04878,0.5346,1.890244,0.09217241,0,0.09217241,0,0.5346,0.1020508,0.5346,-1.010742,0.5346,-0.05371094,0.5346,-1.95122,0.5346,3.04878,0.5346,0.8536586,0.09217241,0,0.09217241,0
0.5373,0.03808594,0.5373,-0.9960938,0.5373,-0.1523438,0.5373,-3.902439,0.5373,3.109756,0.5373,1.646341,0.09263793,0,0.09263793,0,0.5373,0.1020508,0.5373,-1.006836,0.5373,-0.05224609,0.5373,-1.890244,0.5373,3.04878,0.5373,0.6097561,0.09263793,0,0.09263793,0
0.54,0.03808594,0.54,-0.9970703,0.54,-0.1513672,0.54,-4.02439,0.54,2.926829,0.54,1.829268,0.09310345,0,0.09310345,0,0.54,0.09765625,0.54,-1.009766,0.54,-0.05273438,0.54,-1.95122,0.54,2.865854,0.54,0.9756098,0.09310345,0,0.09310345,0
0.5427,0.04003906,0.5427,-0.9995117,0.5427,-0.152832,0.5427,-4.085366,0.5427,2.865854,0.5427,1.95122,0.09356897,0,0.09356897,0,0.5427,0.1010742,0.5427,-1.007813,0.5427,-0.05615234,0.5427,-1.95122,0.5427,3.04878,0.5427,0.8536586,0.09356897,0,0.09356897,0
0.5454,0.03759766,0.5454,-0.9990234,0.5454,-0.1513672,0.5454,-4.268293,0.5454,2.987805,0.5454,1.829268,0.09403448,0,0.09403448,0,0.5454,0.1010742,0.5454,-1.007813,0.5454,-0.05566406,0.5454,-1.890244,0.5454,2.987805,0.5454,0.9756098,0.09403448,0,0.09403448,0
0.5481,0.04101563,0.5481,-1.002441,0.5481,-0.1523438,0.5481,-3.902439,0.5481,2.865854,0.5481,1.585366,0.0945,0,0.0945,0,0.5481,0.1000977,0.5481,-1.004883,0.5481,-0.05371094,0.5481,-1.829268,0.5481,3.04878,0.5481,0.6707317,0.0945,5.874723E-06,0.0945,0
0.5508,0.03662109,0.5508,-0.9990234,0.5508,-0.1552734,0.5508,-4.085366,0.5508,2.865854,0.5508,1.890244,0.09496552,0,0.09496552,0,0.5508,0.1020508,0.5508,-1.006836,0.5508,-0.05419922,0.5508,-1.768293,0.5508,2.804878,0.5508,1.097561,0.09496552,1.19173E-05,0.09496552,0
0.5535,0.03662109,0.5535,-1.001953,0.5535,-0.1494141,0.5535,-3.841464,0.5535,2.804878,0.5535,2.012195,0.09543103,0,0.09543103,0,0.5535,0.1025391,0.5535,-1.004395,0.5535,-0.0546875,0.5535,-1.768293,0.5535,3.04878,0.5535,0.7926829,0.09543103,1.19173E-05,0.09543103,0
0.5562,0.04003906,0.5562,-1.003418,0.5562,-0.1533203,0.5562,-3.902439,0.5562,2.987805,0.5562,1.890244,0.09589655,0,0.09589655,0,0.5562,0.1000977,0.5562,-1.006348,0.5562,-0.05273438,0.5562,-1.585366,0.5562,2.865854,0.5562,0.8536586,0.09589655,1.09102E-05,0.09589655,0
0.5589,0.03857422,0.5589,-1.000977,0.5589,-0.1508789,0.5589,-3.658537,0.5589,2.987805,0.5589,2.012195,0.09636207,0,0.09636207,0,0.5589,0.105957,0.5589,-1.007324,0.5589,-0.05126953,0.5589,-1.585366,0.5589,2.865854,0.5589,1.097561,0.09636207,1.05745E-05,0.09636207,0
0.5616,0.03466797,0.5616,-1,0.5616,-0.1489258,0.5616,-3.902439,0.5616,2.926829,0.5616,1.707317,0.09682758,0,0.09682758,0,0.5616,0.1054688,0.5616,-1.006836,0.5616,-0.05029297,0.5616,-1.95122,0.5616,2.987805,0.5616,0.8536586,0.09682758,1.292439E-05,0.09682758,0
0.5643,0.04052734,0.5643,-0.9985352,0.5643,-0.1508789,0.5643,-4.02439,0.5643,3.170732,0.5643,1.646341,0.0972931,0,0.0972931,0,0.5643,0.1010742,0.5643,-1.007324,0.5643,-0.05419922,0.5643,-1.768293,0.5643,3.109756,0.5643,0.9756098,0.0972931,1.594568E-05,0.0972931,0
0.567,0.03662109,0.567,-0.9995117,0.567,-0.1508789,0.567,-3.658537,0.567,2.865854,0.567,1.890244,0.09775862,0,0.09775862,0,0.567,0.1005859,0.567,-1.004395,0.567,-0.05322266,0.567,-1.768293,0.567,3.170732,0.567,0.7926829,0.09775862,1.728847E-05,0.09775862,0
0.5697,0.04101563,0.5697,-0.9990234,0.5697,-0.1523438,0.5697,-3.902439,0.5697,3.04878,0.5697,1.768293,0.09822413,0,0.09822413,0,0.5697,0.09912109,0.5697,-1.004883,0.5697,-0.05078125,0.5697,-1.585366,0.5697,3.109756,0.5697,1.036585,0.09822413,1.661708E-05,0.09822413,0
0.5724,0.04394531,0.5724,-0.9951172,0.5724,-0.1503906,0.5724,-3.963415,0.5724,2.804878,0.5724,1.585366,0.09868965,0,0.09868965,0,0.5724,0.09765625,0.5724,-1.005859,0.5724,-0.05322266,0.5724,-1.768293,0.5724,2.926829,0.5724,0.9756098,0.09868965,1.510643E-05,0.09868965,0
0.5751,0.04199219,0.5751,-0.9985352,0.5751,-0.1523438,0.5751,-3.719512,0.5751,2.804878,0.5751,1.707317,0.09915517,0,0.09915517,0,0.5751,0.1025391,0.5751,-1.003418,0.5751,-0.05566406,0.5751,-1.52439,0.5751,3.353659,0.5751,0.9756098,0.09915517,1.393149E-05,0.09915517,0
0.5778,0.04150391,0.5778,-0.9990234,0.5778,-0.1518555,0.5778,-3.719512,0.5778,3.109756,0.5778,1.52439,0.09962068,0,0.09962068,0,0.5778,0.1020508,0.5778,-1.007813,0.5778,-0.05517578,0.5778,-1.768293,0.5778,3.47561,0.5778,1.097561,0.09962068,1.460288E-05,0.09962068,0
0.5805,0.04150391,0.5805,-0.9970703,0.5805,-0.1513672,0.5805,-3.841464,0.5805,3.170732,0.5805,1.646341,0.1000862,0,0.1000862,0,0.5805,0.1010742,0.5805,-1.010742,0.5805,-0.05419922,0.5805,-1.829268,0.5805,3.47561,0.5805,0.8536586,0.1000862,1.460288E-05,0.1000862,0
0.5832,0.04101563,0.5832,-0.996582,0.5832,-0.1523438,0.5832,-3.902439,0.5832,2.804878,0.5832,1.890244,0.1005517,0,0.1005517,0,0.5832,0.1000977,0.5832,-1.011719,0.5832,-0.05273438,0.5832,-1.829268,0.5832,3.231707,0.5832,1.097561,0.1005517,1.359579E-05,0.1005517,0
0.5859,0.04492188,0.5859,-0.9970703,0.5859,-0.1542969,0.5859,-3.597561,0.5859,2.865854,0.5859,1.890244,0.1010172,0,0.1010172,0,0.5859,0.1020508,0.5859,-1.009766,0.5859,-0.05273438,0.5859,-1.829268,0.5859,3.47561,0.5859,0.9756098,0.1010172,1.19173E-05,0.1010172,0
0.5886,0.04199219,0.5886,-0.9960938,0.5886,-0.1577148,0.5886,-4.02439,0.5886,3.170732,0.5886,1.768293,0.1014828,0,0.1014828,0,0.5886,0.1000977,0.5886,-1.011719,0.5886,-0.05078125,0.5886,-1.707317,0.5886,3.292683,0.5886,1.158537,0.1014828,1.15816E-05,0.1014828,0
0.5913,0.03857422,0.5913,-0.9960938,0.5913,-0.1582031,0.5913,-4.02439,0.5913,2.987805,0.5913,1.890244,0.1019483,0,0.1019483,0,0.5913,0.1015625,0.5913,-1.013184,0.5913,-0.05175781,0.5913,-2.012195,0.5913,3.170732,0.5913,0.7317073,0.1019483,1.19173E-05,0.1019483,0
0.594,0.04394531,0.594,-0.9946289,0.594,-0.1625977,0.594,-4.146341,0.594,2.987805,0.594,1.646341,0.1024138,0,0.1024138,0,0.594,0.1015625,0.594,-1.010254,0.594,-0.04736328,0.594,-1.829268,0.594,3.658537,0.594,0.9146342,0.1024138,1.393149E-05,0.1024138,0
0.5967,0.04443359,0.5967,-0.9975586,0.5967,-0.1586914,0.5967,-4.085366,0.5967,2.926829,0.5967,1.707317,0.1028793,0,0.1028793,0,0.5967,0.1015625,0.5967,-1.008301,0.5967,-0.05175781,0.5967,-1.95122,0.5967,3.658537,0.5967,0.9146342,0.1028793,1.661708E-05,0.1028793,0
0.5994,0.04052734,0.5994,-0.9970703,0.5994,-0.1606445,0.5994,-4.329268,0.5994,3.04878,0.5994,1.768293,0.1033448,0,0.1033448,0,0.5994,0.1020508,0.5994,-1.003906,0.5994,-0.05517578,0.5994,-1.768293,0.5994,3.353659,0.5994,0.9756098,0.1033448,1.644922E-05,0.1033448,0
0.6021,0.03710938,0.6021,-0.9970703,0.6021,-0.1601563,0.6021,-3.902439,0.6021,3.597561,0.6021,1.829268,0.1038103,0,0.1038103,0,0.6021,0.1010742,0.6021,-1.007324,0.6021,-0.05126953,0.6021,-2.012195,0.6021,3.109756,0.6021,0.8536586,0.1038103,1.393149E-05,0.1038103,0
0.6048,0.03808594,0.6048,-0.9990234,0.6048,-0.1674805,0.6048,-4.02439,0.6048,3.597561,0.6048,1.95122,0.1042759,0,0.1042759,0,0.6048,0.1015625,0.6048,-1.003906,0.6048,-0.05517578,0.6048,-1.585366,0.6048,3.109756,0.6048,0.6097561,0.1042759,1.292439E-05,0.1042759,0
0.6075,0.03857422,0.6075,-0.9975586,0.6075,-0.1640625,0.6075,-4.268293,0.6075,3.47561,0.6075,1.768293,0.1047414,0,0.1047414,0,0.6075,0.09863281,0.6075,-1.005371,0.6075,-0.05224609,0.6075,-1.707317,0.6075,3.231707,0.6075,0.7926829,0.1047414,1.326009E-05,0.1047414,0
0.6102,0.04150391,0.6102,-0.9931641,0.6102,-0.159668,0.6102,-4.390244,0.6102,3.353659,0.6102,1.768293,0.1052069,0,0.1052069,0,0.6102,0.1025391,0.6102,-1.00293,0.6102,-0.05126953,0.6102,-1.707317,0.6102,3.170732,0.6102,0.9146342,0.1052069,1.443504E-05,0.1052069,0
0.6129,0.03808594,0.6129,-0.996582,0.6129,-0.1577148,0.6129,-4.329268,0.6129,3.353659,0.6129,1.890244,0.1056724,0,0.1056724,0,0.6129,0.1030273,0.6129,-1.003418,0.6129,-0.0546875,0.6129,-1.707317,0.6129,3.292683,0.6129,0.6707317,0.1056724,1.460288E-05,0.1056724,0
0.6156,0.03466797,0.6156,-0.9951172,0.6156,-0.1577148,0.6156,-4.268293,0.6156,3.04878,0.6156,1.890244,0.1061379,0,0.1061379,0,0.6156,0.09912109,0.6156,-1.006348,0.6156,-0.05419922,0.6156,-1.707317,0.6156,3.04878,0.6156,0.6097561,0.1061379,1.443504E-05,0.1061379,0
0.6183,0.03466797,0.6183,-0.9975586,0.6183,-0.1557617,0.6183,-4.45122,0.6183,3.292683,0.6183,1.95122,0.1066034,0,0.1066034,0,0.6183,0.105957,0.6183,-1.004883,0.6183,-0.0546875,0.6183,-1.829268,0.6183,3.109756,0.6183,0.9146342,0.1066034,1.560998E-05,0.1066034,0
0.621,0.02929688,0.621,-1,0.621,-0.1586914,0.621,-4.207317,0.621,3.292683,0.621,2.073171,0.107069,0,0.107069,0,0.621,0.1054688,0.621,-1.006836,0.621,-0.05419922,0.621,-1.707317,0.621,3.109756,0.621,0.7926829,0.107069,1.695277E-05,0.107069,0
0.6237,0.03369141,0.6237,-0.9956055,0.6237,-0.1547852,0.6237,-3.963415,0.6237,3.292683,0.6237,2.073171,0.1075345,0,0.1075345,0,0.6237,0.1030273,0.6237,-1.001465,0.6237,-0.05859375,0.6237,-1.585366,0.6237,3.04878,0.6237,0.6707317,0.1075345,1.594568E-05,0.1075345,0
0.6264,0.03125,0.6264,-0.9980469,0.6264,-0.1577148,0.6264,-3.841464,0.6264,3.170732,0.6264,2.073171,0.108,0,0.108,0,0.6264,0.1000977,0.6264,-1.00293,0.6264,-0.05566406,0.6264,-1.890244,0.6264,3.231707,0.6264,0.7926829,0.108,1.594568E-05,0.108,0
0.6291,0.03369141,0.6291,-1.000488,0.6291,-0.1586914,0.6291,-4.390244,0.6291,2.926829,0.6291,2.012195,0.1084655,0,0.1084655,0,0.6291,0.1000977,0.6291,-1.00293,0.6291,-0.0546875,0.6291,-1.768293,0.6291,3.109756,0.6291,0.7926829,0.1084655,1.527428E-05,0.1084655,0
0.6318,0.03076172,0.6318,-0.9980469,0.6318,-0.15625,0.6318,-4.085366,0.6318,3.04878,0.6318,2.195122,0.108931,0,0.108931,0,0.6318,0.09912109,0.6318,-1.007324,0.6318,-0.05419922,0.6318,-1.402439,0.6318,3.170732,0.6318,0.6097561,0.108931,1.326009E-05,0.108931,0
0.6345,0.02783203,0.6345,-1,0.6345,-0.1547852,0.6345,-3.902439,0.6345,2.865854,0.6345,1.95122,0.1093965,0,0.1093965,0,0.6345,0.1010742,0.6345,-1.006348,0.6345,-0.05712891,0.6345,-1.829268,0.6345,3.170732,0.6345,0.8536586,0.1093965,1.359579E-05,0.1093965,0
0.6372,0.02880859,0.6372,-0.9990234,0.6372,-0.1503906,0.6372,-4.085366,0.6372,2.621951,0.6372,1.707317,0.1098621,0,0.1098621,0,0.6372,0.09765625,0.6372,-1.007813,0.6372,-0.05566406,0.6372,-1.707317,0.6372,2.987805,0.6372,0.9146342,0.1098621,1.460288E-05,0.1098621,0
0.6399,0.03222656,0.6399,-0.9970703,0.6399,-0.1513672,0.6399,-3.963415,0.6399,2.804878,0.6399,1.95122,0.1103276,0,0.1103276,0,0.6399,0.1044922,0.6399,-1.007813,0.6399,-0.04833984,0.6399,-1.52439,0.6399,3.170732,0.6399,0.8536586,0.1103276,1.527428E-05,0.1103276,0
0.6426,0.03515625,0.6426,-1,0.6426,-0.1494141,0.6426,-4.02439,0.6426,2.804878,0.6426,1.890244,0.1107931,0,0.1107931,0,0.6426,0.1020508,0.6426,-1.010254,0.6426,-0.05078125,0.6426,-1.707317,0.6426,2.987805,0.6426,0.9146342,0.1107931,1.426719E-05,0.1107931,0
0.6453,0.03271484,0.6453,-1.000488,0.6453,-0.1513672,0.6453,-4.085366,0.6453,2.987805,0.6453,1.646341,0.1112586,0,0.1112586,0,0.6453,0.1005859,0.6453,-1.01416,0.6453,-0.05175781,0.6453,-1.768293,0.6453,3.04878,0.6453,0.7317073,0.1112586,1.19173E-05,0.1112586,0
0.648,0.03515625,0.648,-1.000488,0.648,-0.1469727,0.648,-4.085366,0.648,2.987805,0.648,1.646341,0.1117241,0,0.1117241,0,0.648,0.09814453,0.648,-1.001465,0.648,-0.05322266,0.648,-1.890244,0.648,3.170732,0.648,0.7926829,0.1117241,1.15816E-05,0.1117241,0
0.6507,0.03564453,0.6507,-1.001953,0.6507,-0.152832,0.6507,-4.146341,0.6507,2.987805,0.6507,2.012195,0.1121897,0,0.1121897,0,0.6507,0.1000977,0.6507,-1.003418,0.6507,-0.05029297,0.6507,-1.768293,0.6507,2.926829,0.6507,0.8536586,0.1121897,1.326009E-05,0.1121897,0
0.6534,0.03515625,0.6534,-0.9956055,0.6534,-0.152832,0.6534,-3.902439,0.6534,2.926829,0.6534,1.707317,0.1126552,0,0.1126552,0,0.6534,0.1035156,0.6534,-1.007813,0.6534,-0.0546875,0.6534,-1.52439,0.6534,3.04878,0.6534,0.7317073,0.1126552,1.560998E-05,0.1126552,0
0.6561,0.03759766,0.6561,-1.000977,0.6561,-0.1484375,0.6561,-4.02439,0.6561,2.865854,0.6561,1.768293,0.1131207,0,0.1131207,0,0.6561,0.1049805,0.6561,-1.009766,0.6561,-0.05322266,0.6561,-1.829268,0.6561,3.04878,0.6561,0.7317073,0.1131207,1.443504E-05,0.1131207,0
0.6588,0.03955078,0.6588,-1.000488,0.6588,-0.1469727,0.6588,-3.719512,0.6588,2.804878,0.6588,1.646341,0.1135862,0,0.1135862,0,0.6588,0.09814453,0.6588,-1.006348,0.6588,-0.04931641,0.6588,-1.585366,0.6588,3.292683,0.6588,0.7317073,0.1135862,1.12459E-05,0.1135862,0
0.6615,0.04443359,0.6615,-0.9960938,0.6615,-0.1489258,0.6615,-3.719512,0.6615,2.926829,0.6615,1.585366,0.1140517,0,0.1140517,0,0.6615,0.1000977,0.6615,-1.006348,0.6615,-0.05322266,0.6615,-1.829268,0.6615,2.743902,0.6615,0.8536586,0.1140517,1.12459E-05,0.1140517,0
0.6642,0.04248047,0.6642,-1.000488,0.6642,-0.1489258,0.6642,-3.719512,0.6642,2.987805,0.6642,1.52439,0.1145172,0,0.1145172,0,0.6642,0.1000977,0.6642,-1.006348,0.6642,-0.05224609,0.6642,-1.890244,0.6642,2.926829,0.6642,0.6707317,0.1145172,1.460288E-05,0.1145172,0
0.6669,0.04248047,0.6669,-1.003906,0.6669,-0.1508789,0.6669,-4.02439,0.6669,3.231707,0.6669,1.341463,0.1149828,0,0.1149828,0,0.6669,0.09863281,0.6669,-1.006348,0.6669,-0.05517578,0.6669,-1.707317,0.6669,3.04878,0.6669,0.6707317,0.1149828,1.594568E-05,0.1149828,0
0.6696,0.04199219,0.6696,-0.9960938,0.6696,-0.1518555,0.6696,-4.02439,0.6696,3.04878,0.6696,1.402439,0.1154483,0,0.1154483,0,0.6696,0.1000977,0.6696,-1.006836,0.6696,-0.0546875,0.6696,-2.012195,0.6696,2.987805,0.6696,0.6097561,0.1154483,1.594568E-05,0.1154483,0
0.6723,0.04541016,0.6723,-0.9980469,0.6723,-0.1567383,0.6723,-3.963415,0.6723,3.109756,0.6723,1.585366,0.1159138,0,0.1159138,0,0.6723,0.09619141,0.6723,-1.007813,0.6723,-0.05371094,0.6723,-1.95122,0.6723,2.926829,0.6723,0.9756098,0.1159138,1.628138E-05,0.1159138,0
0.675,0.04150391,0.675,-0.996582,0.675,-0.1538086,0.675,-3.963415,0.675,3.292683,0.675,1.52439,0.1163793,0,0.1163793,0,0.675,0.09814453,0.675,-1.009766,0.675,-0.04833984,0.675,-2.073171,0.675,2.987805,0.675,0.9756098,0.1163793,1.527428E-05,0.1163793,0
0.6777,0.04296875,0.6777,-0.9985352,0.6777,-0.1552734,0.6777,-4.085366,0.6777,3.231707,0.6777,1.646341,0.1168448,0,0.1168448,0,0.6777,0.09472656,0.6777,-1.009277,0.6777,-0.05175781,0.6777,-1.890244,0.6777,3.292683,0.6777,0.9756098,0.1168448,1.326009E-05,0.1168448,0
0.6804,0.04443359,0.6804,-0.9975586,0.6804,-0.1582031,0.6804,-4.085366,0.6804,3.04878,0.6804,1.52439,0.1173103,0,0.1173103,0,0.6804,0.1010742,0.6804,-1.009766,0.6804,-0.0546875,0.6804,-1.768293,0.6804,3.04878,0.6804,0.8536586,0.1173103,1.258869E-05,0.1173103,0
0.6831,0.04443359,0.6831,-0.9990234,0.6831,-0.1577148,0.6831,-3.963415,0.6831,2.926829,0.6831,1.52439,0.1177759,0,0.1177759,0,0.6831,0.09960938,0.6831,-1.009277,0.6831,-0.05517578,0.6831,-1.52439,0.6831,3.170732,0.6831,0.9756098,0.1177759,1.292439E-05,0.1177759,0
0.6858,0.04199219,0.6858,-0.9985352,0.6858,-0.1552734,0.6858,-4.268293,0.6858,3.04878,0.6858,1.280488,0.1182414,0,0.1182414,0,0.6858,0.09716797,0.6858,-1.006836,0.6858,-0.05761719,0.6858,-1.646341,0.6858,3.109756,0.6858,0.9146342,0.1182414,1.225299E-05,0.1182414,0
0.6885,0.04296875,0.6885,-0.9970703,0.6885,-0.159668,0.6885,-4.146341,0.6885,2.865854,0.6885,1.463415,0.1187069,0,0.1187069,0,0.6885,0.09960938,0.6885,-1.008301,0.6885,-0.05615234,0.6885,-1.402439,0.6885,3.109756,0.6885,0.9146342,0.1187069,1.12459E-05,0.1187069,0
0.6912,0.04150391,0.6912,-0.9985352,0.6912,-0.1586914,0.6912,-4.02439,0.6912,2.743902,0.6912,1.829268,0.1191724,0,0.1191724,0,0.6912,0.09814453,0.6912,-1.008301,0.6912,-0.05273438,0.6912,-1.646341,0.6912,3.04878,0.6912,0.9756098,0.1191724,1.09102E-05,0.1191724,0
0.6939,0.04003906,0.6939,-0.9951172,0.6939,-0.1518555,0.6939,-4.085366,0.6939,2.804878,0.6939,1.585366,0.1196379,0,0.1196379,0,0.6939,0.1000977,0.6939,-1.011719,0.6939,-0.05615234,0.6939,-1.707317,0.6939,2.987805,0.6939,1.219512,0.1196379,1.12459E-05,0.1196379,0
0.6966,0.04248047,0.6966,-0.996582,0.6966,-0.1513672,0.6966,-3.902439,0.6966,2.682927,0.6966,1.585366,0.1201034,0,0.1201034,0,0.6966,0.09960938,0.6966,-1.009766,0.6966,-0.0546875,0.6966,-1.829268,0.6966,2.987805,0.6966,1.097561,0.1201034,1.225299E-05,0.1201034,0
0.6993,0.03857422,0.6993,-0.9956055,0.6993,-0.1533203,0.6993,-3.780488,0.6993,2.926829,0.6993,1.463415,0.120569,0,0.120569,0,0.6993,0.1015625,0.6993,-1.012695,0.6993,-0.05517578,0.6993,-1.646341,0.6993,3.04878,0.6993,1.036585,0.120569,1.393149E-05,0.120569,0
0.702,0.0390625,0.702,-0.996582,0.702,-0.1552734,0.702,-3.902439,0.702,2.621951,0.702,1.768293,0.1210345,0,0.1210345,0,0.702,0.1010742,0.702,-1.013184,0.702,-0.05322266,0.702,-1.707317,0.702,2.621951,0.702,1.036585,0.1210345,1.426719E-05,0.1210345,0
0.7047,0.03710938,0.7047,-0.9990234,0.7047,-0.1567383,0.7047,-4.085366,0.7047,2.804878,0.7047,1.585366,0.1215,0,0.1215,0,0.7047,0.1005859,0.7047,-1.013184,0.7047,-0.05126953,0.7047,-1.707317,0.7047,2.804878,0.7047,0.7317073,0.1215,1.393149E-05,0.1215,-4.078737E-05
0.7074,0.03515625,0.7074,-0.9960938,0.7074,-0.1577148,0.7074,-4.085366,0.7074,2.743902,0.7074,1.585366,0.1219655,0,0.1219655,0,0.7074,0.1025391,0.7074,-1.009277,0.7074,-0.05419922,0.7074,-1.280488,0.7074,2.804878,0.7074,0.9756098,0.1219655,1.326009E-05,0.1219655,-4.380865E-05
0.7101,0.03320313,0.7101,-0.9985352,0.7101,-0.1591797,0.7101,-3.841464,0.7101,2.621951,0.7101,1.768293,0.122431,0,0.122431,0,0.7101,0.1015625,0.7101,-1.008301,0.7101,-0.05566406,0.7101,-1.463415,0.7101,2.987805,0.7101,1.097561,0.122431,1.359579E-05,0.122431,-5.119402E-05
0.7128,0.03271484,0.7128,-0.9990234,0.7128,-0.1621094,0.7128,-4.207317,0.7128,2.682927,0.7128,1.768293,0.1228966,0,0.1228966,0,0.7128,0.09716797,0.7128,-1.009277,0.7128,-0.05126953,0.7128,-1.646341,0.7128,2.682927,0.7128,0.7317073,0.1228966,1.493858E-05,0.1228966,-5.58938E-05
0.7155,0.03564453,0.7155,-1.001953,0.7155,-0.1582031,0.7155,-4.146341,0.7155,2.804878,0.7155,1.402439,0.1233621,0,0.1233621,0,0.7155,0.09716797,0.7155,-1.009277,0.7155,-0.05029297,0.7155,-1.646341,0.7155,2.743902,0.7155,0.9756098,0.1233621,1.527428E-05,0.1233621,-5.958648E-05
0.7182,0.03515625,0.7182,-1.000977,0.7182,-0.1577148,0.7182,-4.45122,0.7182,3.170732,0.7182,1.463415,0.1238276,0,0.1238276,0,0.7182,0.09814453,0.7182,-1.007324,0.7182,-0.05322266,0.7182,-1.463415,0.7182,2.865854,0.7182,0.9756098,0.1238276,1.594568E-05,0.1238276,-6.478981E-05
0.7209,0.03466797,0.7209,-1.000488,0.7209,-0.15625,0.7209,-4.207317,0.7209,2.804878,0.7209,1.585366,0.1242931,0,0.1242931,0,0.7209,0.1020508,0.7209,-1.008301,0.7209,-0.05126953,0.7209,-1.341463,0.7209,3.04878,0.7209,1.036585,0.1242931,1.661708E-05,0.1242931,-7.150377E-05
0.7236,0.03271484,0.7236,-1,0.7236,-0.1557617,0.7236,-4.268293,0.7236,2.865854,0.7236,1.768293,0.1247586,0,0.1247586,0,0.7236,0.1015625,0.7236,-1.007813,0.7236,-0.05371094,0.7236,-1.463415,0.7236,2.743902,0.7236,1.036585,0.1247586,1.594568E-05,0.1247586,-7.570001E-05
0.7263,0.03466797,0.7263,-0.9985352,0.7263,-0.1552734,0.7263,-4.268293,0.7263,2.987805,0.7263,1.52439,0.1252241,0,0.1252241,0,0.7263,0.1044922,0.7263,-1.005859,0.7263,-0.05419922,0.7263,-1.52439,0.7263,3.04878,0.7263,0.9756098,0.1252241,1.460288E-05,0.1252241,-7.70428E-05
0.729,0.03271484,0.729,-0.9995117,0.729,-0.1572266,0.729,-4.329268,0.729,3.04878,0.729,1.829268,0.1256897,0,0.1256897,0,0.729,0.1035156,0.729,-1.007813,0.729,-0.05664063,0.729,-1.341463,0.729,3.04878,0.729,0.8536586,0.1256897,1.460288E-05,0.1256897,-7.939269E-05
0.7317,0.03320313,0.7317,-1.000488,0.7317,-0.1542969,0.7317,-3.902439,0.7317,3.170732,0.7317,1.402439,0.1261552,0,0.1261552,0,0.7317,0.1030273,0.7317,-1.004883,0.7317,-0.05322266,0.7317,-1.463415,0.7317,3.170732,0.7317,0.8536586,0.1261552,1.560998E-05,0.1261552,-8.459602E-05
0.7344,0.03125,0.7344,-0.9995117,0.7344,-0.1542969,0.7344,-3.902439,0.7344,3.231707,0.7344,1.52439,0.1266207,0,0.1266207,0,0.7344,0.1044922,0.7344,-1.005859,0.7344,-0.05126953,0.7344,-1.402439,0.7344,3.231707,0.7344,0.9756098,0.1266207,1.695277E-05,0.1266207,-9.147784E-05
0.7371,0.03173828,0.7371,-0.9990234,0.7371,-0.1523438,0.7371,-3.841464,0.7371,3.231707,0.7371,1.585366,0.1270862,0,0.1270862,0,0.7371,0.1020508,0.7371,-1.001465,0.7371,-0.05126953,0.7371,-1.646341,0.7371,3.231707,0.7371,1.158537,0.1270862,1.577783E-05,0.1270862,-9.584192E-05
0.7398,0.03125,0.7398,-1.004395,0.7398,-0.1513672,0.7398,-3.780488,0.7398,3.292683,0.7398,1.768293,0.1275517,0,0.1275517,0,0.7398,0.09716797,0.7398,-1.006348,0.7398,-0.05175781,0.7398,-1.52439,0.7398,3.414634,0.7398,1.158537,0.1275517,1.393149E-05,0.1275517,-9.684901E-05
0.7425,0.03369141,0.7425,-1.00293,0.7425,-0.1484375,0.7425,-3.719512,0.7425,3.292683,0.7425,1.768293,0.1280172,0,0.1280172,0,0.7425,0.1015625,0.7425,-1.006836,0.7425,-0.05371094,0.7425,-1.52439,0.7425,3.536585,0.7425,0.7926829,0.1280172,1.393149E-05,0.1280172,-9.584192E-05
0.7452,0.03125,0.7452,-1.002441,0.7452,-0.1533203,0.7452,-3.658537,0.7452,3.04878,0.7452,1.707317,0.1284828,0,0.1284828,0,0.7452,0.1020508,0.7452,-1.010254,0.7452,-0.05517578,0.7452,-1.219512,0.7452,3.04878,0.7452,0.8536586,0.1284828,1.326009E-05,0.1284828,-9.819181E-05
0.7479,0.03271484,0.7479,-1.005371,0.7479,-0.1552734,0.7479,-3.597561,0.7479,2.987805,0.7479,1.890244,0.1289483,0,0.1289483,0,0.7479,0.1000977,0.7479,-1.007813,0.7479,-0.05615234,0.7479,-1.52439,0.7479,3.231707,0.7479,0.9756098,0.1289483,1.174945E-05,0.1289483,-0.0001038987
0.7506,0.03173828,0.7506,-1.003418,0.7506,-0.152832,0.7506,-3.658537,0.7506,2.987805,0.7506,1.95122,0.1294138,0,0.1294138,0,0.7506,0.1035156,0.7506,-1.007324,0.7506,-0.05664063,0.7506,-1.463415,0.7506,3.353659,0.7506,1.097561,0.1294138,1.05745E-05,0.1294138,-0.0001049058
0.7533,0.03808594,0.7533,-1.00293,0.7533,-0.1591797,0.7533,-3.658537,0.7533,3.04878,0.7533,1.95122,0.1298793,0,0.1298793,0,0.7533,0.1030273,0.7533,-1.004395,0.7533,-0.05712891,0.7533,-1.341463,0.7533,3.04878,0.7533,0.8536586,0.1298793,9.903105E-06,0.1298793,-0.0001008774
0.756,0.03417969,0.756,-1.000977,0.756,-0.1577148,0.756,-3.963415,0.756,2.865854,0.756,1.890244,0.1303448,0,0.1303448,0,0.756,0.1010742,0.756,-1.009277,0.756,-0.05615234,0.756,-1.585366,0.756,3.04878,0.756,1.097561,0.1303448,9.231709E-06,0.1303448,-9.449913E-05
0.7587,0.02978516,0.7587,-1.002441,0.7587,-0.1577148,0.7587,-3.719512,0.7587,2.926829,0.7587,1.890244,0.1308103,0,0.1308103,0,0.7587,0.09667969,0.7587,-1.012207,0.7587,-0.05615234,0.7587,-1.463415,0.7587,2.865854,0.7587,0.9756098,0.1308103,9.231709E-06,0.1308103,-8.812085E-05
0.7614,0.03125,0.7614,-1.001953,0.7614,-0.159668,0.7614,-3.780488,0.7614,2.621951,0.7614,1.95122,0.1312759,0,0.1312759,0,0.7614,0.1015625,0.7614,-1.013672,0.7614,-0.05664063,0.7614,-1.341463,0.7614,3.292683,0.7614,1.097561,0.1312759,9.567407E-06,0.1312759,-8.140688E-05
0.7641,0.03710938,0.7641,-0.9975586,0.7641,-0.1582031,0.7641,-4.085366,0.7641,2.804878,0.7641,2.073171,0.1317414,0,0.1317414,0,0.7641,0.1015625,0.7641,-1.011719,0.7641,-0.05419922,0.7641,-1.463415,0.7641,2.804878,0.7641,1.158537,0.1317414,9.903105E-06,0.1317414,-7.301442E-05
0.7668,0.03417969,0.7668,-0.9960938,0.7668,-0.1542969,0.7668,-3.780488,0.7668,2.560976,0.7668,1.829268,0.1322069,0,0.1322069,0,0.7668,0.09814453,0.7668,-1.014648,0.7668,-0.05517578,0.7668,-1.402439,0.7668,2.682927,0.7668,1.341463,0.1322069,9.903105E-06,0.1322069,-6.277562E-05
0.7695,0.03466797,0.7695,-0.9946289,0.7695,-0.1611328,0.7695,-3.719512,0.7695,2.5,0.7695,1.890244,0.1326724,0,0.1326724,0,0.7695,0.1015625,0.7695,-1.011719,0.7695,-0.05712891,0.7695,-1.219512,0.7695,3.04878,0.7695,1.158537,0.1326724,1.040665E-05,0.1326724,-5.203327E-05
0.7722,0.0390625,0.7722,-0.9960938,0.7722,-0.1601563,0.7722,-3.597561,0.7722,2.134146,0.7722,1.768293,0.1331379,0,0.1331379,0,0.7722,0.1010742,0.7722,-1.01123,0.7722,-0.05615234,0.7722,-1.219512,0.7722,2.865854,0.7722,1.158537,0.1331379,1.05745E-05,0.1331379,-4.263371E-05
0.7749,0.03710938,0.7749,-0.9960938,0.7749,-0.1601563,0.7749,-3.719512,0.7749,2.560976,0.7749,1.829268,0.1336034,0,0.1336034,0,0.7749,0.09667969,0.7749,-1.013672,0.7749,-0.05957031,0.7749,-1.463415,0.7749,2.804878,0.7749,1.341463,0.1336034,1.19173E-05,0.1336034,-3.457694E-05
0.7776,0.03369141,0.7776,-0.9980469,0.7776,-0.1606445,0.7776,-3.658537,0.7776,2.560976,0.7776,1.890244,0.134069,0,0.134069,0,0.7776,0.09667969,0.7776,-1.013672,0.7776,-0.0625,0.7776,-1.280488,0.7776,2.804878,0.7776,1.280488,0.134069,1.393149E-05,0.134069,-2.702373E-05
0.7803,0.03808594,0.7803,-0.9975586,0.7803,-0.159668,0.7803,-3.536585,0.7803,2.560976,0.7803,1.95122,0.1345345,0,0.1345345,0,0.7803,0.1010742,0.7803,-1.010742,0.7803,-0.06201172,0.7803,-1.341463,0.7803,2.682927,0.7803,1.219512,0.1345345,1.393149E-05,0.1345345,-1.829557E-05
0.783,0.03808594,0.783,-0.9956055,0.783,-0.1586914,0.783,-3.353659,0.783,2.621951,0.783,1.829268,0.135,0,0.135,0,0.783,0.1015625,0.783,-1.009277,0.783,-0.06494141,0.783,-1.219512,0.783,3.04878,0.783,1.341463,0.135,1.292439E-05,0.135,-9.903105E-06
0.7857,0.03613281,0.7857,-0.9951172,0.7857,-0.1577148,0.7857,-3.353659,0.7857,2.621951,0.7857,1.768293,0.1354655,0,0.1354655,0,0.7857,0.1010742,0.7857,-1.011719,0.7857,-0.06152344,0.7857,-1.158537,0.7857,2.926829,0.7857,1.280488,0.1354655,1.12459E-05,0.1354655,-1.510643E-06
0.7884,0.03857422,0.7884,-0.9980469,0.7884,-0.1601563,0.7884,-3.292683,0.7884,2.560976,0.7884,1.707317,0.135931,0,0.135931,0,0.7884,0.1030273,0.7884,-1.006836,0.7884,-0.06152344,0.7884,-1.158537,0.7884,2.987805,0.7884,1.097561,0.135931,9.903105E-06,0.135931,6.881819E-06
0.7911,0.03857422,0.7911,-0.9975586,0.7911,-0.1586914,0.7911,-3.414634,0.7911,2.621951,0.7911,1.585366,0.1363965,0,0.1363965,0,0.7911,0.1000977,0.7911,-1.007813,0.7911,-0.06152344,0.7911,-0.7317073,0.7911,3.231707,0.7911,1.158537,0.1363965,1.040665E-05,0.1363965,1.393149E-05
0.7938,0.03955078,0.7938,-0.9970703,0.7938,-0.1586914,0.7938,-3.353659,0.7938,2.682927,0.7938,1.646341,0.1368621,0,0.1368621,0,0.7938,0.1030273,0.7938,-1.003906,0.7938,-0.06347656,0.7938,-1.036585,0.7938,3.109756,0.7938,0.9756098,0.1368621,1.12459E-05,0.1368621,1.846342E-05
0.7965,0.03955078,0.7965,-0.9956055,0.7965,-0.1567383,0.7965,-3.414634,0.7965,2.5,0.7965,1.463415,0.1373276,0,0.1373276,0,0.7965,0.1030273,0.7965,-1.008301,0.7965,-0.0625,0.7965,-0.7926829,0.7965,3.109756,0.7965,1.158537,0.1373276,1.393149E-05,0.1373276,2.400244E-05
0.7992,0.04003906,0.7992,-0.996582,0.7992,-0.159668,0.7992,-3.414634,0.7992,2.743902,0.7992,1.95122,0.1377931,0,0.1377931,0,0.7992,0.1030273,0.7992,-1.007813,0.7992,-0.06298828,0.7992,-0.7317073,0.7992,3.109756,0.7992,1.219512,0.1377931,1.493858E-05,0.1377931,2.987716E-05
0.8019,0.03857422,0.8019,-0.9975586,0.8019,-0.1591797,0.8019,-3.780488,0.8019,2.560976,0.8019,1.95122,0.1382586,0,0.1382586,0,0.8019,0.105957,0.8019,-1.010254,0.8019,-0.05957031,0.8019,-1.036585,0.8019,3.04878,0.8019,1.097561,0.1382586,1.359579E-05,0.1382586,3.3402E-05
0.8046,0.03759766,0.8046,-0.9990234,0.8046,-0.1567383,0.8046,-3.47561,0.8046,2.743902,0.8046,1.768293,0.1387241,0,0.1387241,0,0.8046,0.1064453,0.8046,-1.004395,0.8046,-0.06201172,0.8046,-1.280488,0.8046,3.04878,0.8046,0.9756098,0.1387241,1.12459E-05,0.1387241,3.37377E-05
0.8073,0.03759766,0.8073,-1.00293,0.8073,-0.1567383,0.8073,-3.658537,0.8073,2.743902,0.8073,1.646341,0.1391896,0,0.1391896,0,0.8073,0.1044922,0.8073,-1.004883,0.8073,-0.05517578,0.8073,-1.463415,0.8073,3.170732,0.8073,0.9756098,0.1391896,1.225299E-05,0.1391896,3.27306E-05
0.81,0.03759766,0.81,-0.9980469,0.81,-0.1567383,0.81,-3.719512,0.81,2.439024,0.81,1.646341,0.1396552,0,0.1396552,0,0.81,0.1040039,0.81,-1.002441,0.81,-0.05664063,0.81,-1.341463,0.81,3.170732,0.81,1.219512,0.1396552,1.376364E-05,0.1396552,3.20592E-05
0.8127,0.03710938,0.8127,-0.9980469,0.8127,-0.1577148,0.8127,-3.536585,0.8127,2.682927,0.8127,1.707317,0.1401207,0,0.1401207,0,0.8127,0.1040039,0.8127,-1.001953,0.8127,-0.05957031,0.8127,-1.707317,0.8127,2.987805,0.8127,0.9146342,0.1401207,1.460288E-05,0.1401207,3.172351E-05
0.8154,0.03857422,0.8154,-0.9985352,0.8154,-0.1582031,0.8154,-3.597561,0.8154,2.621951,0.8154,1.95122,0.1405862,0,0.1405862,0,0.8154,0.1069336,0.8154,-1.006348,0.8154,-0.05322266,0.8154,-1.463415,0.8154,2.926829,0.8154,0.9146342,0.1405862,1.493858E-05,0.1405862,2.803082E-05
0.8181,0.03662109,0.8181,-1.000977,0.8181,-0.1611328,0.8181,-3.780488,0.8181,2.865854,0.8181,1.768293,0.1410517,0,0.1410517,0,0.8181,0.1054688,0.8181,-1.006348,0.8181,-0.05810547,0.8181,-1.463415,0.8181,2.987805,0.8181,0.8536586,0.1410517,1.460288E-05,0.1410517,2.383459E-05
0.8208,0.03515625,0.8208,-0.9970703,0.8208,-0.15625,0.8208,-3.780488,0.8208,2.560976,0.8208,1.707317,0.1415172,0,0.1415172,0,0.8208,0.1040039,0.8208,-1.00293,0.8208,-0.05761719,0.8208,-2.012195,0.8208,3.170732,0.8208,1.158537,0.1415172,1.326009E-05,0.1415172,2.030976E-05
0.8235,0.03515625,0.8235,-0.9946289,0.8235,-0.1586914,0.8235,-3.902439,0.8235,2.682927,0.8235,1.585366,0.1419827,0,0.1419827,0,0.8235,0.1035156,0.8235,-1.001953,0.8235,-0.05712891,0.8235,-2.256098,0.8235,3.292683,0.8235,0.9146342,0.1419827,1.12459E-05,0.1419827,1.661708E-05
0.8262,0.03662109,0.8262,-0.9960938,0.8262,-0.159668,0.8262,-4.207317,0.8262,2.682927,0.8262,1.585366,0.1424483,0,0.1424483,0,0.8262,0.1010742,0.8262,-1.002441,0.8262,-0.05615234,0.8262,-1.829268,0.8262,3.109756,0.8262,0.9146342,0.1424483,1.12459E-05,0.1424483,1.05745E-05
0.8289,0.03613281,0.8289,-0.9960938,0.8289,-0.159668,0.8289,-4.207317,0.8289,2.865854,0.8289,1.768293,0.1429138,0,0.1429138,0,0.8289,0.1000977,0.8289,-1.004883,0.8289,-0.05761719,0.8289,-1.95122,0.8289,3.109756,0.8289,0.7317073,0.1429138,1.15816E-05,0.1429138,3.524834E-06
0.8316,0.03466797,0.8316,-0.9907227,0.8316,-0.1601563,0.8316,-4.02439,0.8316,2.926829,0.8316,1.646341,0.1433793,0,0.1433793,0,0.8316,0.1000977,0.8316,-1.007813,0.8316,-0.05908203,0.8316,-2.195122,0.8316,3.109756,0.8316,0.7926829,0.1433793,1.174945E-05,0.1433793,-2.18204E-06
0.8343,0.04199219,0.8343,-0.9931641,0.8343,-0.1611328,0.8343,-4.268293,0.8343,2.804878,0.8343,1.707317,0.1438448,0,0.1438448,0,0.8343,0.09912109,0.8343,-1.005859,0.8343,-0.06005859,0.8343,-2.317073,0.8343,3.04878,0.8343,0.8536586,0.1438448,1.225299E-05,0.1438448,-5.539025E-06
0.837,0.0390625,0.837,-0.996582,0.837,-0.1577148,0.837,-4.390244,0.837,2.804878,0.837,1.646341,0.1443103,0,0.1443103,0,0.837,0.09960938,0.837,-1.003418,0.837,-0.05810547,0.837,-2.134146,0.837,2.865854,0.837,0.4878049,0.1443103,1.326009E-05,0.1443103,-9.735256E-06
0.8397,0.03759766,0.8397,-0.9990234,0.8397,-0.1616211,0.8397,-4.207317,0.8397,3.04878,0.8397,1.52439,0.1447759,0,0.1447759,0,0.8397,0.1010742,0.8397,-1.003906,0.8397,-0.06152344,0.8397,-2.317073,0.8397,3.109756,0.8397,0.7317073,0.1447759,1.359579E-05,0.1447759,-1.493858E-05
0.8424,0.03759766,0.8424,-0.9990234,0.8424,-0.1611328,0.8424,-4.268293,0.8424,2.865854,0.8424,1.646341,0.1452414,0,0.1452414,0,0.8424,0.1005859,0.8424,-1.007324,0.8424,-0.06347656,0.8424,-2.317073,0.8424,3.04878,0.8424,0.8536586,0.1452414,1.258869E-05,0.1452414,-1.896696E-05
0.8451,0.04003906,0.8451,-0.9970703,0.8451,-0.1640625,0.8451,-4.512195,0.8451,2.743902,0.8451,1.95122,0.1457069,0,0.1457069,0,0.8451,0.1000977,0.8451,-1.009277,0.8451,-0.06298828,0.8451,-2.134146,0.8451,2.865854,0.8451,0.7317073,0.1457069,1.19173E-05,0.1457069,-2.098116E-05
0.8478,0.03369141,0.8478,-0.9960938,0.8478,-0.1606445,0.8478,-4.268293,0.8478,3.04878,0.8478,2.073171,0.1461724,0,0.1461724,0,0.8478,0.1005859,0.8478,-1.008301,0.8478,-0.05957031,0.8478,-2.378049,0.8478,2.987805,0.8478,0.4268293,0.1461724,1.426719E-05,0.1461724,-2.299535E-05
0.8505,0.03515625,0.8505,-0.9936523,0.8505,-0.159668,0.8505,-4.268293,0.8505,3.04878,0.8505,2.012195,0.1466379,0,0.1466379,0,0.8505,0.1005859,0.8505,-1.008301,0.8505,-0.05761719,0.8505,-2.256098,0.8505,3.109756,0.8505,0.4878049,0.1466379,1.594568E-05,0.1466379,-2.568093E-05
0.8532,0.03662109,0.8532,-0.9956055,0.8532,-0.1616211,0.8532,-4.390244,0.8532,3.353659,0.8532,1.890244,0.1471034,0,0.1471034,0,0.8532,0.1035156,0.8532,-1.010742,0.8532,-0.06152344,0.8532,-2.012195,0.8532,3.04878,0.8532,0.9756098,0.1471034,1.527428E-05,0.1471034,-2.870222E-05
0.8559,0.03613281,0.8559,-0.9980469,0.8559,-0.1591797,0.8559,-3.963415,0.8559,3.292683,0.8559,1.890244,0.147569,0,0.147569,0,0.8559,0.1020508,0.8559,-1.008301,0.8559,-0.06103516,0.8559,-2.378049,0.8559,2.865854,0.8559,0.7926829,0.147569,1.326009E-05,0.147569,-3.105211E-05
0.8586,0.03125,0.8586,-1.000977,0.8586,-0.1606445,0.8586,-3.841464,0.8586,3.292683,0.8586,1.890244,0.1480345,0,0.1480345,0,0.8586,0.09619141,0.8586,-1.009277,0.8586,-0.06054688,0.8586,-2.317073,0.8586,2.865854,0.8586,0.7926829,0.1480345,1.242084E-05,0.1480345,-3.105211E-05
0.8613,0.03564453,0.8613,-1,0.8613,-0.1645508,0.8613,-3.963415,0.8613,3.47561,0.8613,2.073171,0.1485,0,0.1485,-1.326009E-05,0.8613,0.09521484,0.8613,-1.008789,0.8613,-0.05664063,0.8613,-2.195122,0.8613,2.621951,0.8613,0.6707317,0.1485,1.242084E-05,0.1485,-3.004501E-05
0.864,0.0390625,0.864,-0.9975586,0.864,-0.1616211,0.864,-3.780488,0.864,3.414634,0.864,1.646341,0.1489655,0,0.1489655,-8.560311E-06,0.864,0.09765625,0.864,-1.010254,0.864,-0.06103516,0.864,-1.890244,0.864,2.743902,0.864,0.9756098,0.1489655,1.393149E-05,0.1489655,-2.853437E-05
0.8667,0.03710938,0.8667,-1.001465,0.8667,-0.1611328,0.8667,-3.719512,0.8667,3.47561,0.8667,1.585366,0.149431,0,0.149431,-8.89601E-06,0.8667,0.09814453,0.8667,-1.010742,0.8667,-0.05664063,0.8667,-2.012195,0.8667,2.682927,0.8667,1.036585,0.149431,1.594568E-05,0.149431,-2.735943E-05
0.8694,0.03466797,0.8694,-1.000488,0.8694,-0.1630859,0.8694,-3.780488,0.8694,3.353659,0.8694,1.646341,0.1498965,0,0.1498965,-8.224612E-06,0.8694,0.1015625,0.8694,-1.01123,0.8694,-0.05859375,0.8694,-1.95122,0.8694,2.682927,0.8694,1.097561,0.1498965,1.577783E-05,0.1498965,-2.450599E-05
0.8721,0.03759766,0.8721,-1.000488,0.8721,-0.1625977,0.8721,-3.841464,0.8721,3.292683,0.8721,1.52439,0.1503621,0,0.1503621,-7.049668E-06,0.8721,0.1035156,0.8721,-1.008301,0.8721,-0.05761719,0.8721,-1.829268,0.8721,2.5,0.8721,0.8536586,0.1503621,1.460288E-05,0.1503621,-1.930266E-05
0.8748,0.03662109,0.8748,-0.9970703,0.8748,-0.1655273,0.8748,-3.780488,0.8748,3.04878,0.8748,1.646341,0.1508276,0,0.1508276,-7.553216E-06,0.8748,0.1010742,0.8748,-1.007324,0.8748,-0.06103516,0.8748,-2.073171,0.8748,2.5,0.8748,0.7926829,0.1508276,1.393149E-05,0.1508276,-1.393149E-05
0.8775,0.03515625,0.8775,-1.000977,0.8775,-0.1586914,0.8775,-3.597561,0.8775,2.926829,0.8775,1.829268,0.1512931,0,0.1512931,-8.560311E-06,0.8775,0.09863281,0.8775,-1.006348,0.8775,-0.05517578,0.8775,-1.890244,0.8775,2.621951,0.8775,0.9146342,0.1512931,1.426719E-05,0.1512931,-1.02388E-05
0.8802,0.03564453,0.8802,-1.004395,0.8802,-0.1572266,0.8802,-3.841464,0.8802,3.04878,0.8802,1.646341,0.1517586,0,0.1517586,-8.89601E-06,0.8802,0.09960938,0.8802,-1.009277,0.8802,-0.05566406,0.8802,-1.707317,0.8802,2.804878,0.8802,1.097561,0.1517586,1.560998E-05,0.1517586,-5.203327E-06
0.8829,0.03564453,0.8829,-1,0.8829,-0.1611328,0.8829,-3.841464,0.8829,2.743902,0.8829,1.463415,0.1522241,0,0.1522241,-8.224612E-06,0.8829,0.1035156,0.8829,-1.010742,0.8829,-0.05810547,0.8829,-1.646341,0.8829,2.865854,0.8829,0.8536586,0.1522241,1.728847E-05,0.1522241,1.342794E-06
0.8856,0.03710938,0.8856,-1,0.8856,-0.1635742,0.8856,-3.841464,0.8856,2.743902,0.8856,1.463415,0.1526897,0,0.1526897,-7.888914E-06,0.8856,0.09960938,0.8856,-1.009277,0.8856,-0.05615234,0.8856,-1.646341,0.8856,2.621951,0.8856,1.097561,0.1526897,1.728847E-05,0.1526897,7.385367E-06
0.8883,0.03710938,0.8883,-1.00293,0.8883,-0.1640625,0.8883,-4.02439,0.8883,2.682927,0.8883,1.768293,0.1531552,0,0.1531552,-8.224612E-06,0.8883,0.09863281,0.8883,-1.010742,0.8883,-0.06054688,0.8883,-1.585366,0.8883,2.5,0.8883,1.097561,0.1531552,1.493858E-05,0.1531552,1.326009E-05
0.891,0.03662109,0.891,-1.000488,0.891,-0.1630859,0.891,-3.597561,0.891,2.743902,0.891,1.646341,0.1536207,0,0.1536207,-7.888914E-06,0.891,0.1020508,0.891,-1.013184,0.891,-0.05761719,0.891,-1.585366,0.891,2.926829,0.891,1.097561,0.1536207,1.326009E-05,0.1536207,1.863127E-05
0.8937,0.03417969,0.8937,-1,0.8937,-0.1650391,0.8937,-3.597561,0.8937,2.743902,0.8937,1.768293,0.1540862,0,0.1540862,-7.217518E-06,0.8937,0.1030273,0.8937,-1.012207,0.8937,-0.05761719,0.8937,-1.463415,0.8937,2.682927,0.8937,0.8536586,0.1540862,1.527428E-05,0.1540862,2.467384E-05
0.8964,0.03271484,0.8964,-1.002441,0.8964,-0.1640625,0.8964,-3.536585,0.8964,2.743902,0.8964,1.707317,0.1545517,0,0.1545517,-7.217518E-06,0.8964,0.1020508,0.8964,-1.015137,0.8964,-0.05761719,0.8964,-1.280488,0.8964,2.804878,0.8964,0.9146342,0.1545517,1.728847E-05,0.1545517,3.23949E-05
0.8991,0.03515625,0.8991,-1.001953,0.8991,-0.1645508,0.8991,-3.47561,0.8991,2.682927,0.8991,1.890244,0.1550172,0,0.1550172,-8.224612E-06,0.8991,0.1015625,0.8991,-1.012207,0.8991,-0.05761719,0.8991,-1.280488,0.8991,2.987805,0.8991,1.219512,0.1550172,1.728847E-05,0.1550172,4.347295E-05
0.9018,0.03369141,0.9018,-1.003906,0.9018,-0.1665039,0.9018,-3.597561,0.9018,2.439024,0.9018,1.829268,0.1554828,0,0.1554828,-9.231709E-06,0.9018,0.1049805,0.9018,-1.014648,0.9018,-0.05908203,0.9018,-1.036585,0.9018,2.926829,0.9018,1.097561,0.1554828,1.644922E-05,0.1554828,5.320821E-05
0.9045,0.03466797,0.9045,-1.000488,0.9045,-0.1630859,0.9045,-3.719512,0.9045,2.621951,0.9045,1.95122,0.1559483,0,0.1559483,-9.735256E-06,0.9045,0.1044922,0.9045,-1.014648,0.9045,-0.05712891,0.9045,-1.036585,0.9045,2.865854,0.9045,1.158537,0.1559483,1.628138E-05,0.1559483,6.361486E-05
0.9072,0.03320313,0.9072,-1,0.9072,-0.1635742,0.9072,-3.414634,0.9072,2.5,0.9072,1.707317,0.1564138,0,0.1564138,-9.063859E-06,0.9072,0.09863281,0.9072,-1.013184,0.9072,-0.05957031,0.9072,-0.7317073,0.9072,2.926829,0.9072,1.219512,0.1564138,1.594568E-05,0.1564138,7.200732E-05
0.9099,0.03125,0.9099,-1.001953,0.9099,-0.1616211,0.9099,-3.47561,0.9099,2.682927,0.9099,1.890244,0.1568793,0,0.1568793,-8.224612E-06,0.9099,0.1044922,0.9099,-1.012207,0.9099,-0.06054688,0.9099,-1.036585,0.9099,2.926829,0.9099,0.9146342,0.1568793,1.393149E-05,0.1568793,7.67071E-05
0.9126,0.03173828,0.9126,-1.002441,0.9126,-0.1611328,0.9126,-3.292683,0.9126,2.743902,0.9126,1.95122,0.1573448,0,0.1573448,-8.056763E-06,0.9126,0.1015625,0.9126,-1.01416,0.9126,-0.05810547,0.9126,-1.097561,0.9126,3.109756,0.9126,1.463415,0.1573448,1.19173E-05,0.1573448,7.838559E-05
0.9153,0.03564453,0.9153,-0.9985352,0.9153,-0.1577148,0.9153,-3.231707,0.9153,2.865854,0.9153,1.707317,0.1578103,0,0.1578103,-8.560311E-06,0.9153,0.1044922,0.9153,-1.013672,0.9153,-0.05517578,0.9153,-1.097561,0.9153,3.170732,0.9153,1.219512,0.1578103,1.09102E-05,0.1578103,7.872129E-05
0.918,0.03613281,0.918,-1.000977,0.918,-0.1616211,0.918,-3.353659,0.918,2.804878,0.918,2.012195,0.1582759,0,0.1582759,-7.553216E-06,0.918,0.09960938,0.918,-1.012207,0.918,-0.05664063,0.918,-0.7926829,0.918,2.987805,0.918,1.097561,0.1582759,1.12459E-05,0.1582759,7.939269E-05
0.9207,0.03417969,0.9207,-0.9990234,0.9207,-0.1645508,0.9207,-3.353659,0.9207,2.743902,0.9207,1.95122,0.1587414,0,0.1587414,-6.881819E-06,0.9207,0.09423828,0.9207,-1.013184,0.9207,-0.05517578,0.9207,-0.6707317,0.9207,2.865854,0.9207,1.341463,0.1587414,1.19173E-05,0.1587414,8.039978E-05
0.9234,0.03222656,0.9234,-0.9960938,0.9234,-0.1640625,0.9234,-3.231707,0.9234,2.865854,0.9234,1.829268,0.1592069,0,0.1592069,-7.217518E-06,0.9234,0.09375,0.9234,-1.021484,0.9234,-0.06152344,0.9234,-0.6707317,0.9234,2.682927,0.9234,1.402439,0.1592069,1.326009E-05,0.1592069,8.207828E-05
0.9261,0.03173828,0.9261,-0.9985352,0.9261,-0.1655273,0.9261,-3.414634,0.9261,2.987805,0.9261,1.768293,0.1596724,0,0.1596724,-7.888914E-06,0.9261,0.1040039,0.9261,-1.015137,0.9261,-0.06542969,0.9261,-0.9146342,0.9261,3.414634,0.9261,1.341463,0.1596724,1.258869E-05,0.1596724,8.123904E-05
0.9288,0.03076172,0.9288,-0.9985352,0.9288,-0.1630859,0.9288,-3.292683,0.9288,3.109756,0.9288,1.707317,0.1601379,0,0.1601379,-7.553216E-06,0.9288,0.1069336,0.9288,-0.9902344,0.9288,-0.06005859,0.9288,-0.9756098,0.9288,3.719512,0.9288,1.097561,0.1601379,1.05745E-05,0.1601379,7.70428E-05
0.9315,0.03662109,0.9315,-0.9995117,0.9315,-0.1669922,0.9315,-3.231707,0.9315,3.04878,0.9315,1.768293,0.1606034,0,0.1606034,-7.888914E-06,0.9315,0.1010742,0.9315,-0.9916992,0.9315,-0.06298828,0.9315,-1.097561,0.9315,3.109756,0.9315,0.9756098,0.1606034,9.903105E-06,0.1606034,7.066453E-05
0.9342,0.03222656,0.9342,-1.000488,0.9342,-0.1655273,0.9342,-3.658537,0.9342,3.04878,0.9342,1.646341,0.161069,0,0.161069,-9.063859E-06,0.9342,0.1025391,0.9342,-0.9995117,0.9342,-0.06298828,0.9342,-1.219512,0.9342,2.865854,0.9342,1.158537,0.161069,1.19173E-05,0.161069,6.596475E-05
0.9369,0.03564453,0.9369,-0.9985352,0.9369,-0.1665039,0.9369,-3.414634,0.9369,2.743902,0.9369,1.707317,0.1615345,0,0.1615345,-1.09102E-05,0.9369,0.1040039,0.9369,-1.004395,0.9369,-0.06445313,0.9369,-1.463415,0.9369,3.170732,0.9369,1.036585,0.1615345,1.326009E-05,0.1615345,6.160067E-05
0.9396001,0.03417969,0.9396001,-0.9960938,0.9396001,-0.1611328,0.9396001,-3.47561,0.9396001,2.804878,0.9396001,1.646341,0.162,1.829557E-05,0.162,-1.15816E-05,0.9396001,0.1020508,0.9396001,-1.010742,0.9396001,-0.06396484,0.9396001,-1.463415,0.9396001,3.47561,0.9396001,1.280488,0.162,1.393149E-05,0.162,5.790799E-05
0.9423,0.03417969,0.9423,-0.9985352,0.9423,-0.1625977,0.9423,-3.47561,0.9423,2.804878,0.9423,1.890244,0.1624655,2.467384E-05,0.1624655,-1.09102E-05,0.9423,0.1025391,0.9423,-1.012207,0.9423,-0.06201172,0.9423,-1.585366,0.9423,2.926829,0.9423,0.9146342,0.1624655,1.393149E-05,0.1624655,5.4551E-05
0.9450001,0.04052734,0.9450001,-0.9985352,0.9450001,-0.1616211,0.9450001,-3.536585,0.9450001,2.682927,0.9450001,1.768293,0.162931,2.568093E-05,0.162931,-9.399558E-06,0.9450001,0.09912109,0.9450001,-1.005859,0.9450001,-0.05322266,0.9450001,-1.463415,0.9450001,3.109756,0.9450001,1.036585,0.162931,1.326009E-05,0.162931,5.152972E-05
0.9477,0.04052734,0.9477,-0.9980469,0.9477,-0.1606445,0.9477,-3.841464,0.9477,2.682927,0.9477,2.012195,0.1633966,2.433814E-05,0.1633966,-7.553216E-06,0.9477,0.1005859,0.9477,-1.003906,0.9477,-0.05224609,0.9477,-0.4878049,0.9477,2.682927,0.9477,1.036585,0.1633966,1.19173E-05,0.1633966,4.682994E-05
0.9504,0.03662109,0.9504,-0.9980469,0.9504,-0.1635742,0.9504,-3.963415,0.9504,2.621951,0.9504,1.95122,0.1638621,2.131685E-05,0.1638621,-7.217518E-06,0.9504,0.1010742,0.9504,-1.005371,0.9504,-0.05419922,0.9504,-0.3048781,0.9504,3.04878,0.9504,1.097561,0.1638621,1.12459E-05,0.1638621,3.944457E-05
0.9531,0.03125,0.9531,-0.9951172,0.9531,-0.1674805,0.9531,-3.47561,0.9531,2.378049,0.9531,1.646341,0.1643276,2.198825E-05,0.1643276,-8.224612E-06,0.9531,0.1054688,0.9531,-1.004395,0.9531,-0.06689453,0.9531,-0.6097561,0.9531,3.231707,0.9531,1.158537,0.1643276,1.09102E-05,0.1643276,3.071641E-05
0.9558,0.03564453,0.9558,-0.9970703,0.9558,-0.1650391,0.9558,-3.597561,0.9558,2.378049,0.9558,1.890244,0.1647931,2.400244E-05,0.1647931,-8.560311E-06,0.9558,0.1044922,0.9558,-1.01123,0.9558,-0.06835938,0.9558,-0.9756098,0.9558,3.170732,0.9558,1.158537,0.1647931,1.02388E-05,0.1647931,2.366674E-05
0.9585,0.03808594,0.9585,-0.9975586,0.9585,-0.1645508,0.9585,-3.414634,0.9585,2.317073,0.9585,1.768293,0.1652586,2.534523E-05,0.1652586,-8.392462E-06,0.9585,0.1025391,0.9585,-1.004395,0.9585,-0.06591797,0.9585,-1.097561,0.9585,3.109756,0.9585,0.9146342,0.1652586,9.903105E-06,0.1652586,1.863127E-05
0.9612,0.03955078,0.9612,-0.9936523,0.9612,-0.1655273,0.9612,-3.292683,0.9612,2.195122,0.9612,1.890244,0.1657241,2.400244E-05,0.1657241,-8.224612E-06,0.9612,0.1020508,0.9612,-1.004883,0.9612,-0.06787109,0.9612,-0.9756098,0.9612,2.804878,0.9612,1.280488,0.1657241,1.09102E-05,0.1657241,1.426719E-05
0.9639,0.03369141,0.9639,-0.9926758,0.9639,-0.1645508,0.9639,-3.658537,0.9639,1.890244,0.9639,1.829268,0.1661897,2.366674E-05,0.1661897,-7.888914E-06,0.9639,0.09863281,0.9639,-1.007324,0.9639,-0.05908203,0.9639,-1.158537,0.9639,2.926829,0.9639,1.158537,0.1661897,1.19173E-05,0.1661897,1.09102E-05
0.9666,0.03173828,0.9666,-0.9970703,0.9666,-0.1635742,0.9666,-3.658537,0.9666,1.95122,0.9666,1.829268,0.1666552,2.467384E-05,0.1666552,-8.89601E-06,0.9666,0.09814453,0.9666,-1.008301,0.9666,-0.0625,0.9666,-0.9756098,0.9666,2.682927,0.9666,0.8536586,0.1666552,1.225299E-05,0.1666552,9.903105E-06
0.9693,0.03369141,0.9693,-0.9946289,0.9693,-0.168457,0.9693,-3.536585,0.9693,2.012195,0.9693,1.585366,0.1671207,2.400244E-05,0.1671207,-9.063859E-06,0.9693,0.1015625,0.9693,-1.007324,0.9693,-0.06835938,0.9693,-1.158537,0.9693,2.682927,0.9693,1.036585,0.1671207,1.258869E-05,0.1671207,9.231709E-06
0.972,0.03369141,0.972,-0.996582,0.972,-0.1679688,0.972,-3.597561,0.972,1.890244,0.972,1.829268,0.1675862,2.18204E-05,0.1675862,-8.224612E-06,0.972,0.09960938,0.972,-1.004395,0.972,-0.06787109,0.972,-1.402439,0.972,2.5,0.972,1.036585,0.1675862,1.19173E-05,0.1675862,7.217518E-06
0.9747,0.03515625,0.9747,-0.9995117,0.9747,-0.1665039,0.9747,-3.536585,0.9747,2.317073,0.9747,1.768293,0.1680517,2.064546E-05,0.1680517,-7.553216E-06,0.9747,0.1015625,0.9747,-1.007813,0.9747,-0.06591797,0.9747,-1.219512,0.9747,2.621951,0.9747,1.219512,0.1680517,1.12459E-05,0.1680517,3.524834E-06
0.9774,0.03076172,0.9774,-1,0.9774,-0.1625977,0.9774,-3.414634,0.9774,1.95122,0.9774,1.768293,0.1685172,2.265965E-05,0.1685172,-7.553216E-06,0.9774,0.1035156,0.9774,-1.008789,0.9774,-0.06640625,0.9774,-1.341463,0.9774,2.317073,0.9774,1.158537,0.1685172,1.05745E-05,0.1685172,1.174945E-06
0.9801,0.03320313,0.9801,-0.9980469,0.9801,-0.1640625,0.9801,-3.414634,0.9801,1.95122,0.9801,1.95122,0.1689828,2.534523E-05,0.1689828,-7.888914E-06,0.9801,0.1044922,0.9801,-1.00293,0.9801,-0.06494141,0.9801,-1.158537,0.9801,2.256098,0.9801,0.9756098,0.1689828,1.02388E-05,0.1689828,-2.517739E-06
0.9828,0.03271484,0.9828,-0.9995117,0.9828,-0.1689453,0.9828,-3.231707,0.9828,2.195122,0.9828,1.768293,0.1694483,2.584878E-05,0.1694483,-8.224612E-06,0.9828,0.1030273,0.9828,-1.008301,0.9828,-0.06494141,0.9828,-1.280488,0.9828,2.073171,0.9828,0.9756098,0.1694483,9.903105E-06,0.1694483,-4.36408E-06
0.9855,0.03320313,0.9855,-0.996582,0.9855,-0.1650391,0.9855,-3.353659,0.9855,2.317073,0.9855,1.707317,0.1699138,2.400244E-05,0.1699138,-7.888914E-06,0.9855,0.1054688,0.9855,-1.008789,0.9855,-0.06298828,0.9855,-1.097561,0.9855,2.378049,0.9855,1.158537,0.1699138,1.107805E-05,0.1699138,-4.867628E-06
0.9882,0.03417969,0.9882,-0.9921875,0.9882,-0.1669922,0.9882,-3.170732,0.9882,2.256098,0.9882,1.768293,0.1703793,2.198825E-05,0.1703793,-7.553216E-06,0.9882,0.1074219,0.9882,-1.005371,0.9882,-0.06542969,0.9882,-1.097561,0.9882,2.134146,0.9882,0.7926829,0.1703793,1.15816E-05,0.1703793,-4.867628E-06
0.9909,0.03466797,0.9909,-0.9951172,0.9909,-0.1655273,0.9909,-3.04878,0.9909,2.5,0.9909,1.646341,0.1708448,2.098116E-05,0.1708448,-7.553216E-06,0.9909,0.1040039,0.9909,-1.006348,0.9909,-0.06054688,0.9909,-1.036585,0.9909,2.073171,0.9909,1.036585,0.1708448,1.258869E-05,0.1708448,-4.196231E-06
0.9936,0.03320313,0.9936,-0.9907227,0.9936,-0.1674805,0.9936,-3.231707,0.9936,2.378049,0.9936,1.646341,0.1713103,2.098116E-05,0.1713103,-8.056763E-06,0.9936,0.1030273,0.9936,-1.006348,0.9936,-0.06396484,0.9936,-1.158537,0.9936,2.073171,0.9936,0.9756098,0.1713103,1.493858E-05,0.1713103,-3.356985E-07
0.9963,0.03662109,0.9963,-0.9956055,0.9963,-0.1635742,0.9963,-3.353659,0.9963,2.012195,0.9963,1.646341,0.1717759,2.064546E-05,0.1717759,-9.231709E-06,0.9963,0.1010742,0.9963,-1.005859,0.9963,-0.0625,0.9963,-1.097561,0.9963,2.134146,0.9963,0.9756098,0.1717759,1.577783E-05,0.1717759,5.035477E-06
0.999,0.03320313,0.999,-0.9985352,0.999,-0.1616211,0.999,-3.292683,0.999,2.317073,0.999,1.768293,0.1722414,1.997406E-05,0.1722414,-1.02388E-05,0.999,0.1044922,0.999,-1.005371,0.999,-0.06591797,0.999,-1.036585,0.999,2.560976,0.999,0.9146342,0.1722414,1.577783E-05,0.1722414,9.231709E-06
1.0017,0.03417969,1.0017,-0.9975586,1.0017,-0.1635742,1.0017,-3.292683,1.0017,2.195122,1.0017,1.768293,0.1727069,1.930266E-05,0.1727069,-9.735256E-06,1.0017,0.1035156,1.0017,-1.006348,1.0017,-0.06494141,1.0017,-1.097561,1.0017,2.560976,1.0017,0.9756098,0.1727069,1.326009E-05,0.1727069,1.19173E-05
1.0044,0.03515625,1.0044,-1.002441,1.0044,-0.1601563,1.0044,-3.109756,1.0044,2.134146,1.0044,1.646341,0.1731724,1.930266E-05,0.1731724,-8.89601E-06,1.0044,0.1020508,1.0044,-1.00293,1.0044,-0.06835938,1.0044,-1.280488,1.0044,2.5,1.0044,0.9756098,0.1731724,1.12459E-05,0.1731724,1.594568E-05
1.0071,0.03466797,1.0071,-1.002441,1.0071,-0.1621094,1.0071,-3.47561,1.0071,2.560976,1.0071,1.646341,0.1736379,2.047761E-05,0.1736379,-8.224612E-06,1.0071,0.1044922,1.0071,-1.001465,1.0071,-0.06738281,1.0071,-1.402439,1.0071,2.621951,1.0071,0.7317073,0.1736379,1.12459E-05,0.1736379,2.265965E-05
1.0098,0.03613281,1.0098,-0.9985352,1.0098,-0.1621094,1.0098,-3.536585,1.0098,2.5,1.0098,1.646341,0.1741034,2.064546E-05,0.1741034,-8.224612E-06,1.0098,0.1054688,1.0098,-1.005371,1.0098,-0.06542969,1.0098,-1.646341,1.0098,2.743902,1.0098,0.9756098,0.1741034,1.19173E-05,0.1741034,2.937362E-05
1.0125,0.04101563,1.0125,-1.000977,1.0125,-0.1655273,1.0125,-3.231707,1.0125,2.439024,1.0125,1.890244,0.174569,1.930266E-05,0.174569,-8.560311E-06,1.0125,0.105957,1.0125,-1.004883,1.0125,-0.06494141,1.0125,-1.646341,1.0125,2.560976,1.0125,0.9756098,0.174569,1.258869E-05,0.174569,3.541619E-05
1.0152,0.03857422,1.0152,-1.001465,1.0152,-0.1625977,1.0152,-3.47561,1.0152,2.378049,1.0152,1.768293,0.1750345,1.863127E-05,0.1750345,-8.224612E-06,1.0152,0.1064453,1.0152,-1.007813,1.0152,-0.06445313,1.0152,-1.768293,1.0152,2.804878,1.0152,0.7317073,0.1750345,1.258869E-05,0.1750345,4.011597E-05
1.0179,0.03759766,1.0179,-0.9995117,1.0179,-0.159668,1.0179,-3.536585,1.0179,2.5,1.0179,1.646341,0.1755,1.997406E-05,0.1755,-8.224612E-06,1.0179,0.1044922,1.0179,-1.007813,1.0179,-0.06396484,1.0179,-1.707317,1.0179,2.743902,1.0179,0.9146342,0.1755,1.292439E-05,0.1755,4.615854E-05
1.0206,0.03759766,1.0206,-0.9990234,1.0206,-0.1616211,1.0206,-3.536585,1.0206,2.439024,1.0206,2.012195,0.1759655,2.198825E-05,0.1759655,-8.224612E-06,1.0206,0.105957,1.0206,-1.005859,1.0206,-0.06689453,1.0206,-1.52439,1.0206,2.865854,1.0206,0.9146342,0.1759655,1.258869E-05,0.1759655,5.404745E-05
1.0233,0.03955078,1.0233,-0.996582,1.0233,-0.1611328,1.0233,-3.597561,1.0233,2.5,1.0233,1.768293,0.176431,2.265965E-05,0.176431,-8.392462E-06,1.0233,0.105957,1.0233,-1.006836,1.0233,-0.06640625,1.0233,-1.829268,1.0233,2.5,1.0233,0.7926829,0.176431,1.09102E-05,0.176431,6.193637E-05
1.026,0.03759766,1.026,-0.9995117,1.026,-0.1665039,1.026,-3.658537,1.026,2.682927,1.026,1.646341,0.1768965,2.165255E-05,0.1768965,-8.224612E-06,1.026,0.1035156,1.026,-1.009277,1.026,-0.06591797,1.026,-1.646341,1.026,2.682927,1.026,1.158537,0.1768965,1.12459E-05,0.1768965,6.814679E-05
1.0287,0.03808594,1.0287,-0.9990234,1.0287,-0.1650391,1.0287,-3.841464,1.0287,2.439024,1.0287,1.707317,0.1773621,2.064546E-05,0.1773621,-7.721065E-06,1.0287,0.1064453,1.0287,-1.007324,1.0287,-0.06640625,1.0287,-1.768293,1.0287,2.621951,1.0287,0.6097561,0.1773621,1.443504E-05,0.1773621,7.133593E-05
1.0314,0.04150391,1.0314,-0.996582,1.0314,-0.1665039,1.0314,-4.02439,1.0314,2.560976,1.0314,1.829268,0.1778276,2.064546E-05,0.1778276,-6.881819E-06,1.0314,0.1044922,1.0314,-1.010254,1.0314,-0.06445313,1.0314,-1.829268,1.0314,2.682927,1.0314,0.9756098,0.1778276,1.661708E-05,0.1778276,7.502861E-05
1.0341,0.0390625,1.0341,-0.9980469,1.0341,-0.1660156,1.0341,-3.963415,1.0341,2.743902,1.0341,1.707317,0.1782931,2.098116E-05,0.1782931,-6.210422E-06,1.0341,0.1049805,1.0341,-1.006836,1.0341,-0.06494141,1.0341,-1.95122,1.0341,2.439024,1.0341,0.9146342,0.1782931,1.560998E-05,0.1782931,8.291753E-05
1.0368,0.04345703,1.0368,-0.9956055,1.0368,-0.1621094,1.0368,-3.719512,1.0368,2.317073,1.0368,1.829268,0.1787586,2.18204E-05,0.1787586,-6.378271E-06,1.0368,0.1049805,1.0368,-1.008301,1.0368,-0.06103516,1.0368,-1.829268,1.0368,2.439024,1.0368,1.036585,0.1787586,1.426719E-05,0.1787586,9.047074E-05
1.0395,0.04101563,1.0395,-1,1.0395,-0.1665039,1.0395,-3.719512,1.0395,2.682927,1.0395,1.890244,0.1792241,2.333104E-05,0.1792241,-7.553216E-06,1.0395,0.105957,1.0395,-1.009277,1.0395,-0.0625,1.0395,-1.463415,1.0395,2.804878,1.0395,0.7926829,0.1792241,1.393149E-05,0.1792241,9.248493E-05
1.0422,0.03955078,1.0422,-1,1.0422,-0.1635742,1.0422,-3.963415,1.0422,2.560976,1.0422,2.073171,0.1796896,2.366674E-05,0.1796896,-7.553216E-06,1.0422,0.1083984,1.0422,-1.006836,1.0422,-0.06347656,1.0422,-1.585366,1.0422,2.439024,1.0422,1.036585,0.1796896,1.510643E-05,0.1796896,9.013504E-05
1.0449,0.04052734,1.0449,-0.9995117,1.0449,-0.1640625,1.0449,-3.963415,1.0449,2.5,1.0449,1.890244,0.1801552,2.198825E-05,0.1801552,-7.049668E-06,1.0449,0.1044922,1.0449,-1.009277,1.0449,-0.06591797,1.0449,-1.585366,1.0449,2.439024,1.0449,1.158537,0.1801552,1.661708E-05,0.1801552,8.577096E-05
1.0476,0.0390625,1.0476,-0.9985352,1.0476,-0.1625977,1.0476,-3.597561,1.0476,2.560976,1.0476,1.646341,0.1806207,1.997406E-05,0.1806207,-6.881819E-06,1.0476,0.1044922,1.0476,-1.005371,1.0476,-0.06835938,1.0476,-1.341463,1.0476,2.5,1.0476,1.158537,0.1806207,1.829557E-05,0.1806207,8.358892E-05
1.0503,0.04101563,1.0503,-0.9995117,1.0503,-0.1582031,1.0503,-3.658537,1.0503,2.439024,1.0503,1.585366,0.1810862,1.963836E-05,0.1810862,-8.392462E-06,1.0503,0.1049805,1.0503,-1.006348,1.0503,-0.06542969,1.0503,-1.585366,1.0503,2.682927,1.0503,1.097561,0.1810862,1.795987E-05,0.1810862,8.375677E-05
1.053,0.03662109,1.053,-0.9990234,1.053,-0.1635742,1.053,-3.658537,1.053,2.439024,1.053,1.707317,0.1815517,2.1149E-05,0.1815517,-8.89601E-06,1.053,0.1079102,1.053,-1.007324,1.053,-0.06494141,1.053,-1.280488,1.053,2.926829,1.053,1.158537,0.1815517,1.594568E-05,0.1815517,8.174258E-05
1.0557,0.03710938,1.0557,-0.996582,1.0557,-0.1621094,1.0557,-3.47561,1.0557,2.5,1.0557,2.195122,0.1820172,2.21561E-05,0.1820172,-7.888914E-06,1.0557,0.109375,1.0557,-1.009766,1.0557,-0.0625,1.0557,-1.52439,1.0557,2.987805,1.0557,0.9146342,0.1820172,1.510643E-05,0.1820172,7.536431E-05
1.0584,0.03710938,1.0584,-0.9985352,1.0584,-0.1655273,1.0584,-3.414634,1.0584,2.682927,1.0584,1.829268,0.1824827,2.265965E-05,0.1824827,-6.378271E-06,1.0584,0.1074219,1.0584,-1.009277,1.0584,-0.06152344,1.0584,-1.402439,1.0584,2.621951,1.0584,1.036585,0.1824827,1.443504E-05,0.1824827,6.630045E-05
1.0611,0.03857422,1.0611,-0.9990234,1.0611,-0.1645508,1.0611,-3.658537,1.0611,2.439024,1.0611,1.829268,0.1829483,2.232395E-05,0.1829483,-6.54612E-06,1.0611,0.105957,1.0611,-1.006836,1.0611,-0.0625,1.0611,-1.463415,1.0611,2.560976,1.0611,0.9756098,0.1829483,1.326009E-05,0.1829483,5.925078E-05
1.0638,0.04003906,1.0638,-0.9951172,1.0638,-0.1699219,1.0638,-3.719512,1.0638,2.682927,1.0638,1.707317,0.1834138,2.198825E-05,0.1834138,-8.224612E-06,1.0638,0.1049805,1.0638,-1.009766,1.0638,-0.06201172,1.0638,-1.463415,1.0638,2.865854,1.0638,0.9756098,0.1834138,1.258869E-05,0.1834138,5.287251E-05
1.0665,0.03857422,1.0665,-0.9980469,1.0665,-0.1689453,1.0665,-3.353659,1.0665,2.439024,1.0665,1.95122,0.1838793,2.232395E-05,0.1838793,-9.567407E-06,1.0665,0.1000977,1.0665,-1.014648,1.0665,-0.06396484,1.0665,-1.280488,1.0665,2.682927,1.0665,1.158537,0.1838793,1.292439E-05,0.1838793,4.615854E-05
1.0692,0.03857422,1.0692,-0.996582,1.0692,-0.1650391,1.0692,-3.414634,1.0692,2.378049,1.0692,1.829268,0.1843448,2.198825E-05,0.1843448,-9.063859E-06,1.0692,0.1103516,1.0692,-1.014648,1.0692,-0.06298828,1.0692,-1.341463,1.0692,2.987805,1.0692,0.9756098,0.1843448,1.292439E-05,0.1843448,3.877317E-05
1.0719,0.03515625,1.0719,-0.9995117,1.0719,-0.1650391,1.0719,-3.47561,1.0719,2.621951,1.0719,1.52439,0.1848103,2.098116E-05,0.1848103,-8.224612E-06,1.0719,0.1108398,1.0719,-1.004395,1.0719,-0.06884766,1.0719,-1.52439,1.0719,3.170732,1.0719,1.280488,0.1848103,1.309224E-05,0.1848103,3.189136E-05
1.0746,0.04150391,1.0746,-0.9980469,1.0746,-0.1660156,1.0746,-3.47561,1.0746,2.317073,1.0746,1.890244,0.1852759,1.963836E-05,0.1852759,-8.89601E-06,1.0746,0.1103516,1.0746,-1.001465,1.0746,-0.06542969,1.0746,-1.463415,1.0746,3.109756,1.0746,1.097561,0.1852759,1.393149E-05,0.1852759,2.500954E-05
1.0773,0.03564453,1.0773,-1.001953,1.0773,-0.1660156,1.0773,-3.414634,1.0773,2.439024,1.0773,2.073171,0.1857414,1.997406E-05,0.1857414,-9.567407E-06,1.0773,0.1054688,1.0773,-1.004395,1.0773,-0.06347656,1.0773,-1.097561,1.0773,2.987805,1.0773,0.9146342,0.1857414,1.393149E-05,0.1857414,1.896696E-05
1.08,0.03369141,1.08,-0.9975586,1.08,-0.1665039,1.08,-3.292683,1.08,2.5,1.08,1.707317,0.1862069,2.131685E-05,0.1862069,-9.063859E-06,1.08,0.1064453,1.08,-1.006348,1.08,-0.06347656,1.08,-1.341463,1.08,3.109756,1.08,0.8536586,0.1862069,1.326009E-05,0.1862069,1.560998E-05
1.0827,0.03466797,1.0827,-1.000977,1.0827,-0.1645508,1.0827,-3.414634,1.0827,2.865854,1.0827,1.646341,0.1866724,2.265965E-05,0.1866724,-8.224612E-06,1.0827,0.1069336,1.0827,-1.010742,1.0827,-0.06494141,1.0827,-1.158537,1.0827,3.109756,1.0827,0.9756098,0.1866724,1.258869E-05,0.1866724,1.393149E-05
1.0854,0.03662109,1.0854,-0.9990234,1.0854,-0.1655273,1.0854,-3.04878,1.0854,2.621951,1.0854,1.646341,0.1871379,2.349889E-05,0.1871379,-8.224612E-06,1.0854,0.1049805,1.0854,-1.008789,1.0854,-0.05859375,1.0854,-1.158537,1.0854,3.109756,1.0854,0.7926829,0.1871379,1.225299E-05,0.1871379,1.326009E-05
1.0881,0.03662109,1.0881,-0.9985352,1.0881,-0.1606445,1.0881,-3.109756,1.0881,2.5,1.0881,1.829268,0.1876034,2.333104E-05,0.1876034,-7.553216E-06,1.0881,0.1083984,1.0881,-1.010254,1.0881,-0.05517578,1.0881,-1.036585,1.0881,3.04878,1.0881,0.8536586,0.1876034,1.258869E-05,0.1876034,1.040665E-05
1.0908,0.03662109,1.0908,-1.000977,1.0908,-0.1645508,1.0908,-3.353659,1.0908,2.256098,1.0908,1.707317,0.188069,2.198825E-05,0.188069,-7.553216E-06,1.0908,0.1049805,1.0908,-1.005371,1.0908,-0.05517578,1.0908,-0.6707317,1.0908,2.926829,1.0908,1.219512,0.188069,1.393149E-05,0.188069,6.881819E-06
1.0935,0.03759766,1.0935,-0.9995117,1.0935,-0.1635742,1.0935,-3.353659,1.0935,2.378049,1.0935,1.585366,0.1885345,2.064546E-05,0.1885345,-7.553216E-06,1.0935,0.1020508,1.0935,-1.006836,1.0935,-0.05712891,1.0935,-0.4268293,1.0935,3.292683,1.0935,0.9756098,0.1885345,1.460288E-05,0.1885345,5.035477E-07
1.0962,0.03662109,1.0962,-0.9985352,1.0962,-0.1616211,1.0962,-2.804878,1.0962,2.378049,1.0962,1.768293,0.189,2.064546E-05,0.189,-7.385367E-06,1.0962,0.1040039,1.0962,-1.012207,1.0962,-0.06201172,1.0962,-0.1829268,1.0962,2.865854,1.0962,1.158537,0.189,1.376364E-05,0.189,-3.692683E-06
1.0989,0.03417969,1.0989,-0.9980469,1.0989,-0.1625977,1.0989,-2.865854,1.0989,2.256098,1.0989,1.890244,0.1894655,1.997406E-05,0.1894655,-7.888914E-06,1.0989,0.1025391,1.0989,-1.010254,1.0989,-0.06396484,1.0989,-0.6097561,1.0989,3.231707,1.0989,1.036585,0.1894655,1.326009E-05,0.1894655,-4.196231E-06
1.1016,0.03857422,1.1016,-1.000488,1.1016,-0.1621094,1.1016,-3.170732,1.1016,2.439024,1.1016,1.52439,0.189931,1.863127E-05,0.189931,-8.392462E-06,1.1016,0.1074219,1.1016,-1.003906,1.1016,-0.06591797,1.1016,-0.6097561,1.1016,3.353659,1.1016,1.219512,0.189931,1.393149E-05,0.189931,-3.189136E-06
1.1043,0.03955078,1.1043,-0.996582,1.1043,-0.1625977,1.1043,-2.987805,1.1043,2.682927,1.1043,1.768293,0.1903965,1.863127E-05,0.1903965,-9.567407E-06,1.1043,0.1079102,1.1043,-1.00293,1.1043,-0.06689453,1.1043,-0.7926829,1.1043,3.292683,1.1043,1.036585,0.1903965,1.460288E-05,0.1903965,-2.517739E-06
1.107,0.0390625,1.107,-0.9970703,1.107,-0.1635742,1.107,-3.170732,1.107,2.743902,1.107,1.585366,0.1908621,1.863127E-05,0.1908621,-8.728161E-06,1.107,0.1074219,1.107,-1.002441,1.107,-0.06640625,1.107,-0.9146342,1.107,3.597561,1.107,1.097561,0.1908621,1.594568E-05,0.1908621,3.356985E-07
1.1097,0.04003906,1.1097,-0.9980469,1.1097,-0.1635742,1.1097,-3.170732,1.1097,2.743902,1.1097,1.890244,0.1913276,1.896696E-05,0.1913276,-8.224612E-06,1.1097,0.1083984,1.1097,-1.005859,1.1097,-0.06445313,1.1097,-0.8536586,1.1097,3.414634,1.1097,1.158537,0.1913276,1.594568E-05,0.1913276,5.539025E-06
1.1124,0.03515625,1.1124,-0.9980469,1.1124,-0.1625977,1.1124,-3.109756,1.1124,2.804878,1.1124,1.829268,0.1917931,1.997406E-05,0.1917931,-8.224612E-06,1.1124,0.1025391,1.1124,-1.009277,1.1124,-0.06689453,1.1124,-0.7926829,1.1124,3.47561,1.1124,1.036585,0.1917931,1.661708E-05,0.1917931,1.09102E-05
1.1151,0.03564453,1.1151,-0.9956055,1.1151,-0.1640625,1.1151,-3.04878,1.1151,2.926829,1.1151,1.52439,0.1922586,2.064546E-05,0.1922586,-8.560311E-06,1.1151,0.1074219,1.1151,-1.005859,1.1151,-0.06640625,1.1151,-0.7926829,1.1151,3.292683,1.1151,1.402439,0.1922586,1.594568E-05,0.1922586,1.426719E-05
1.1178,0.03710938,1.1178,-0.9956055,1.1178,-0.1640625,1.1178,-3.109756,1.1178,2.926829,1.1178,1.890244,0.1927241,2.265965E-05,0.1927241,-9.567407E-06,1.1178,0.105957,1.1178,-1.005371,1.1178,-0.06933594,1.1178,-1.097561,1.1178,3.353659,1.1178,1.158537,0.1927241,1.560998E-05,0.1927241,1.527428E-05
1.1205,0.04150391,1.1205,-0.9936523,1.1205,-0.1625977,1.1205,-3.170732,1.1205,3.04878,1.1205,1.768293,0.1931897,2.400244E-05,0.1931897,-1.09102E-05,1.1205,0.1035156,1.1205,-1.005859,1.1205,-0.06738281,1.1205,-0.8536586,1.1205,3.780488,1.1205,0.9146342,0.1931897,1.594568E-05,0.1931897,1.728847E-05
1.1232,0.03759766,1.1232,-0.9990234,1.1232,-0.1660156,1.1232,-3.353659,1.1232,3.04878,1.1232,1.646341,0.1936552,2.165255E-05,0.1936552,-1.074235E-05,1.1232,0.09960938,1.1232,-1.010254,1.1232,-0.06640625,1.1232,-1.097561,1.1232,3.47561,1.1232,1.097561,0.1936552,1.695277E-05,0.1936552,2.333104E-05
1.1259,0.03466797,1.1259,-0.9990234,1.1259,-0.1630859,1.1259,-3.231707,1.1259,2.926829,1.1259,1.707317,0.1941207,1.930266E-05,0.1941207,-8.728161E-06,1.1259,0.1054688,1.1259,-1.010742,1.1259,-0.06640625,1.1259,-1.036585,1.1259,3.47561,1.1259,1.280488,0.1941207,1.695277E-05,0.1941207,3.172351E-05
1.1286,0.03808594,1.1286,-0.9975586,1.1286,-0.159668,1.1286,-3.292683,1.1286,2.926829,1.1286,1.707317,0.1945862,1.795987E-05,0.1945862,-6.881819E-06,1.1286,0.1035156,1.1286,-1.004883,1.1286,-0.06884766,1.1286,-1.097561,1.1286,3.414634,1.1286,1.097561,0.1945862,1.628138E-05,0.1945862,3.994812E-05
1.1313,0.03564453,1.1313,-0.9975586,1.1313,-0.1606445,1.1313,-2.987805,1.1313,2.865854,1.1313,1.829268,0.1950517,1.896696E-05,0.1950517,-6.042573E-06,1.1313,0.109375,1.1313,-1.007324,1.1313,-0.06787109,1.1313,-0.6707317,1.1313,3.292683,1.1313,1.097561,0.1950517,1.460288E-05,0.1950517,4.515145E-05
1.134,0.0390625,1.134,-0.9975586,1.134,-0.1655273,1.134,-2.987805,1.134,2.682927,1.134,1.707317,0.1955172,2.064546E-05,0.1955172,-7.217518E-06,1.134,0.1054688,1.134,-1.006348,1.134,-0.06982422,1.134,-0.7317073,1.134,3.170732,1.134,1.036585,0.1955172,1.493858E-05,0.1955172,4.934768E-05
1.1367,0.03759766,1.1367,-0.9951172,1.1367,-0.1640625,1.1367,-3.292683,1.1367,2.926829,1.1367,1.768293,0.1959828,2.131685E-05,0.1959828,-7.888914E-06,1.1367,0.1020508,1.1367,-1.003906,1.1367,-0.06298828,1.1367,-0.9756098,1.1367,3.109756,1.1367,1.097561,0.1959828,1.393149E-05,0.1959828,5.220111E-05
1.1394,0.03857422,1.1394,-0.9970703,1.1394,-0.1655273,1.1394,-3.47561,1.1394,2.987805,1.1394,1.890244,0.1964483,2.030976E-05,0.1964483,-7.553216E-06,1.1394,0.1025391,1.1394,-1.005371,1.1394,-0.06640625,1.1394,-0.9146342,1.1394,3.231707,1.1394,1.097561,0.1964483,1.15816E-05,0.1964483,5.690089E-05
1.1421,0.03613281,1.1421,-0.9990234,1.1421,-0.168457,1.1421,-3.292683,1.1421,2.987805,1.1421,1.768293,0.1969138,1.980621E-05,0.1969138,-7.553216E-06,1.1421,0.1054688,1.1421,-1.009277,1.1421,-0.06542969,1.1421,-0.7926829,1.1421,3.170732,1.1421,1.097561,0.1969138,1.12459E-05,0.1969138,6.227207E-05
1.1448,0.03515625,1.1448,-0.9960938,1.1448,-0.1660156,1.1448,-3.109756,1.1448,2.926829,1.1448,1.707317,0.1973793,1.930266E-05,0.1973793,-7.888914E-06,1.1448,0.1025391,1.1448,-1.006836,1.1448,-0.06591797,1.1448,-0.7926829,1.1448,3.292683,1.1448,1.158537,0.1973793,1.292439E-05,0.1973793,6.697185E-05
1.1475,0.03369141,1.1475,-0.9995117,1.1475,-0.1655273,1.1475,-3.597561,1.1475,2.987805,1.1475,1.890244,0.1978448,1.997406E-05,0.1978448,-6.881819E-06,1.1475,0.1030273,1.1475,-1.007813,1.1475,-0.06445313,1.1475,-0.8536586,1.1475,3.170732,1.1475,1.097561,0.1978448,1.393149E-05,0.1978448,6.797894E-05
1.1502,0.03466797,1.1502,-1.000488,1.1502,-0.1674805,1.1502,-3.231707,1.1502,2.987805,1.1502,1.768293,0.1983103,2.198825E-05,0.1983103,-5.874723E-06,1.1502,0.1005859,1.1502,-1.009277,1.1502,-0.06494141,1.1502,-0.7317073,1.1502,3.04878,1.1502,1.158537,0.1983103,1.443504E-05,0.1983103,6.596475E-05
1.1529,0.03759766,1.1529,-0.9975586,1.1529,-0.1665039,1.1529,-3.47561,1.1529,2.743902,1.1529,1.707317,0.1987759,2.433814E-05,0.1987759,-5.539025E-06,1.1529,0.1030273,1.1529,-1.010254,1.1529,-0.06445313,1.1529,-0.9146342,1.1529,3.109756,1.1529,1.097561,0.1987759,1.493858E-05,0.1987759,6.327916E-05
1.1556,0.03613281,1.1556,-0.9951172,1.1556,-0.1660156,1.1556,-3.414634,1.1556,2.682927,1.1556,1.463415,0.1992414,2.534523E-05,0.1992414,-6.210422E-06,1.1556,0.1044922,1.1556,-1.010254,1.1556,-0.06152344,1.1556,-1.036585,1.1556,3.231707,1.1556,1.158537,0.1992414,1.527428E-05,0.1992414,6.160067E-05
1.1583,0.03662109,1.1583,-1.000488,1.1583,-0.1645508,1.1583,-3.414634,1.1583,2.743902,1.1583,1.890244,0.1997069,2.400244E-05,0.1997069,-6.210422E-06,1.1583,0.1049805,1.1583,-1.007324,1.1583,-0.06396484,1.1583,-1.036585,1.1583,3.292683,1.1583,1.280488,0.1997069,1.15816E-05,0.1997069,6.160067E-05
1.161,0.03710938,1.161,-0.9970703,1.161,-0.1660156,1.161,-3.353659,1.161,2.743902,1.161,1.585366,0.2001724,2.366674E-05,0.2001724,-5.706874E-06,1.161,0.1030273,1.161,-1.007813,1.161,-0.06298828,1.161,-1.219512,1.161,3.170732,1.161,1.097561,0.2001724,8.560311E-06,0.2001724,6.059357E-05
1.1637,0.03027344,1.1637,-0.9990234,1.1637,-0.1640625,1.1637,-3.170732,1.1637,2.804878,1.1637,1.95122,0.2006379,2.299535E-05,0.2006379,-5.874723E-06,1.1637,0.1020508,1.1637,-1.009277,1.1637,-0.06494141,1.1637,-1.219512,1.1637,3.170732,1.1637,0.9756098,0.2006379,8.560311E-06,0.2006379,5.55581E-05
1.1664,0.03320313,1.1664,-1.000488,1.1664,-0.1645508,1.1664,-3.414634,1.1664,2.682927,1.1664,1.585366,0.2011034,2.131685E-05,0.2011034,-7.217518E-06,1.1664,0.1010742,1.1664,-1.013672,1.1664,-0.06396484,1.1664,-1.097561,1.1664,3.109756,1.1664,1.280488,0.2011034,8.89601E-06,0.2011034,4.884413E-05
1.1691,0.03759766,1.1691,-1,1.1691,-0.1640625,1.1691,-3.231707,1.1691,2.682927,1.1691,1.52439,0.201569,2.18204E-05,0.201569,-7.217518E-06,1.1691,0.1005859,1.1691,-1.008789,1.1691,-0.06005859,1.1691,-0.9756098,1.1691,3.109756,1.1691,1.097561,0.201569,9.231709E-06,0.201569,4.380865E-05
1.1718,0.03369141,1.1718,-0.9980469,1.1718,-0.1625977,1.1718,-3.04878,1.1718,2.621951,1.1718,1.463415,0.2020345,2.299535E-05,0.2020345,-6.042573E-06,1.1718,0.1005859,1.1718,-1.006348,1.1718,-0.06005859,1.1718,-1.036585,1.1718,3.292683,1.1718,1.036585,0.2020345,1.19173E-05,0.2020345,3.743038E-05
1.1745,0.03271484,1.1745,-0.9951172,1.1745,-0.1630859,1.1745,-3.170732,1.1745,2.804878,1.1745,1.95122,0.2025,2.333104E-05,0.2025,-5.203327E-06,1.1745,0.09960938,1.1745,-1.004883,1.1745,-0.0625,1.1745,-1.158537,1.1745,3.47561,1.1745,1.280488,0.2025,1.426719E-05,0.2025,3.054856E-05
1.1772,0.03222656,1.1772,-0.996582,1.1772,-0.1635742,1.1772,-3.109756,1.1772,2.743902,1.1772,2.195122,0.2029655,2.265965E-05,0.2029655,-5.539025E-06,1.1772,0.09863281,1.1772,-1.009766,1.1772,-0.06689453,1.1772,-1.219512,1.1772,3.47561,1.1772,1.097561,0.2029655,1.393149E-05,0.2029655,2.333104E-05
1.1799,0.03515625,1.1799,-0.9975586,1.1799,-0.1635742,1.1799,-3.04878,1.1799,2.5,1.1799,1.646341,0.203431,2.232395E-05,0.203431,-6.881819E-06,1.1799,0.1025391,1.1799,-1.006836,1.1799,-0.06689453,1.1799,-0.9756098,1.1799,3.47561,1.1799,0.9756098,0.203431,1.258869E-05,0.203431,1.795987E-05
1.1826,0.03759766,1.1826,-0.9970703,1.1826,-0.1655273,1.1826,-3.231707,1.1826,2.621951,1.1826,1.646341,0.2038966,2.18204E-05,0.2038966,-8.560311E-06,1.1826,0.1035156,1.1826,-1.010742,1.1826,-0.06787109,1.1826,-1.097561,1.1826,3.47561,1.1826,0.7317073,0.2038966,1.292439E-05,0.2038966,1.258869E-05
1.1853,0.03466797,1.1853,-0.9985352,1.1853,-0.1616211,1.1853,-3.109756,1.1853,2.621951,1.1853,1.829268,0.2043621,2.098116E-05,0.2043621,-8.392462E-06,1.1853,0.1030273,1.1853,-1.010742,1.1853,-0.06494141,1.1853,-1.097561,1.1853,3.536585,1.1853,1.036585,0.2043621,1.460288E-05,0.2043621,7.888914E-06
1.188,0.03466797,1.188,-0.9985352,1.188,-0.1640625,1.188,-3.04878,1.188,2.682927,1.188,1.829268,0.2048276,2.030976E-05,0.2048276,-7.217518E-06,1.188,0.1030273,1.188,-1.007813,1.188,-0.06689453,1.188,-1.036585,1.188,3.658537,1.188,0.7317073,0.2048276,1.393149E-05,0.2048276,1.007095E-06
1.1907,0.03613281,1.1907,-0.9990234,1.1907,-0.1655273,1.1907,-3.292683,1.1907,2.5,1.1907,1.585366,0.2052931,1.997406E-05,0.2052931,-6.210422E-06,1.1907,0.1005859,1.1907,-1.011719,1.1907,-0.06591797,1.1907,-1.158537,1.1907,3.414634,1.1907,0.9756098,0.2052931,1.258869E-05,0.2052931,-6.378271E-06
1.1934,0.03515625,1.1934,-0.996582,1.1934,-0.1616211,1.1934,-3.109756,1.1934,2.926829,1.1934,1.768293,0.2057586,2.047761E-05,0.2057586,-6.54612E-06,1.1934,0.1035156,1.1934,-1.012207,1.1934,-0.06689453,1.1934,-1.036585,1.1934,3.292683,1.1934,1.158537,0.2057586,1.258869E-05,0.2057586,-1.15816E-05
1.1961,0.03320313,1.1961,-0.9951172,1.1961,-0.1616211,1.1961,-3.170732,1.1961,3.04878,1.1961,1.829268,0.2062241,2.098116E-05,0.2062241,-8.560311E-06,1.1961,0.109375,1.1961,-1.006836,1.1961,-0.0703125,1.1961,-1.097561,1.1961,3.597561,1.1961,0.9146342,0.2062241,1.292439E-05,0.2062241,-1.275654E-05
1.1988,0.03613281,1.1988,-0.9960938,1.1988,-0.1640625,1.1988,-3.353659,1.1988,2.743902,1.1988,1.768293,0.2066897,2.198825E-05,0.2066897,-1.040665E-05,1.1988,0.1113281,1.1988,-0.9990234,1.1988,-0.06640625,1.1988,-1.158537,1.1988,3.536585,1.1988,1.036585,0.2066897,1.359579E-05,0.2066897,-1.258869E-05
1.2015,0.03515625,1.2015,-0.9985352,1.2015,-0.1616211,1.2015,-3.170732,1.2015,2.926829,1.2015,1.890244,0.2071552,2.198825E-05,0.2071552,-1.15816E-05,1.2015,0.1079102,1.2015,-1.002441,1.2015,-0.06738281,1.2015,-1.402439,1.2015,3.170732,1.2015,0.9146342,0.2071552,1.376364E-05,0.2071552,-1.275654E-05
1.2042,0.03369141,1.2042,-0.9970703,1.2042,-0.1640625,1.2042,-2.987805,1.2042,2.926829,1.2042,1.768293,0.2076207,2.098116E-05,0.2076207,-1.141375E-05,1.2042,0.1074219,1.2042,-1.006836,1.2042,-0.06787109,1.2042,-1.402439,1.2042,3.292683,1.2042,0.9146342,0.2076207,1.426719E-05,0.2076207,-1.359579E-05
1.2069,0.03466797,1.2069,-0.9970703,1.2069,-0.1625977,1.2069,-3.170732,1.2069,2.987805,1.2069,1.646341,0.2080862,2.098116E-05,0.2080862,-1.15816E-05,1.2069,0.1083984,1.2069,-1.006348,1.2069,-0.07226563,1.2069,-1.158537,1.2069,3.353659,1.2069,1.097561,0.2080862,1.527428E-05,0.2080862,-1.661708E-05
1.2096,0.03515625,1.2096,-0.996582,1.2096,-0.1645508,1.2096,-2.804878,1.2096,2.621951,1.2096,1.52439,0.2085517,2.131685E-05,0.2085517,-1.15816E-05,1.2096,0.1074219,1.2096,-1.005371,1.2096,-0.06689453,1.2096,-1.52439,1.2096,3.04878,1.2096,1.036585,0.2085517,1.594568E-05,0.2085517,-2.098116E-05
1.2123,0.03662109,1.2123,-0.9956055,1.2123,-0.1640625,1.2123,-2.987805,1.2123,2.560976,1.2123,1.646341,0.2090172,2.131685E-05,0.2090172,-1.12459E-05,1.2123,0.1079102,1.2123,-1.006836,1.2123,-0.06640625,1.2123,-1.829268,1.2123,3.109756,1.2123,0.9146342,0.2090172,1.527428E-05,0.2090172,-2.299535E-05
1.215,0.03759766,1.215,-0.9946289,1.215,-0.1635742,1.215,-3.109756,1.215,2.621951,1.215,1.707317,0.2094828,2.064546E-05,0.2094828,-1.05745E-05,1.215,0.1025391,1.215,-1.013672,1.215,-0.06005859,1.215,-1.158537,1.215,2.682927,1.215,0.9146342,0.2094828,1.393149E-05,0.2094828,-2.299535E-05
1.2177,0.03759766,1.2177,-0.9975586,1.2177,-0.1645508,1.2177,-3.109756,1.2177,2.804878,1.2177,1.646341,0.2099483,2.064546E-05,0.2099483,-1.02388E-05,1.2177,0.1064453,1.2177,-1.007813,1.2177,-0.06054688,1.2177,-0.8536586,1.2177,2.865854,1.2177,0.9756098,0.2099483,1.326009E-05,0.2099483,-2.064546E-05
1.2204,0.03173828,1.2204,-0.996582,1.2204,-0.1645508,1.2204,-3.231707,1.2204,2.682927,1.2204,1.768293,0.2104138,2.198825E-05,0.2104138,-9.567407E-06,1.2204,0.1069336,1.2204,-1.009277,1.2204,-0.05810547,1.2204,-0.8536586,1.2204,3.04878,1.2204,1.341463,0.2104138,1.376364E-05,0.2104138,-1.661708E-05
1.2231,0.03710938,1.2231,-0.9956055,1.2231,-0.1625977,1.2231,-3.109756,1.2231,2.621951,1.2231,2.012195,0.2108793,2.333104E-05,0.2108793,-9.567407E-06,1.2231,0.1074219,1.2231,-1.009277,1.2231,-0.06494141,1.2231,-0.9146342,1.2231,2.682927,1.2231,1.158537,0.2108793,1.393149E-05,0.2108793,-1.15816E-05
1.2258,0.0390625,1.2258,-0.9931641,1.2258,-0.1611328,1.2258,-3.353659,1.2258,2.926829,1.2258,2.012195,0.2113448,2.366674E-05,0.2113448,-1.09102E-05,1.2258,0.1083984,1.2258,-1.010742,1.2258,-0.06738281,1.2258,-0.7926829,1.2258,2.804878,1.2258,0.9756098,0.2113448,1.393149E-05,0.2113448,-7.553216E-06
