time,hip_angle_l,hip_angle_l_velocity,hip_angle_l_velocity_filt,hip_angle_l_torque_estimated,hip_angle_l_torque_desired,hip_angle_l_torque_measured,hip_angle_l_torque_interaction,knee_angle_l,knee_angle_l_velocity,knee_angle_l_velocity_filt,knee_angle_l_torque_estimated,knee_angle_l_torque_desired,knee_angle_l_torque_measured,knee_angle_l_torque_interaction,thigh_imu_l_accel_x,thigh_imu_l_accel_y,thigh_imu_l_accel_z,thigh_imu_l_gyro_x,thigh_imu_l_gyro_y,thigh_imu_l_gyro_z,shank_imu_l_accel_x,shank_imu_l_accel_y,shank_imu_l_accel_z,shank_imu_l_gyro_x,shank_imu_l_gyro_y,shank_imu_l_gyro_z,foot_imu_l_accel_x,foot_imu_l_accel_y,foot_imu_l_accel_z,foot_imu_l_gyro_x,foot_imu_l_gyro_y,foot_imu_l_gyro_z,insole_l_force_y,insole_l_cop_x,insole_l_cop_z,hip_angle_r,hip_angle_r_velocity,hip_angle_r_velocity_filt,hip_angle_r_torque_estimated,hip_angle_r_torque_desired,hip_angle_r_torque_measured,hip_angle_r_torque_interaction,knee_angle_r,knee_angle_r_velocity,knee_angle_r_velocity_filt,knee_angle_r_torque_estimated,knee_angle_r_torque_desired,knee_angle_r_torque_measured,knee_angle_r_torque_interaction,thigh_imu_r_accel_x,thigh_imu_r_accel_y,thigh_imu_r_accel_z,thigh_imu_r_gyro_x,thigh_imu_r_gyro_y,thigh_imu_r_gyro_z,shank_imu_r_accel_x,shank_imu_r_accel_y,shank_imu_r_accel_z,shank_imu_r_gyro_x,shank_imu_r_gyro_y,shank_imu_r_gyro_z,foot_imu_r_accel_x,foot_imu_r_accel_y,foot_imu_r_accel_z,foot_imu_r_gyro_x,foot_imu_r_gyro_y,foot_imu_r_gyro_z,insole_r_force_y,insole_r_cop_x,insole_r_cop_z
33.6,-5.2802438490451,54.0427904878837,49.0248811374119,0.0741242436034113,2.58703255824359,4.87958364815972,4.87054256211864,1.22527064597346,37.3342536306234,50.5016088396825,-0.351855157681098,-1.7926075128045,1.99599642516939,2.00577407733499,2.79283415893985,8.38182162665652,2.52356280960244,-12.1506511027165,5.23252335559516,-104.099641609941,5.28368347516827,9.19091081332826,-0.754433401075423,2.21597489779886,-37.4414802060906,-6.54785381511744,-2.15072774887085,9.17532062530518,1.16637456417084,2.90499997138977,0.699999988079071,-6.05499982833862,699,-0.0810334011912346,-0.0938220322132111,-65.6532961808009,0.885958765861196,-31.7273507923125,0.375510841588983,-0.0231211880938332,-2.9462476329944,-2.95310392388799,-71.2185190548641,108.519864543164,114.009977276628,-0.278292819336223,-0.500758192151809,0.777861848259675,0.763316790235715,6.19204401117746,2.05083036961768,0.755952199500403,13.0032974603518,16.1678684873394,35.8239036734916,-6.66327892798169,0.230605656463035,0.0523468394089577,10.3745879154625,4.62795607114799,239.569930621873,-22.9218946919069,2.33856461060643,-0.187328856587132,-17.6763919386332,88.5203372100613,321.80539622259,0,0,0
33.605,-4.8024671068096,54.0152386591155,50.035776445081,0.0658867058277236,2.42641775162279,4.81709937733479,4.82210663246271,1.54668138152373,33.3571065914947,48.5796738882809,-0.358948454260826,-1.99152076007347,1.71057884707397,1.73198906160539,2.66294882731705,8.50800871770303,2.40748635667792,-10.4175901796647,3.20931230039241,-102.632033901313,5.6533732602573,9.24367791242566,-0.629542963317885,1.96449439674134,-44.5073150308602,-9.21167704189605,-2.15018567350429,9.18229980180551,1.16495162307887,2.88222520409612,0.702970610193253,-6.0480683812357,699.82045738726,-0.0807564359076826,-0.0937721628848572,-65.5883305430319,7.2151229312047,-26.1119357427342,0.382082740864673,0.229131623597829,-2.72487766868389,-2.72248835093539,-70.1592709988231,105.248348893302,114.53486731186,-0.291123383617568,-0.633524065627116,0.75381028760102,0.772551526652419,6.37831336987136,1.89244831897911,0.42519042221262,13.9522295093367,14.8004135664691,27.5984760971537,-6.83321000782955,0.962056606639969,0.602644175148717,13.2749501436432,3.65966737229479,225.269683107903,-25.043110076971,0.980644408432823,-0.75999783094839,-26.8148365957342,74.4064927298116,311.860062444172,0,0,0
33.61,-4.00972269103675,46.4544421825173,49.6277950196928,0.0597098777714909,2.37835766085266,4.47023723623982,4.50546943313357,1.69130378728851,20.8729998029651,44.04867473499,-0.360477434205157,-2.15090292803087,1.10734039861495,1.15595198798723,2.08214331623294,8.75062367802931,1.60612179075176,-9.22251711159036,2.77666559473514,-95.2740144037009,6.20232024119755,9.27553644256951,-0.279099131735491,1.55000069971305,-50.6127769330727,-16.2852994043206,-2.14549014995528,9.24275428771571,1.15262593219092,2.68494736646083,0.728702504599083,-5.98802733324089,706.927360265504,-0.0783573285300007,-0.0933401886242592,-64.9884155341865,16.8859095081002,-18.4956501700313,0.381717878333366,0.509159478703114,-2.30261078543738,-2.28812070423619,-68.4934354514459,93.9950689816165,111.751562295973,-0.294408802610781,-0.805908772701064,0.620236058475919,0.7077887515676,6.10383987940124,2.00027719023523,0.383529267409115,17.17438854098,11.0397152788328,17.8109789446971,-6.77439425987168,1.41297734098374,0.538927114861012,16.8329398349226,-1.64101114736635,209.9606458308,-26.813311470446,-1.64472468322008,-0.559265390615744,-13.8202319073487,47.6967917119542,261.01384564221,0,0,0
33.615,-3.21694047332714,38.8932851701089,49.2197941397519,0.0535327551738413,2.330295278342,4.12335855505897,4.19025417379625,1.83593308935798,8.38829771107422,39.5174595214657,-0.362006487058742,-2.31029269611073,0.504073184791938,0.583667556515361,1.50131010949717,8.99325020742526,0.804719011837856,-8.02738705657849,2.34399825836376,-87.9156440396785,6.7512933986187,9.30739649188413,0.0713614107253333,1.13548723759501,-56.7185299736143,-23.3592590717073,-2.14079440250071,9.30321165639192,1.14029965355365,2.48766012165193,0.754435626027678,-5.92798342219483,714.034602035689,-0.0759581067511277,-0.0929081937650125,-64.388471918455,26.5571572354691,-10.8790014155263,0.381352998403627,0.789200686908161,-1.88032376643754,-1.86073544716967,-66.8275204688701,82.7412524584245,108.96812455847,-0.297694378268864,-0.978301699922219,0.486655459877302,0.643732924804173,5.82935330069066,2.1081112033001,0.341866125997685,20.3967012209488,7.2788376626815,8.02301507643536,-6.71557570729085,1.86391957743682,0.475207016231774,20.3910991885782,-6.94194242934306,194.650878543812,-28.5835972757943,-4.27021896533084,-0.358523378377117,-0.825007572561681,20.985817044723,210.165204243577,0,0,0
33.62,-2.42419605755429,31.3324886935107,48.8118127143637,0.0473559271176087,2.28223518757188,3.776496413964,3.87335010025248,1.98055549512276,-4.09580907745538,34.9864603681747,-0.363535467003073,-2.46967486406814,-0.0991652636670777,0.0106566523534413,0.920504598413066,9.23586516775154,0.00335444591169165,-6.8323139885042,1.91135155270649,-80.5576245420667,7.30024037955896,9.33925502202798,0.421805242307727,0.720993540566716,-62.8239918758268,-30.4328814341318,-2.1360988789517,9.36366614230212,1.1279739626657,2.29038228401663,0.780167520433508,-5.86794237420002,721.141504913933,-0.0735589993734458,-0.0924762195044145,-63.7885569096096,36.2279438123647,-3.26271584282342,0.380988135872321,1.06922854201345,-1.45805688319103,-1.43456334483895,-65.1616849214928,71.4879725467393,106.184819542583,-0.300979797262077,-1.15068640699617,0.353081230752201,0.575881025328858,5.55487981022054,2.21594007455622,0.30020497119418,23.6188602525921,3.5181393750452,-1.76448207602115,-6.65675995933298,2.31484031178059,0.411489955944068,23.9490888798576,-12.2426209490042,179.341841266709,-30.3537986692694,-6.89558805698375,-0.157790938044471,12.1695971158237,-5.72388397313443,159.318987441615,0,0,0
33.625,-1.65916046142578,24.0359649658203,48.3187413526901,0.0409525285981138,2.2368582046213,3.44175815582275,3.56625462502761,2.1201229095459,-16.1435585021973,30.3844215330011,-0.365122487094424,-2.62847554455059,-0.681318700313568,-0.542874947763031,0.356667146575128,9.46934968713663,-0.771544493050538,-5.66124917024373,1.50928212669172,-73.3269282646251,7.82691101389887,9.36813035051775,0.759349687136599,0.329819063576959,-68.7273897150561,-37.3170648471163,-2.13156747817993,9.42200756072998,1.11607909202576,2.09999990463257,0.805000007152557,-5.80999994277954,728,-0.0712437480688095,-0.0920593440532684,-63.209610748291,45.5607070922852,4.32502793126458,0.380547656453951,1.3491359871682,-1.05054950714111,-1.0242861677611,-63.5540753746033,60.6280288696289,103.297192542487,-0.304106432762727,-1.32384433169455,0.224175825715065,0.507470435893028,5.29000000000002,2.31999999999999,0.259999999999991,26.6917647847009,-0.163196354336481,-11.3035095527075,-6.59918710892078,2.76243723351238,0.360161138490526,27.4776536988841,-17.4687183778274,164.02185921455,-32.0118574713531,-9.35532753087468,0.0166121460385161,24.955819252323,-31.4974393887591,109.643989706628,0,0,0
33.63,-1.65916046142578,24.0359649658203,45.4802244062983,0.0283108063225122,2.26552224760379,3.44175815582275,3.59106418037692,2.1201229095459,-16.1435585021973,23.82993168542,-0.368307639985894,-2.77102698225564,-0.681318700313568,-0.516613138988391,0.261444709009366,9.45076969931892,-0.815671964117596,-5.15374024374151,1.95084356556936,-69.6166652652246,7.73865607176476,9.31471288554184,0.740769699318894,0.582139885792745,-69.0513925890377,-38.9686193198015,-2.13156747817993,9.42200756072998,1.11607909202576,2.09999990463257,0.805000007152557,-5.80999994277954,728,-0.0712437480688095,-0.0920593440532684,-63.209610748291,45.5607070922852,11.115473797802,0.378022852674574,1.62534211893867,-1.05054950714111,-1.02260635387296,-63.5540753746033,60.6280288696289,97.5371122870587,-0.302850797203462,-1.51808566287613,0.224175825715065,0.561487155241208,5.29000000000002,2.31999999999999,0.259999999999991,25.6452068289195,-1.65131574899556,-13.9786837246091,-6.57596212414864,3.11777950052605,0.650473448142223,30.1901025377039,-20.6313305017368,148.42097746823,-30.5756385849061,-7.24494174081388,-0.535180839176435,31.9790545942591,-31.4242805626921,92.3297637361936,0,0,0
33.635,-1.65916046142578,24.0359649658203,42.6415721055148,0.0156684812276709,2.29418765742824,3.44175815582275,3.61262939998827,2.1201229095459,-16.1435585021973,17.2751292876578,-0.371492944761056,-2.91358521751149,-0.681318700313568,-0.493343066887559,0.166217730771362,9.43218882551637,-0.859801539398619,-4.6462071167278,2.39242606025926,-65.9062253423108,7.65039692120271,9.26129287335954,0.722188825516362,0.83447273990125,-69.3754109130634,-40.6202525466936,-2.13156747817993,9.42200756072998,1.11607909202576,2.09999990463257,0.805000007152557,-5.80999994277954,728,-0.0712437480688095,-0.0920593440532684,-63.209610748291,45.5607070922852,17.9062434660593,0.375497928500187,1.90156142157042,-1.05054950714111,-1.02198757251235,-63.5540753746033,60.6280288696289,91.7767573627895,-0.301595101769342,-1.71233625643581,0.224175825715065,0.607983379435629,5.29000000000002,2.31999999999999,0.259999999999991,24.5985989681285,-3.13950610447647,-16.6539854619187,-6.55273603189547,3.47313871199954,0.94079960130685,32.9026807193705,-23.7940934344833,132.819351795452,-29.1393512125077,-5.13445531722154,-1.08700013658371,39.0026248384574,-31.3511182480539,75.0147121386563,0,0,0
33.64,-1.65916046142578,24.0359649658203,39.8030551591229,0.00302675895206931,2.32285170041073,3.44175815582275,3.63065573575196,2.1201229095459,-16.1435585021973,10.7206394400767,-0.374678097652526,-3.05613665521655,-0.681318700313568,-0.473554447019037,0.0709952932055999,9.41360883769865,-0.903929010465676,-4.13869819022558,2.8339874991369,-62.1959623429103,7.5621419790686,9.20787540838362,0.703608837698657,1.08679356211704,-69.699413787045,-42.2718070193789,-2.13156747817993,9.42200756072998,1.11607909202576,2.09999990463257,0.805000007152557,-5.80999994277954,728,-0.0712437480688095,-0.0920593440532684,-63.209610748291,45.5607070922852,24.6966893325968,0.37297312472081,2.17776755334089,-1.05054950714111,-1.02241854993636,-63.5540753746033,60.6280288696289,86.0166771073609,-0.300339466210077,-1.90657758761739,0.224175825715065,0.646148831984347,5.29000000000002,2.31999999999999,0.259999999999991,23.5520410123471,-4.62762549913555,-19.3291596338203,-6.52951104712333,3.82848097901322,1.23111191095855,35.6151295581903,-26.9567055583926,117.218470049132,-27.7031323260607,-3.02406952716074,-1.63879312179866,46.0258601803935,-31.2779594219868,57.7004861682216,0,0,0
33.645,-1.65916046142578,24.0359649658203,36.9644028583394,-0.00961556614277196,2.35151711023518,3.44175815582275,3.64496968299847,2.1201229095459,-16.1435585021973,4.16583704231447,-0.377863402427687,-3.19869489047239,-0.681318700313568,-0.457583453191914,-0.0242316850324036,9.39502796389611,-0.948058585746699,-3.63116506321187,3.27556999382679,-58.4855224199964,7.47388282850655,9.15445539620133,0.685027963896124,1.33912641622554,-70.0234321110707,-43.923440246271,-2.13156747817993,9.42200756072998,1.11607909202576,2.09999990463257,0.805000007152557,-5.80999994277954,728,-0.0712437480688095,-0.0920593440532684,-63.209610748291,45.5607070922852,31.4874590008541,0.370448200546422,2.45398685597264,-1.05054950714111,-1.02390345902464,-63.5540753746033,60.6280288696289,80.2563221830917,-0.299083770775957,-2.10082818117707,0.224175825715065,0.675419236145075,5.29000000000002,2.31999999999999,0.259999999999991,22.5054331515561,-6.11581585461647,-22.0044613711299,-6.50628495487015,4.18384019048671,1.52143806412317,38.3277077398568,-30.1194684911391,101.616844376355,-26.2668449536624,-0.913583103568393,-2.19061241920593,53.0494304245919,-31.2047971073486,40.3854345706843,0,0,0
33.65,-1.49250904701961,19.9329991027539,33.3113240491183,-0.0198940118165691,2.36269215016836,3.24402000446974,3.45778009607836,1.43268550699526,-23.8024281011355,-2.65223850211356,-0.383073301515355,-3.33352947257495,-1.03490133824709,-0.799191914245147,-0.0309383762228247,9.39762464951086,-0.521582653124793,-2.21128580758464,7.1085484346165,-49.216737937597,7.36994118013582,9.33824088728269,0.472228300828713,1.35798838279988,-66.0093320686878,-53.3410999800765,-2.14024152445551,9.41287682305259,1.10968768472307,2.54032340297833,1.57890197840708,-7.1976861937513,762.310922798928,-0.0586142606518411,-0.0920164568040652,-62.3096928196404,47.885721428264,36.6082056245906,0.362604365811994,2.75236859751166,-0.557879830357501,-0.533786462474696,-63.1249481552039,50.5073801073332,73.4201133923101,-0.288430567888115,-2.30234336091836,-0.0657284386966212,0.405576222475254,5.40246358028539,2.62689214281263,0.0751022493613274,19.9136477869857,-6.05021442819022,-27.5761660470365,-6.25219889089663,4.42677450308428,1.660997196087,39.8006604772883,-29.0809126986874,85.7886508062884,-25.8781871795654,-0.342487812042236,-2.33993411064148,54.9500007629395,-31.1849994659424,35.7000007629395,0,0,0
33.655,-1.26401705807307,14.307515310898,29.3558443825363,-0.0292961017588841,2.36737878306092,2.97290569287355,3.19351142581721,0.490155616416553,-34.3033311626504,-9.56843729332984,-0.38903469005272,-3.46550730146995,-1.51969050422132,-1.27603034235274,-0.00480341454296327,9.40807863418281,0.0795214655118697,-0.45282233653263,12.2000261544698,-37.8851347993683,7.26017434108042,9.61004448875319,0.18735721851828,1.29023107474101,-60.3854754998004,-65.6406646620035,-2.15213431332132,9.40035787492432,1.10092457057873,3.14404100282845,2.63998148554292,-9.1003114588781,809.353853822668,-0.0412982558068711,-0.0919576550656832,-61.0758356805412,51.07349605262,41.1096883864657,0.352786638474076,3.05899237765818,0.117608432031746,0.138066938054839,-62.5365815204468,36.6311872567274,66.1843029474197,-0.274290080219757,-2.50656696389189,-0.463209625493292,0.0188785187508043,5.55665985419653,3.04766502585831,-0.178406878933263,16.7484135390921,-5.40813327087031,-34.2228353137652,-5.9124443890585,4.62801370801918,1.74462907346254,40.8137935596926,-26.4835492230968,69.8753630278876,-25.8781871795654,-0.342487812042236,-2.33993411064148,54.9500007629395,-31.1849994659424,35.7000007629395,0,0,0
33.66,-1.03553596422423,8.68229975687305,25.4005533236057,-0.0386977433848752,2.37206519248253,2.70180430871927,2.92572175924905,-0.452329331863349,-44.8037335135482,-16.4843063020365,-0.394995794335433,-3.59747883731569,-2.00445655417581,-1.75675462930768,0.0213303009533353,9.41853212038133,0.680596921926588,1.30555728636607,17.2912610993031,-26.5540719817165,7.15041273599599,9.88183512991464,-0.0975002803913176,1.2224769975284,-54.7618870911537,-77.9396428684069,-2.16402653510775,9.38783952373234,1.09216187428266,3.74772981583898,3.70101039762311,-11.0028460018389,856.394541715995,-0.0239830766344571,-0.0918988561311224,-59.8420373749886,54.2611186755157,45.6109565058288,0.342969379271165,3.36560153717814,0.793064485367856,0.80880272728038,-61.9482429405551,22.7556560594142,58.9488375249612,-0.260150266806961,-2.71078082894805,-0.860671859343807,-0.376913507712214,5.71084877562465,3.46841784534862,-0.431903919247293,13.5833302178744,-4.76608272966509,-40.8691876498594,-5.5727060876067,4.82924331734064,1.82825696305068,41.8268783332526,-23.8863095966134,53.9628340368116,-25.8781871795654,-0.342487812042236,-2.33993411064148,54.9500007629395,-31.1849994659424,35.7000007629395,0,0,0
33.665,-0.807043975277685,3.05681596501712,21.4450736570237,-0.0480998333271902,2.3767518253751,2.43068999712308,2.65464875991207,-1.39485922244206,-55.3046365750631,-23.4005050932528,-0.400957182872798,-3.72945666621069,-2.48924572015003,-2.24117273355769,0.0474652626331967,9.42898610505328,1.28170104056325,3.06402075741808,22.3827388191565,-15.2224688434878,7.04064589694059,10.1536387313851,-0.38237136270175,1.15471968946952,-49.1380305222663,-90.2392075503339,-2.17591932397356,9.37532057560406,1.08339876013832,4.35144741568909,4.76208990475895,-12.9054712669657,903.437472739735,-0.00666707178948708,-0.0918400543927404,-58.6081802358894,57.4488932998717,50.1124392677039,0.333151651933247,3.67222531732466,1.4685527477571,1.47850663917087,-61.359876305798,8.8794632088084,51.7130270800708,-0.246009779138603,-2.91500443192158,-1.25815304614048,-0.781458976191958,5.86504504953579,3.8891907283943,-0.685413047541883,10.4180959699808,-4.12400157234518,-47.515856916588,-5.23295158576857,5.03048252227554,1.91188884042621,42.8400114156568,-21.2889461210229,38.0495462584108,-25.8781871795654,-0.342487812042236,-2.33993411064148,54.9500007629395,-31.1849994659424,35.7000007629395,0,0,0
33.67,-0.78001751507221,2.35150028011307,18.2156411219055,-0.052781833442684,2.2852770802033,2.400481579324,2.62155493788489,-2.03607875932309,-58.5591599685916,-29.2655107986536,-0.396532477606512,-3.79313751282909,-2.68499574107421,-2.43988173477881,0.326034934703151,9.63925228921045,1.45575658552065,4.34211547874717,23.3547399306884,-10.5617156971797,6.16405169677804,10.0664695026624,-0.583634878281025,2.79985061486047,-49.8430495349455,-94.5019018524831,-2.2437168219028,9.43328633956969,1.06922004504327,4.48012163791722,4.52997395092475,-14.0327486339961,931.373925922443,0.00275006175813139,-0.0905166132808434,-58.0652100892659,54.08450586003,51.3869580886435,0.31387254906378,3.90961999148744,1.8276160344186,1.83078085666757,-61.283350233052,5.61702127832651,44.5480765068475,-0.239301207499519,-3.03352079437823,-1.48457538507478,-1.02311094579262,6.19387843381566,4.15928708285825,-0.694417382718352,11.0620080387025,-9.87154372722453,-49.1608593810428,-5.45822622923841,5.43956543204073,1.65286941802924,42.4435853420294,-18.670787746123,24.0565685563002,-25.4367369533113,-0.00873436409105455,-1.26669817834393,55.8226269231017,-25.5752573931635,34.1339477601032,0,0,0
33.675,-0.774629335112317,2.17463436020409,15.0643385725286,-0.0569566821782821,2.18347915868248,2.39614740917433,2.61181659909942,-2.64490759674682,-61.0352816131137,-35.0173408273922,-0.390992537789725,-3.84948036479467,-2.84969420676191,-2.61044990097807,0.631702302728261,9.87096787464884,1.58393967533764,5.56855862205778,23.8842712134082,-6.61762062588802,5.20514358257024,9.94075147226501,-0.775909513006489,4.62886383850732,-51.2277434064252,-97.901249224885,-2.31751514009695,9.49881925552955,1.05446038140444,4.55777102373846,4.158982480071,-15.0767014486339,957.257049827795,0.0113184234220039,-0.0890574155553869,-57.5964657027759,50.0165898490526,52.3148467167532,0.293578232818302,4.13956827965959,2.15267879564431,2.14815935703955,-61.2617984535579,3.49463035696202,37.3910777846072,-0.233391128538614,-3.14282672085168,-1.69261555225923,-1.25381439583825,6.54145181197325,4.41318820307265,-0.677161966781453,12.114984037674,-16.3050444839457,-50.2686144782266,-5.74417312190707,5.87095083046326,1.35706228768236,41.8957943599056,-16.0505208816306,10.2704955061833,-24.9478969124002,0.360847616951518,-0.0782500456893769,56.7889297642024,-19.3633078204395,32.3997784960584,0,0,0
33.68,-0.76924089821761,1.99776000646174,11.9128857536105,-0.061131729991117,2.08167638293813,2.39181303235019,2.60001478074437,-3.25376546611169,-63.5115213312444,-40.7694451315601,-0.385452333801473,-3.90582590346342,-3.01440052607917,-2.78346282834719,0.937384246470696,10.1026945094213,1.71212887755222,6.79506024818482,24.4138277467732,-2.67333748082437,4.24618974292665,9.8150274470161,-0.968193316328335,6.45796427846353,-52.6125033068913,-101.30075869482,-2.39131697735638,9.56435529641983,1.03970001395255,4.63542411226275,3.78797331852674,-16.1207040440554,983.141407967275,0.01988719366733,-0.0875981482482354,-57.1276989642575,45.9484798599144,53.2427795911376,0.27328294884042,4.36952753289245,2.4777570574547,2.46482703097022,-61.2402456463695,1.37213822960252,30.2337377816115,-0.227480767756196,-3.25213785956711,-1.90066563981788,-1.49109757601442,6.88904176413199,4.66710143053611,-0.659905728021801,13.1680102476987,-22.7388520214956,-51.3764223985994,-6.03013364992419,6.3023567994546,1.06124105180259,41.3479772564245,-13.4301290699795,-3.51623493142345,-24.4590335612016,0.73044722147323,1.11025475799339,57.7552786833556,-13.1510620315325,30.6655265383289,0,0,0
33.685,-0.763852718257717,1.82089408655276,8.76158320423363,-0.065306578726715,1.9798784614173,2.38747886220051,2.58663608500729,-3.86259430353543,-65.9876429757665,-46.5212751602987,-0.379912393984686,-3.962168755429,-3.17909899176687,-2.95839945955736,1.24305161449581,10.3344100948597,1.84031196736921,8.02150339149543,24.9433590294929,1.27075759046735,3.28728162871885,9.68930941661868,-1.1604679510538,8.28697750211039,-53.997197178371,-104.700106067222,-2.46511529555053,9.62988821237969,1.02494035031372,4.71307349808399,3.416981847673,-17.1646568586932,1009.02453187263,0.0284555553312024,-0.0861389505227789,-56.6589545777675,41.880563848937,54.1706682192473,0.252988632594941,4.5994758210646,2.80281981868041,2.78098606086555,-61.2186938668755,-0.750252691761963,23.0767390593712,-0.221570688795291,-3.36144378604056,-2.10870580700234,-1.73397647950918,7.23661514228958,4.92100255075051,-0.642650312084901,14.2209862466701,-29.1723527782168,-52.4841774957832,-6.31608054259284,6.73374219787713,0.765433921455718,40.8001862743007,-10.8098622054871,-17.3023079815403,-23.9701935202905,1.1000292025158,2.29870289064794,58.7215815244562,-6.93911245880857,28.9313572742841,0,0,0
33.69,-0.763025131225586,1.79372870922089,6.79706954172877,-0.0764915550697405,1.81846816222681,2.38681316375732,2.57584933742926,-3.95610618591309,-66.3679580688477,-50.8242962047333,-0.369461672593931,-3.98134934301484,-3.20439553260803,-2.99534924022543,0.908740366392944,10.549416298168,1.96601872164476,8.39613925455155,23.9247345356421,3.68127785895738,2.7628180095331,10.1266960317005,-1.09009774306552,9.8390183862915,-49.5356893140005,-107.593296196328,-2.47645020484924,9.63995361328125,1.02267336845398,4.72499990463257,3.3600001335144,-17.3250007629395,1013,0.0297715961933136,-0.0859148278832436,-56.586958694458,41.2557601928711,53.1841180273941,0.226208516523458,4.75231360322043,2.85274720191956,2.8218139829703,-61.2153836631775,-1.07623720169067,17.6601150926042,-0.216713559369482,-3.37528458628199,-2.14065933227539,-1.80534198413067,7.11262252340208,5.21077505312121,-0.54009774306551,16.1547288707954,-26.8757257420134,-53.137597211676,-6.23767070579453,6.92436811577558,0.542622523402082,38.6545742396237,-10.4552316170762,-26.9155686860888,-23.2822921567814,1.16607216884477,3.38313361683657,46.7532825581157,-18.9294779437035,10.5327410019307,0,0,0
33.695,-0.763025131225586,1.79372870922089,5.04801481214472,-0.0889479209709418,1.64625001794732,2.38681316375732,2.56515143491658,-3.95610618591309,-66.3679580688477,-54.8641818337272,-0.358120456204115,-3.9937855875127,-3.20439553260803,-3.00790690259155,0.458320909665211,10.7613783954517,2.09126905185781,8.6161896922478,22.6252474914088,5.81338818096031,2.31721587319819,10.6662359156952,-0.972073393441675,11.3407139408403,-44.0136127896498,-110.394478795111,-2.47645020484924,9.63995361328125,1.02267336845398,4.72499990463257,3.3600001335144,-17.3250007629395,1013,0.0297715961933136,-0.0859148278832436,-56.586958694458,41.2557601928711,51.8502397476073,0.198253031113713,4.89115072188346,2.85274720191956,2.81287487866885,-61.2153836631775,-1.07623720169067,12.5595952163867,-0.2120477660702,-3.37180202376113,-2.14065933227539,-1.84825788010195,6.90306908631484,5.50704025727903,-0.422073393441664,18.2481816834733,-22.9951065366942,-53.7085388878609,-6.09315109401023,7.07129638775629,0.333069086314848,36.2191511521476,-10.511731053782,-35.7711119760814,-22.5583089602081,1.17703287449216,4.4486288184377,32.4386152675792,-34.2220611309872,-10.8886787855761,0,0,0
33.7,-0.763025131225586,1.79372870922089,3.29887667906395,-0.101404880852683,1.47402366146315,2.38681316375732,2.55436169722563,-3.95610618591309,-66.3679580688477,-58.9042601042561,-0.346778699009549,-4.00622242503161,-3.20439553260803,-3.02087729069396,0.00787997473153984,10.9733506001263,2.21652535462011,8.83625062302677,21.3256984812681,7.94560017242688,1.87159248837077,11.2058015275943,-0.854043415838733,12.8424811035887,-38.4912729456423,-113.195794968,-2.47645020484924,9.63995361328125,1.02267336845398,4.72499990463257,3.3600001335144,-17.3250007629395,1013,0.0297715961933136,-0.0859148278832436,-56.586958694458,41.2557601928711,50.5162978619705,0.170296212649491,5.02999446098035,2.85274720191956,2.80449996365801,-61.2153836631775,-1.07623720169067,7.45883212239829,-0.207381750283039,-3.36831929517463,-2.14065933227539,-1.89360106014383,6.69350565669329,5.80331958881295,-0.304043415838721,20.3417343222355,-19.1143022844434,-54.2795077893415,-5.94862459082295,7.21823166599669,0.123505656693299,33.7836119317695,-10.5682331846577,-44.6270775417543,-21.8342912405697,1.18799410279968,5.51417482806903,18.1232653835904,-49.5153735435434,-32.3111200513047,0,0,0
33.705,-0.763025131225586,1.79372870922089,1.54982194947989,-0.113861246753884,1.30180551718365,2.38681316375732,2.54393853904752,-3.95610618591309,-66.3679580688477,-62.9441457332501,-0.335437482619732,-4.01865866952947,-3.20439553260803,-3.03379701939171,-0.442539481996193,11.18531269741,2.34177568483317,9.05630106072303,20.0262114370348,10.0777104944298,1.42599035203585,11.7453414115891,-0.736019066214886,14.3441766581375,-32.9691964212916,-115.996977566782,-2.47645020484924,9.63995361328125,1.02267336845398,4.72499990463257,3.3600001335144,-17.3250007629395,1013,0.0297715961933136,-0.0859148278832436,-56.586958694458,41.2557601928711,49.1824195821837,0.142340727239746,5.16883157964338,2.85274720191956,2.79712508353239,-61.2153836631775,-1.07623720169067,2.35831224618086,-0.202715956983756,-3.36483673265376,-2.14065933227539,-1.94031477813963,6.48395221960606,6.09958479297076,-0.186019066214875,22.4351871349134,-15.2336830791242,-54.8504494655263,-5.80410497903864,7.3651599379774,-0.0860477803939354,31.3481888442933,-10.6247326213635,-53.4826208317469,-21.1103080439963,1.19895480844707,6.57967002967016,3.80859809305395,-64.8079567308272,-53.7325398388116,0,0,0
33.71,-0.780967747673232,0.812067044470081,0.701406060943788,-0.125857970921386,1.16148686202455,2.39523276836259,2.54272341006628,-4.36280540507283,-66.7606236024424,-64.9584483916713,-0.328392397106451,-4.02700932418037,-3.27656357208176,-3.1184051146383,-0.554004469231765,11.3156729198355,2.23634048785983,8.64881454542756,19.3627489368825,11.5053894836505,1.07519482470473,11.9606228757066,-0.671268097571959,14.9899612680489,-30.2113604913698,-116.551188792934,-2.46072141619563,9.64355813346397,1.04495582720162,3.90614069978649,3.30732494774772,-20.5573397860931,1036.3959776914,0.0388016328155438,-0.0854974344359878,-56.3716473623264,39.9795998182955,47.6518009099266,0.113550710520293,5.2344757385082,2.99227207823543,2.93072339019143,-61.239307499722,-2.05789888275152,-0.184798700386351,-0.197327743643938,-3.30407213542953,-2.23086938161755,-2.07759644044746,6.54997765384111,6.26251384898504,-0.139054513360729,22.9592140290943,-13.8078387979301,-56.1091053120986,-5.83935477813455,7.43052278744862,-0.144527256680357,28.2486182312108,-7.75020476444496,-58.7441994226025,-20.8893604278564,1.20229983329773,6.90484142303467,-0.560000002384186,-69.4749984741211,-60.2700004577637,0,0,0
33.715,-0.806789502375648,-0.600671548138286,0.248607589275341,-0.137651997873692,1.0351880427854,2.40734967257458,2.54637134346494,-4.94809838647545,-67.3257202882108,-66.0829798920961,-0.323234649137457,-4.03356502098917,-3.38042275104165,-3.23383353461613,-0.516593525247389,11.4101847783224,2.02959579741986,7.96574272868878,18.9786729687518,12.6235853402335,0.766062287570676,12.0334757666235,-0.629919159483968,15.2597867899635,-28.6677640371736,-116.118495613648,-2.4380856471279,9.64874550601076,1.07702317845037,2.72769598493423,3.2315185161863,-25.2090953209925,1070.06582727734,0.0517970279572395,-0.0848967510718373,-56.0617863997865,38.1430393451122,46.0348791980635,0.0843961446404362,5.26796915712683,3.19306649089121,3.12747805092495,-61.2737370067337,-3.47063749883217,-1.60452505590855,-0.191622614297662,-3.21815352657311,-2.36069335531741,-2.25390226499911,6.73703237376299,6.36687069273093,-0.123302536946258,22.7939155111646,-13.4602257381662,-57.6697177901993,-5.95355660713949,7.46005774322575,-0.136651268473127,24.8575677530948,-3.58857148950978,-62.4269531676532,-20.8893604278564,1.20229983329773,6.90484142303467,-0.560000002384186,-69.4749984741211,-60.2700004577637,0,0,0
33.72,-0.832612488385807,-2.01347750704262,-0.20421247404213,-0.149446587222973,0.908883200999917,2.41946715457991,2.55151246312561,-5.5334192775143,-67.890843920557,-67.2075650156909,-0.318076655221776,-4.0401210304057,-3.48428688251591,-3.34804461696626,-0.479180797325958,11.5047011435976,1.82284124838036,7.28263833973997,18.5945786859976,13.7418345178722,0.456915009483058,12.1063321315231,-0.588568249676074,15.5296251784807,-27.1240939767377,-115.685781801431,-2.41544879867583,9.65393312591688,1.1090920588275,1.54919507606572,3.1557084698029,-29.8610726743811,1103.73728240663,0.0647930427830295,-0.0842960390641617,-55.7519106615582,36.3063912957298,44.4178803834532,0.0552401885280734,5.30146417287571,3.39387047840813,3.32653442070576,-61.308168155513,-4.88344348120989,-3.02431911093747,-0.185917212902875,-3.13223082069656,-2.49052351966024,-2.42875921593098,6.92409601337015,6.4712325127223,-0.107549809400395,22.628609110992,-13.112596102509,-59.2304046859471,-6.06776388184701,7.48959410737424,-0.128774904700201,21.466355573082,0.573260232484437,-66.1098825244413,-20.8893604278564,1.20229983329773,6.90484142303467,-0.560000002384186,-69.4749984741211,-60.2700004577637,0,0,0
33.725,-0.858434243088223,-3.42621609965098,-0.657010945710577,-0.161240614175278,0.78258438176077,2.4315840587919,2.55841775448228,-6.11871225891692,-68.4559406063253,-68.3320965161157,-0.312918907252782,-4.0466767272145,-3.5881460614758,-3.46071757440408,-0.441769853341582,11.5992130020844,1.61609655794038,6.5995665230012,18.2105027178669,14.8600303744552,0.147782472349001,12.17918502244,-0.547219311588083,15.7994507003953,-25.5804975225415,-115.253088622145,-2.3928130296081,9.65912049846367,1.14115941007625,0.370750361213464,3.07990203824148,-34.5128282092805,1137.40713199256,0.0777884379247252,-0.0836953557000112,-55.4420496990183,34.4698308225466,42.8009586715902,0.0260856226482165,5.33495759149434,3.59466489106391,3.52822225743013,-61.3425976625247,-6.29618209729053,-4.44404546645966,-0.1802120835566,-3.04631221184014,-2.62034749336011,-2.60138579457715,7.11115073329203,6.5755893564682,-0.0917978329859239,22.4633105930623,-12.7649830427452,-60.7910171640478,-6.18196571085195,7.51912906315138,-0.120898916492971,18.075305094966,4.73489350741962,-69.792636269492,-20.8893604278564,1.20229983329773,6.90484142303467,-0.560000002384186,-69.4749984741211,-60.2700004577637,0,0,0
33.73,-0.884257229098382,-4.83902205855531,-1.10983100902805,-0.173035203524559,0.656279539975285,2.44370154079723,2.56730311733262,-6.70403314995577,-69.0210642386716,-69.4566816397106,-0.307760913337101,-4.05323273663103,-3.69201019295007,-3.57159280197284,-0.40435712542015,11.6937293673596,1.40934200890089,5.91646213405239,17.8264084351128,15.9782795520938,-0.161364805738617,12.2520413873397,-0.505868401780189,16.0692890889124,-24.0368274621055,-114.820374809928,-2.37017618115603,9.6643081183698,1.17322829045338,-0.807750547655047,3.00409199185809,-39.1648055626691,1171.07858712185,0.0907844527505153,-0.0830946436923356,-55.13217396079,32.6331827731642,41.1839598569799,-0.00307033346414633,5.36845260724323,3.79546887858083,3.73283156427147,-61.377028811304,-7.70898807966825,-5.86383952148858,-0.174506682161813,-2.9603895059636,-2.75017765770294,-2.77113183682661,7.29821437289918,6.67995117645957,-0.0760451054400611,22.2980041928896,-12.4173534070879,-62.3517040597956,-6.29617298555948,7.54866542729987,-0.113022552720045,14.6840929149532,8.89672522941384,-73.4755656262802,-20.8893604278564,1.20229983329773,6.90484142303467,-0.560000002384186,-69.4749984741211,-60.2700004577637,0,0,0
33.735,-1.03388925982605,-8.06603962986414,-2.09461760502996,-0.184527132266344,0.521227133017373,2.37981681126804,2.50232164106883,-7.46709199593993,-68.7904536906002,-69.8502531087501,-0.296759863134138,-4.03999579351496,-3.76202334519904,-3.64658740504465,-0.566185874233855,11.5959116355388,1.33467750108584,5.95845480311321,14.9687565724758,17.0022007553618,-0.401615028232205,12.1038141257661,-0.54613001303027,15.9745750568547,-23.7389537720724,-113.537880399261,-2.40405957455237,9.72903409975789,1.20756670650693,-1.85482218362933,3.56436507416292,-44.0496249823697,1194.13458568602,0.102052629307171,-0.0821919562913983,-54.6758808964094,33.7182720850623,39.9045504890468,-0.0100320632867645,5.35059464718582,3.98903653852774,3.93329039715171,-61.5129248102795,-9.36984102890866,-6.85718845931377,-0.164267687922536,-2.83667956312096,-2.90143147164874,-2.95886595377601,7.54618587423387,6.80887252063127,-0.012310819941115,21.7148455583618,-12.9191668141284,-65.4741579932329,-6.42887252063123,7.46489081125428,-0.127150837314817,11.9794657236263,10.7402140489668,-79.9282707171886,-20.6219894287583,1.25457914497141,6.19608353224853,-4.43453004433795,-70.5555012725356,-64.903065307094,0,0,0
33.74,-1.2606368847592,-12.4231355169048,-3.41077086834136,-0.195831463651449,0.38071659273789,2.26859557449136,2.39223549348149,-8.34089897472963,-68.0642694139405,-69.7886048671658,-0.282119107131418,-4.01443145591422,-3.81096068938078,-3.69829404504205,-0.852107885719786,11.378307272815,1.34226835094831,6.4520162344994,10.5704369813888,17.9674569724398,-0.598977124656131,11.8178921142802,-0.637220211379774,15.6528229844954,-24.2168961708197,-111.72607261316,-2.47314445288173,9.83084353384183,1.24332116848943,-2.82012521195703,4.52081220992013,-49.0798284281555,1210.58142705468,0.112245639554653,-0.0811011391487315,-54.1283688477421,36.6230029177294,38.8352812168725,-0.00317253090633053,5.3007544378636,4.1781126410481,4.13240559029423,-61.7120201445779,-11.1852976183456,-7.58503890961146,-0.15120453565442,-2.68942745568449,-3.06603890207823,-3.15608705179335,7.8321078857198,6.95309866801798,0.0813096616958728,20.8714177958664,-13.9500229682895,-69.5694683511271,-6.57309866801795,7.31054353071763,-0.154983953477168,9.70221076488875,11.1400612845202,-88.106396206866,-20.1880882763102,1.33942025960582,5.04588075537265,-10.7222839745286,-72.3089876679816,-72.4218021344681,0,0,0
33.745,-1.48737369777049,-16.7800236461786,-4.72686137401098,-0.207135256016366,0.240212752369731,2.15737964103514,2.28442362501143,-9.21466428810931,-67.3381197636528,-69.7269595651314,-0.267479049238369,-3.98886833728819,-3.85989570010152,-3.7476508961923,-1.13801626369382,11.1607132860383,1.34985883885913,6.94555413158121,6.17232711372312,18.9326671635682,-0.796329810337331,11.5319837363061,-0.728306066309559,15.3310862541192,-24.6948157800192,-109.914351218809,-2.54222603706278,9.93264811338476,1.27907392560535,-3.78538221210295,5.47721373976776,-54.1097920206395,1227.02748419478,0.122438163772656,-0.0800103740190888,-53.5808829058863,39.5275952452071,37.7660629302633,0.003686674393597,5.25091660505336,4.36717972792367,4.33459949809194,-61.9111059854882,-13.0006676420478,-8.31285465408948,-0.138142006271689,-2.54218236961497,-3.23063848359343,-3.34912168146367,8.11801626369384,7.09731793832346,0.174925679262594,20.0280302502203,-14.9808299685236,-73.6645834338755,-6.71731793832345,7.15620360986438,-0.182815742483494,7.42506439164421,11.539889454308,-96.2841317420569,-19.7542078134078,1.42425732879322,3.89573282318383,-17.00973808811,-74.0623904525943,-79.9401804487376,0,0,0
33.75,-1.71412132270363,-21.1371195332193,-6.04301463732238,-0.218439587401471,0.0997022120902484,2.04615840425846,2.17885375596316,-10.088471266899,-66.611935486993,-69.6653113235471,-0.252838293235649,-3.96330399968744,-3.90883304428326,-3.79457805343244,-1.42393827517975,10.9431089233145,1.3574496887216,7.4391155629674,1.77400752263613,19.8979233806462,-0.993691906761256,11.2460617248202,-0.819396264659063,15.0093341817599,-25.1727581787666,-108.102543432708,-2.61131091539214,10.0344575474687,1.31482838758786,-4.75068524043064,6.43366087552497,-59.1399954664253,1243.47432556344,0.132631174020139,-0.078919556876422,-53.033370857219,42.4323260778741,36.696793658089,0.0105462067740309,5.20107639573114,4.55625583044403,4.53970253431283,-62.1102013197866,-14.8161242314848,-9.04070510438717,-0.125078854003573,-2.39493026217851,-3.39524591402292,-3.5377913398822,8.40393827517977,7.24154408571017,0.268546160899581,19.1846024877249,-16.0116861226846,-77.7598937917697,-6.86154408571017,7.00185632932772,-0.210648858645844,5.1478094329067,11.9397366898614,-104.462257231734,-19.3203066609597,1.50909844342763,2.74553004630796,-23.2974920183007,-75.8158768480403,-87.4589172761117,0,0,0
33.755,-1.99799523821616,-23.9121103319533,-8.4604766559424,-0.223112394076375,-0.0510518036791699,1.87866570519912,2.01918002271498,-10.8773132709533,-67.4168625639848,-69.4887668099624,-0.24508739149267,-3.89485699994396,-3.9365200243648,-3.81779299436789,-1.58213091519906,10.9193392561875,1.49705348940974,7.97492629239829,0.0188052807012996,21.0637193670754,-1.07279165901158,11.1701011784467,-0.946851132516225,13.8815114862025,-24.9836495331933,-107.099022870013,-2.63495916981844,10.0682250451254,1.32640321387359,-6.43091567843384,7.50331221541433,-65.8379361110173,1250.46190388704,0.144128346011562,-0.0775848285811976,-52.4939479667513,45.2438147663429,37.0425677409329,0.0405592517207724,5.10540668791026,4.72902122669866,4.73108019409237,-62.2489847247991,-12.8038075134568,-9.49814826307439,-0.104249669746038,-2.27117882964877,-3.47464667947295,-3.63680141064231,8.40497624734259,7.39050589223381,0.301827379858806,19.7630359334076,-15.2142202612225,-82.9462278784038,-6.70898821553242,6.97375593816434,-0.474005800372718,4.49551727523436,11.0543509923754,-109.375660079561,-16.0019229023288,2.27506155048292,-0.90892075358756,-25.9728328299796,-68.2950874678635,-96.4064133226275,0,0,0
33.76,-2.31079523755905,-25.8867609180186,-11.4353705562086,-0.224430008629096,-0.206999807406782,1.68268782007566,1.83305194972882,-11.6232199522082,-68.9965842926754,-69.254072517058,-0.240822174648248,-3.80470661172957,-3.95345638480757,-3.82782451256959,-1.67570431222277,10.9936475420593,1.70346539460908,8.53215349326564,-0.399115119949217,22.3310714763651,-1.09205677016351,11.2003749245426,-1.09271554552375,12.3457389569828,-24.4570018738369,-106.504420673966,-2.6356183539563,10.0675659922207,1.32574406254401,-8.4730174815366,8.63032129129329,-73.3802267910442,1252.66363087583,0.156286244812307,-0.0761265862673581,-51.958579423557,48.0083251668882,38.1043735116433,0.0822900462249393,4.98654054805136,4.89354587099983,4.91636619396076,-62.357260476645,-8.85450673502564,-9.81879915364464,-0.0794894053749152,-2.15930976724185,-3.51093888042173,-3.68827808002857,8.26186399307106,7.54187462271331,0.304579538594795,21.0609675842084,-13.4915727561021,-88.6849885019706,-6.40625075457339,7.00953400173223,-0.856555864675489,4.66540361696221,9.5185784631556,-112.637477840736,-11.223762998138,3.38572494635003,-5.83077449933559,-26.8204976996676,-56.0810077534376,-106.077498952922,0,0,0
33.765,-2.62358032177704,-27.8613173475616,-14.4101226057262,-0.225747560354496,-0.362940375124299,1.48671927969211,1.6487714693178,-12.369091066675,-70.576230696088,-69.0193894149934,-0.236557161180558,-3.71456052212228,-3.97039193768022,-3.83551411236443,-1.76927324742133,11.0679522847169,1.90986745754706,9.08935412407762,-0.817015593058219,23.5983631549802,-1.11132096270439,11.2306472271069,-1.23857300333325,10.8100396574278,-23.9303793264232,-105.909846830111,-2.63627750666253,10.0669069707414,1.3250849426445,-10.515021911866,9.75727662842172,-80.9221578348572,1254.8652528805,0.16844356389253,-0.0746684134863392,-51.42323640814,50.7727037483224,39.1661286526679,0.124018850895304,4.86768007604197,5.05806267033418,5.10324666687516,-62.4655310656189,-4.9053942696203,-10.1394347547389,-0.0547303216381799,-2.04744603904542,-3.54722935086313,-3.73545648077728,8.11875856276739,7.69323613553449,0.307331566100632,22.3588373462217,-11.7690073913358,-94.4234754863697,-6.10352772893101,7.04531035930814,-1.23908768798721,4.83528185806342,7.98287916360058,-115.899140069879,-6.44583092915136,4.49633538287154,-10.7523935581799,-27.6681221504699,-43.8675104383878,-115.748123440473,0,0,0
33.77,-2.93786605423651,-29.8661827741435,-17.3940600348808,-0.226910542432678,-0.517610802667161,1.29154081085561,1.46687236591112,-13.1143093666907,-72.1319713384617,-68.8057923598453,-0.232258985291587,-3.623788663593,-3.98688681877943,-3.84057918761826,-1.85815439639191,11.1527514431105,2.11050334643859,9.68980334996122,-1.16225564034272,24.902144613483,-1.12748326780712,11.2714930770141,-1.39602319496127,9.27365651801888,-23.366207796555,-105.350732963309,-2.64280361580652,10.070587760333,1.32418464715049,-12.6280091861125,10.8576344678414,-88.680126623716,1256.57215552721,0.180593824058913,-0.0731601213365239,-50.8894857707217,53.3869033111541,40.2550272903883,0.165790884700985,4.74635410385446,5.21905723359025,5.28756558773209,-62.5684959530743,-0.961874054933845,-10.3975699869103,-0.029993933390388,-1.93716496027559,-3.57821371589468,-3.77325088225236,7.98083891073098,7.86458008441701,0.313271751850734,23.6092055509858,-10.1034260472708,-100.048345887449,-5.78038645119723,7.13377417785432,-1.5792119761739,4.9546366789927,6.26970335533448,-118.915385078662,-1.77999851030438,5.74650487850749,-15.4475845003929,-31.1563517971811,-30.7213342371712,-123.571756768833,0.11744750233396,0,0
33.775,-3.29948704627262,-32.8338981699444,-20.6660720284708,-0.223145339262223,-0.63155756134014,1.12184900864409,1.31175190523021,-13.8375534545621,-72.9233616899155,-69.2645734787663,-0.226910611129165,-3.51321490318087,-3.98931098714765,-3.82961412343497,-1.79748957936122,11.5718901789589,2.12704829653786,11.6677078782902,0.808840266546274,27.3668655747743,-1.04475851731074,11.6492694376142,-1.92270410645488,7.71788651897177,-21.6061791543069,-105.922657164271,-2.83630804171564,10.2125789535719,1.31559914124399,-17.000012386593,11.1085661689377,-103.311376821626,1242.50894794283,0.192500061946022,-0.0700568151538599,-50.4073231660043,51.2105787927568,42.207322422114,0.208875221333819,4.54663917453544,5.2675406009547,5.35961730437724,-62.5021989289859,2.79723182380826,-8.663321775649,-0.00601965558212857,-1.87749810488986,-3.44003611890599,-3.63810286897591,8.00841382756309,8.6725251475983,0.420813927496021,23.3436693148246,-10.2566200296715,-102.043271969379,-4.80699188702318,8.90132634679359,-0.567212528434875,3.46354858362591,-1.09722504277913,-114.10509403128,-0.694260320858323,11.4426676947348,-12.9188185232922,-118.799092139761,12.1300869407122,-72.5167978333918,3.97793585883157,0,0
33.78,-3.66112528216892,-35.8017550809518,-23.9382400476196,-0.219379956548437,-0.745509753552707,0.952149114696262,1.15756622996684,-14.5608320302542,-73.7147897787375,-69.7233764746182,-0.221561981930066,-3.40263587007023,-3.99173527111209,-3.81698118842418,-1.73682186953492,11.9910489013951,2.1435940355814,13.6457067227953,2.78003016494292,29.8317040660336,-0.962029822093058,12.0270638124416,-2.44941013267414,6.16204233319064,-19.8460665852723,-106.494608637381,-3.02982169486361,10.3545769176465,1.30701322593851,-21.372224065601,11.3595098356867,-117.943324709213,1228.44506975582,0.204406867580874,-0.0669533609903566,-49.9251375694121,49.0341504965463,44.1597106488342,0.251961612438859,4.34691472183036,5.31602628024359,5.43114671692782,-62.4358987435308,6.55651695513148,-6.92899086693833,0.0179557654371274,-1.81782840429622,-3.30185193293266,-3.49953109223303,8.03599005930231,9.48050873755767,0.528361231279005,23.078120416595,-10.4098213171116,-104.038293179155,-3.83355090662843,10.6689628012781,0.444835176394783,1.97238938587508,-8.4645047321234,-109.294573605659,0.391529641902758,17.1391021319062,-10.3899319622434,-206.446011717491,54.9835514842518,-21.459404347432,7.83860830232344,0,0
33.785,-4.02274627420503,-38.7694704767528,-27.2102520412096,-0.215614753377982,-0.859456512225686,0.782457312484745,1.00393618449276,-15.2840761181256,-74.5061801301913,-70.1821575935392,-0.216213607767644,-3.2920621096581,-3.99415943948032,-3.80303630916878,-1.67615705250423,12.4101876372434,2.16013898568068,15.6236112511244,4.75112607183191,32.2964250273249,-0.879305071596678,12.4048401730418,-2.97609104416775,4.60627233414352,-18.0860379430242,-107.066532838344,-3.22332612077272,10.4965681108854,1.29842772003201,-25.7442272660815,11.6104415367831,-132.574574907123,1214.38186217144,0.216313105467983,-0.0638500548076927,-49.4429749646946,46.8578259781489,46.1120057805599,0.295045949071693,4.14719979251135,5.36450964760805,5.50135425755381,-62.3696017194424,10.3156228338736,-5.19474265567705,0.0419300432453868,-1.75816154891049,-3.16367433594396,-3.35796382253428,8.06356497613443,10.288453800739,0.635903406924292,22.8125841804338,-10.5630152995123,-106.033219261084,-2.86015634245438,12.4365149702174,1.4568346241338,0.481301290508284,-15.831433130237,-104.484282558277,1.47726783134881,22.8352649481335,-7.86116598514274,-294.088752060071,97.8349726621351,29.5955545880088,11.6990966588211,0,0
33.79,-4.58334825199285,-41.8537244989125,-30.2864229335854,-0.209076672016736,-0.958295448821968,0.577447880166869,0.8150991969673,-16.2717049859646,-75.1240211712252,-70.7941333431107,-0.207147817633235,-3.18623348849507,-3.95530956547777,-3.74692165644245,-1.53406967518572,12.8891761834924,2.18120416897075,17.2363005942655,5.9498180932036,34.8280048013777,-0.906392061164122,12.862231865939,-3.4427841223283,3.41494102313629,-16.2108710422249,-107.388545170083,-3.33865737915039,10.5811967849731,1.29331064224243,-28.3500003814697,11.7600002288818,-141.294998168945,1206,0.223409384489059,-0.0620004422962666,-48.9396520863309,42.7105532806153,46.9439119356868,0.335645829177059,3.91095130246854,5.34147098562377,5.49792594712645,-62.1364029449912,13.7984756584783,-2.83647708168019,0.0640407084396158,-1.69487306648531,-2.94968922701458,-3.13803921758784,8.13500228403817,10.910561392542,0.679628783689553,21.4509102463526,-10.4656986144095,-105.954679874017,-1.99174728920729,13.933073954752,2.02027612819465,-0.0188453185231355,-17.3400723590419,-96.6703478416507,1.8694575424402,24.5938564982712,-5.89341467460304,-307.31005747038,112.779930350316,66.6201828063828,36.2046257783762,0.00897171323989505,0.0299821509519859
33.795,-5.43745286283887,-45.1096824620958,-33.0734674141193,-0.198448426558405,-1.03483996998712,0.320351357079821,0.573813687925216,-17.6492918735772,-75.4857941713875,-71.6320628574339,-0.192598633833011,-3.08741246781983,-3.8555738540588,-3.62949392318134,-1.27187555598298,13.4564230759984,2.20893623927103,18.3101012961286,6.00895494345114,37.4580384044917,-1.09547435866611,13.437042050345,-3.82094871733226,2.76132320461092,-14.1659810099812,-107.341858183045,-3.33865737915039,10.5811967849731,1.29331064224243,-28.3500003814697,11.7600002288818,-141.294998168945,1206,0.223409384489059,-0.0620004422962666,-48.4051484119252,35.6559768922829,46.1229318152509,0.372577716719588,3.62082414575701,5.21292273535043,5.38610804858342,-61.6570026523221,16.8735476024416,0.442189693946799,0.0834005671831177,-1.6262463149568,-2.62388590304594,-2.8042212541331,8.2711415382396,11.2584728199456,0.629206837689027,18.4722804733584,-9.99882874403428,-102.817314345095,-1.27827675329981,15.0297512802635,1.92195333349362,0.942906614449908,-10.2063007397078,-84.4259073746087,1.23847841774505,20.5435139937609,-4.75342560838221,-210.741943374187,86.555476120034,82.9442878240541,91.1645469189527,0.0311781064969562,0.104192663139529
33.8,-6.29151674773548,-48.3654851726583,-35.860379001058,-0.187820687882711,-1.11138084130862,0.0632670930297302,0.331679692266944,-19.0268130742317,-75.8475499212637,-72.4699524170788,-0.178050143776054,-2.9885961591902,-3.7558428983003,-3.51215402653501,-1.00969393888396,14.0236429206838,2.23666698723342,19.3838507963561,6.06808897389845,40.0879466007011,-1.28454764022791,14.0118248262929,-4.19909528045587,2.10773655229853,-12.121188483461,-107.295173422166,-3.33865737915039,10.5811967849731,1.29331064224243,-28.3500003814697,11.7600002288818,-141.294998168945,1206,0.223409384489059,-0.0620004422962666,-47.8706702240575,28.6017368846671,45.3019908413017,0.409507843252793,3.33071082306973,5.08438061459503,5.27070488778843,-61.1776252187172,19.9484729189042,3.72070013413722,0.102759502797746,-1.55762283573191,-2.29809811423484,-2.46882654731188,8.4072743009641,11.6063676580194,0.578787295939216,15.493792729249,-9.53198113523971,-99.6800984139959,-0.564840237539953,16.1263763133219,1.82363522708149,1.90461268856672,-3.07286927732676,-72.182050754623,0.607529379790531,16.493364620211,-3.61349089983189,-114.178433899112,60.3322723405547,99.2676144655563,146.12184742625,0.0533834408949072,0.178399636775088
33.805,-7.1456213585815,-51.6214431358416,-38.647423481592,-0.17719244242438,-1.18792536247377,-0.193829430057318,0.0881563659892621,-20.4043999618443,-76.2093229214261,-73.307881931402,-0.16350095997583,-2.88977513851496,-3.65610718688133,-3.3954309186204,-0.747499819681214,14.5908898131897,2.2643990575337,20.4576514982192,6.12722582414599,42.7179802038151,-1.47362993772989,14.5866350106989,-4.57725987545983,1.45411873377317,-10.0762984512173,-107.248486435128,-3.33865737915039,10.5811967849731,1.29331064224243,-28.3500003814697,11.7600002288818,-141.294998168945,1206,0.223409384489059,-0.0620004422962666,-47.3361665496518,21.5471604963347,44.4810107208657,0.446439730795322,3.0405836663582,4.95583236432169,5.15107254130313,-60.6982249260481,23.0235448628675,6.99936690976421,0.122119361541248,-1.4889960842034,-1.9722947902662,-2.132301996098,8.54341355516553,11.954279085423,0.52836534993869,12.5151629562548,-9.06511126486444,-96.5427328850741,0.148630298367528,17.2230536388334,1.72531243238046,2.86636462153976,4.06090234200734,-59.937610287581,-0.0234497449046258,12.4430221157007,-2.47350183361106,-17.6103198029189,34.107818110273,115.591719483227,201.081768566826,0.0755898341519684,0.252610148962631
33.81,-7.62610610961914,-53.4531135559082,-41.3543333567182,-0.165425473797031,-1.28533222877468,-0.338461548089981,-0.0448004881061942,-21.1793746948242,-76.412841796875,-74.0592104147067,-0.156734328799534,-2.78936690491003,-3.59999990463257,-3.32350758490171,-0.431334698242156,15.0308169892025,2.21420857023627,21.0454835975892,6.19446022187578,45.2667338978434,-1.55009480465285,15.0762728861301,-4.89287387199417,1.38621010644294,-4.80713136675701,-107.138044635319,-3.59048570672408,10.7720018881263,1.39788100298603,-29.3087610994468,12.6936404641249,-155.79782236159,1176.81252934119,0.229154876253131,-0.0587511176347774,-47.0354763746262,17.578540802002,42.2795651106347,0.481726816176632,2.69216822245207,4.88351631164551,5.08291959004371,-60.4285336875916,24.7534561157227,10.2761652555059,0.159975831771863,-1.37999950113591,-1.78901100158691,-1.93764444588761,8.8520643158938,12.2588549110636,0.484449298419488,10.3373942509616,-7.81449008951922,-91.8788198288181,0.225827682437021,18.3555655677847,1.5886578686558,1.94389883511038,12.4586925918842,-49.0738377345927,-0.46837226694267,10.2174644987819,-1.89407276291099,34.1150425101762,16.9434446433455,114.11978033243,262.383678472693,0.0859596434004955,0.289614334051134
33.815,-7.62610610961914,-53.4531135559082,-43.9584719285927,-0.152192635452391,-1.4095821513034,-0.338461548089981,-0.0355337989435802,-21.1793746948242,-76.412841796875,-74.6992375096465,-0.159976613923895,-2.68690630606164,-3.59999990463257,-3.30940442608184,-0.0457194460382999,15.307037843618,2.06379127327734,21.008343524266,6.27211673882428,47.7112259965702,-1.48172330603514,15.4564184184445,-5.12807182723906,2.07161327777103,4.60956540582452,-106.945591528099,-4.16623450056201,11.2082348133774,1.63695759794023,-31.5007516998409,14.8281987344309,-188.955265833535,1110.08194669031,0.242290650075882,-0.0513222680980117,-47.0354763746262,17.578540802002,38.3023718394191,0.514902259912605,2.2687463872055,4.88351631164551,5.08192064621413,-60.4285336875916,24.7534561157227,13.5509177125046,0.221626140310033,-1.2190687341504,-1.78901100158691,-1.92605474053561,9.38262714516718,12.507727166032,0.448896119138284,9.18942834824461,-5.5556983574084,-85.2510049257784,-0.515319362578898,19.5342902039539,1.40268739241564,-1.40208413427946,22.4831360188453,-39.9846488813157,-0.674043630621774,10.3386403982905,-2.0355536887315,28.170824514247,11.4299671180497,89.7590151662888,331.84912106828,0.0811067721384551,0.278769043185274
33.82,-7.62610610961914,-53.4531135559082,-46.5624863283057,-0.138960428084213,-1.53382614926974,-0.338461548089981,-0.0291593517170063,-21.1793746948242,-76.412841796875,-75.3392340864146,-0.163218744447591,-2.58445059280351,-3.59999990463257,-3.29752576744269,0.339877419018303,15.5832455270982,1.91338114860988,20.971205221879,6.34976955290625,50.1556015354982,-1.41335506754993,15.8365458244223,-5.36325856762818,2.75698376727711,14.0258131655903,-106.753147597548,-4.74195584118643,11.6444469378977,1.87602279309494,-33.6926377803704,16.9626552233965,-222.111128271556,1043.35454592875,0.255425797550463,-0.0438937727882887,-47.0354763746262,17.578540802002,34.3253682112166,0.548076121756353,1.8453447418233,4.88351631164551,5.07548523540022,-60.4285336875916,24.7534561157227,16.8255140207116,0.283273509199693,-1.05814564076622,-1.78901100158691,-1.91465415960124,9.91316467581243,12.7565875541182,0.413344635125975,8.04151718355463,-3.29701433041546,-78.6235060543478,-1.25643106775861,20.7129586354389,1.21672578373586,-4.74790755841995,32.5071014540352,-30.8958934244174,-0.879705187350482,10.4598105198141,-2.17702786837017,22.2268899542321,5.91675248983215,65.3994115853644,401.311251369256,0.0762541322740527,0.267924269451346
33.825,-7.62610610961914,-53.4531135559082,-49.1666249001803,-0.125727589739573,-1.65807607179847,-0.338461548089981,-0.0261156594817543,-21.1793746948242,-76.412841796875,-75.9792611813544,-0.166461029571952,-2.48198999395512,-3.59999990463257,-3.28833058181637,0.725492671222159,15.8594663815138,1.76296385165095,20.9340651485558,6.42742606985475,52.600093634225,-1.34498356893223,16.2166913567367,-5.59845652287307,3.4423869386052,23.4425099381718,-106.560694490328,-5.31770463502436,12.0806798631488,2.11509938804913,-35.8846283807646,19.0972134937026,-255.268571743501,976.623963277868,0.268561571373215,-0.036464923251523,-47.0354763746262,17.578540802002,30.348174940001,0.581251565492326,1.42192290657673,4.88351631164551,5.06348337873736,-60.4285336875916,24.7534561157227,20.1002664777103,0.344923817737863,-0.897214873780716,-1.78901100158691,-1.90381266509147,10.4437275050858,13.0054598090866,0.37779145584477,6.89355128083763,-1.03822259830465,-71.9956911513081,-1.99757811277453,21.8916832716081,1.03075530749571,-8.09389052780979,42.5315448809963,-21.8067045711405,-1.08537655102959,10.5809864193228,-2.31850879419068,16.2826719583029,0.403274964536338,41.0386464192233,470.776693964843,0.0714012610120123,0.257078978585486
33.83,-8.45602594486745,-54.9022383062927,-50.9466529449367,-0.122627707650787,-1.81181104792088,-0.503589486739759,-0.191905250331455,-22.3889389559174,-81.0500400735557,-77.0891664060797,-0.157442901985517,-2.39590225177147,-3.38693161999752,-3.06913462469765,0.593891040505209,15.8008371157926,1.82492636538558,22.6090175107763,5.6914168020373,57.3348042897108,-0.709949060141087,16.6029564852731,-5.40965452168334,3.88432846730001,40.3747285735256,-107.451075929976,-5.55320136067405,12.6309809428797,2.24295385242996,-37.071900144104,20.0103465519999,-274.587620035757,933.320119394149,0.272923092587601,-0.0348762756573228,-46.9560159643561,14.2455542035623,26.5361331403079,0.595021782178206,1.02977089179717,4.47691100180029,4.63932896955567,-60.2872709500164,20.8408195400833,21.21262537166,0.403515658091569,-0.679833648665551,-1.73751949946678,-1.84237261989836,9.84906211455919,12.7752209038433,0.370000000000005,7.31022500455296,0.548929551848643,-66.9476275574998,-3.08704684493564,20.6554146726528,0.862758276185318,-8.92939272342546,36.6370881093734,-23.816832583237,-1.13044929504395,10.6075420379639,-2.34951424598694,14.9800004959106,-0.805000007152557,35.7000007629395,486,0.0703377574682236,0.254702240228653
33.835,-9.51893151951339,-56.7581799408005,-52.495485145138,-0.122371670879242,-1.97383103419858,-0.715074257998578,-0.408049308476616,-23.9380676083539,-86.9890521198792,-78.3310209309405,-0.144983072112279,-2.31440465074744,-3.11404807402095,-2.79347966176221,0.317113202427358,15.6482212985347,1.94650167743846,24.764608150012,4.72698958270521,62.7126037511519,0.084170531353311,16.9909628003355,-5.10183617840049,4.25796417810084,59.4173759539137,-108.645432817494,-5.69321332243564,13.2133313379735,2.33959921405349,-37.9772482125829,20.5807158154066,-290.02380144572,896.588854901574,0.274822195269661,-0.034926710779485,-46.8542484086807,9.97688886356363,22.7702118976419,0.603346340646954,0.646371484214647,3.956158234895,4.09564813666376,-60.1063511251355,15.8297774476065,21.7181293980141,0.461252650937768,-0.446595099166324,-1.67157264252244,-1.76766914343512,8.93854062854606,12.4104949676846,0.370000000000005,8.16607432501985,1.94766836664153,-62.3426472585698,-4.27434616902661,18.7412501850116,0.699795623859106,-9.06032489558644,26.274285702974,-28.9423481031972,-1.13044929504395,10.6075420379639,-2.34951424598694,14.9800004959106,-0.805000007152557,35.7000007629395,486,0.0703377574682236,0.254702240228653
33.84,-10.581786412032,-58.6140330791403,-54.0442434929552,-0.122115646316203,-2.13584329493812,-0.926548945108471,-0.628373927334086,-25.4871223942706,-92.9277809785217,-79.5728162409185,-0.13252383635643,-2.23291093574292,-2.84117753984802,-2.52137042649343,0.040348561843216,15.4956127583995,2.06807119246139,26.9200960050286,3.76260834979404,68.090146785001,0.878252257141459,17.3789506142385,-4.79403251270411,4.63158207297039,78.4591153308982,-109.83973275494,-5.83321860805944,13.7956539650722,2.43623996737254,-38.8825531116899,21.1510578821099,-305.459246818041,859.859341852089,0.276721207397521,-0.0349771434967682,-46.7524857055494,5.70842706473133,19.0044702239842,0.611670502178906,0.26299035812209,3.43543029884834,3.54692577424418,-59.9254399269867,10.8189742947679,22.2236093206096,0.51898689073262,-0.21336767109326,-1.60562893009732,-1.69442763138532,8.02806255858702,12.0457864226158,0.370000000000005,9.021882836345,3.3463404858968,-57.737886537186,-5.46158887956979,16.8271769697568,0.536840742019846,-9.19125082455782,15.9119774221901,-34.0676192251258,-1.13044929504395,10.6075420379639,-2.34951424598694,14.9800004959106,-0.805000007152557,35.7000007629395,486,0.0703377574682236,0.254702240228653
33.845,-11.644691986678,-60.469974713648,-55.5930756931565,-0.121859609544658,-2.29786328121582,-1.13803371636729,-0.852978329517764,-27.0362510467071,-98.8667930248452,-80.8146707657793,-0.120064006483192,-2.15141333471889,-2.56829399387146,-2.25283265079495,-0.236429276234635,15.3429969411416,2.18964650451427,29.0756866442643,2.79818113046196,73.4679462464421,1.67237184863586,17.7669569293009,-4.48621416942126,5.00521778377121,97.5017627112863,-111.034089642457,-5.97323056982103,14.378004360166,2.53288532899607,-39.7879011801689,21.7214271455167,-320.895428228004,823.128077359515,0.278620310079581,-0.0350275786189305,-46.6507181498741,1.43976172473271,15.2385489813181,0.619995060647654,-0.120409049460433,2.91467753194305,2.99356013538333,-59.7445201021057,5.80793220229104,22.7291133469637,0.576723883578819,0.0198708784059674,-1.53968207315298,-1.62288034627676,7.1175410725739,11.6810604864571,0.370000000000005,9.87773215681188,4.74507930068968,-53.132906238256,-6.64888820366076,14.9130124821155,0.373878089693634,-9.32218299671881,5.54917501579072,-39.193134745086,-1.13044929504395,10.6075420379639,-2.34951424598694,14.9800004959106,-0.805000007152557,35.7000007629395,486,0.0703377574682236,0.254702240228653
33.85,-12.3635318314913,-65.3233160926298,-57.3810842542643,-0.128240357539425,-2.44846740623949,-1.23617501239797,-0.968462456844548,-28.2102700630011,-107.086254795149,-84.6501115776241,-0.114841410788972,-2.08176486170758,-2.42588572408206,-2.11827464254053,0.0391557737522412,14.8602319490297,1.84942682763408,32.796730117865,7.99051653567797,81.9588124433471,2.46685504403865,17.9776237406654,-3.8196196718116,3.59434908491395,113.359901501674,-114.756949228965,-7.30281298774004,16.4158409428198,3.13949182113208,-40.6421048306349,23.0624466012555,-331.707020976848,777.463788419604,0.279449242436507,-0.0354001211001766,-46.6727013384999,0.573170681670803,12.473836670149,0.61540452815786,-0.226246335698642,2.49022100001019,2.53244267117935,-59.5452137638917,11.5856729029581,21.8883604254959,0.632329654175203,0.297650927036635,-1.43544318516046,-1.51495250084359,6.44636276146042,11.1241402414511,0.393371544824404,11.6443329397431,2.20965169895777,-54.2267093314275,-7.04448146478736,12.3801253548065,0.0678556896950933,-11.0703296276895,4.50220024012466,-40.8472582612215,-1.43327570005986,10.8073737656597,-2.20453820036359,11.9779254450864,-1.72934465677888,22.2029336268521,529.93850426986,0.0756114159028849,0.24582533624713
33.855,-13.0503788405666,-70.4559490684325,-59.1914517931746,-0.135239280063284,-2.59801663816571,-1.32376987603556,-1.07744342857599,-29.3494299815035,-115.518440186448,-88.7271984957688,-0.110292282785553,-2.01321583587675,-2.29561643969795,-1.99914724679619,0.366176617491194,14.3467070303458,1.46619927637749,36.6637011288986,13.7562775537607,90.7399276918933,3.26141350031066,18.1717923666354,-3.11959067818291,2.01728097274691,128.922409632538,-118.715390190504,-8.74320606070805,18.5892801404105,3.79360403052571,-41.4915917895753,24.4752785283501,-342.08865783536,730.96551220047,0.280178592032508,-0.0358026691214698,-46.70620607065,0.023245685170582,9.80218635738193,0.609611444561241,-0.306249891864674,2.07470690326778,2.0768963356953,-59.3441853709916,18.3680809900862,20.922235825022,0.68773992009775,0.579591981531123,-1.32763412222189,-1.40555890346327,5.79743077466591,10.5492989145662,0.418920048241516,13.4958109034272,-0.692153627429609,-55.8510894869596,-7.36639260784289,9.78950710831192,-0.251500603018735,-12.9691196347386,4.32241447533762,-42.1783037478905,-1.7643090785323,11.025818956863,-2.04605826141062,8.69622005202488,-2.73978802357395,7.44867290347328,577.96969069402,0.0813762928740455,0.236121586948172
33.86,-13.7371930989738,-75.5883373068246,-61.0017330090093,-0.142237868860149,-2.74755873919207,-1.41136056292016,-1.19014656193538,-30.4885355818713,-123.950223509018,-92.8040910077091,-0.105743371696497,-1.94467007864338,-2.16535336689521,-1.88297688528629,0.693181868018067,13.8332065978779,1.0829899984163,40.5304877526057,19.5217636452262,99.5206242338188,4.05593406995019,18.3659517341357,-2.41959506377382,0.440288059326394,144.484175702172,-122.67364240319,-10.1835304519541,20.7626157027162,4.44768505013252,-42.341038242748,25.8880430879105,-352.469799670181,684.469453141179,0.280907906851206,-0.036205197948217,-46.7397092052064,-0.526653089462554,7.13066343591336,0.603818637194051,-0.386249633251182,1.659212619328,1.61876289408261,-59.1431665636529,25.1501656741966,19.9561572919047,0.743147543913395,0.861519592336191,-1.21983019990238,-1.29844870029869,5.14852973065163,9.97448499762445,0.444467333438934,15.3472005837829,-3.59382058812338,-57.4753921877827,-7.68828840133029,7.1990123892943,-0.570841667986391,-14.8678191024969,4.14263728320768,-43.5092857668174,-2.09532667246448,11.2442537320263,-1.88758587919706,5.41467113928916,-3.75018320977742,-7.30488429803244,625.998586865155,0.0871408949607425,0.226418300349447
33.865,-14.4242352157965,-80.7222508123366,-62.8135715649331,-0.149232451617396,-2.89706247041392,-1.49898387704114,-1.30615588568683,-31.627944544193,-132.382488306515,-96.8834355492856,-0.101193564299167,-1.87612527402005,-2.0351205036373,-1.76932983276653,1.01972266397733,13.3194974335105,0.699941171146699,44.3973588550473,25.2837804597542,108.303266529743,4.85019161397931,18.559853768279,-1.71957475143196,-1.13695414509967,160.030006625928,-126.631376856948,-11.6230306625366,22.9347076416016,5.10139179229736,-43.189998626709,27.2999992370605,-362.845001220703,638,0.28163680434227,-0.0366074964404106,-46.7731931686401,-1.07551361539989,4.45981845240123,0.598025411280077,-0.465939053545685,1.24371671006687,1.15885225809484,-58.9419725551336,31.9316256605635,18.9918263075228,0.798555691751269,1.14353917680444,-1.11193281198365,-1.19367815242265,4.4998756189959,9.39982183261573,0.469816790142639,17.1989606024662,-6.49167944045308,-59.1022266852659,-8.00990083136159,4.60940834981835,-0.890030254838821,-16.7673121319605,3.9680116613776,-44.835582174195,-2.42624341528026,11.4621508899696,-1.72917157044359,2.1348235039114,-4.75873540848,-22.0490638585241,674.017648655987,0.0929062674289374,0.216717501696579
33.87,-15.4257882873493,-87.9203304764606,-66.9968295340068,-0.149230329212319,-2.97320493519436,-1.63246957063999,-1.4707188901125,-33.168796139578,-140.94236604328,-104.602221983334,-0.0955486863088684,-1.81438897390465,-1.96361031063792,-1.71634079220909,0.572336992358702,12.5087803679712,0.605041180197301,48.1029775492623,25.0092901861086,119.547325422126,5.15929444164309,18.3239595050619,-1.03358338828338,-2.99478465574944,148.68887190506,-129.449923325357,-11.6230306625366,22.9347076416016,5.10139179229736,-43.189998626709,27.2999992370605,-362.845001220703,638,0.28163680434227,-0.0366074964404106,-46.7731931686401,0.0917423925985105,3.08741551600807,0.59200302412386,-0.0391893055600077,0.857561631507137,0.727383331523521,-58.4737902746934,37.1842779551383,20.9191264717659,0.85054651913097,1.5521477168252,-0.861647108203416,-0.949086173373347,4.29922992384572,9.11241043145467,0.174271104043048,19.5053483895611,-3.02707659626838,-64.6857605442998,-7.84992656090402,3.65498558369859,-0.938835964469947,-19.8000949115077,12.1123389269828,-38.5055686685397,-2.56910975107976,10.7965237038689,-1.67657079698258,1.85012354399228,-2.71838551256406,-20.5401543747865,702.487645940809,0.0994701824622126,0.21177406118576
33.875,-16.4273891178583,-95.1187533802806,-71.1802869813107,-0.149228206706036,-3.04935103082048,-1.76596162949054,-1.63727960927924,-34.7097212103145,-149.502651956942,-112.321376486928,-0.0899035391431375,-1.75264972990007,-1.89209670768227,-1.66464821132701,0.12492998719987,11.6980246434713,0.510136663951496,51.8087729455274,24.7347868234223,130.791920486312,5.46841200884374,18.0880539932508,-0.347559313706488,-4.85270375685797,137.347196383338,-132.268604195868,-11.6230306625366,22.9347076416016,5.10139179229736,-43.189998626709,27.2999992370605,-362.845001220703,638,0.28163680434227,-0.0366074964404106,-46.7731931686401,1.25905406108082,1.71494713672061,0.585980349790725,0.387580791943956,0.471388139181791,0.295896122090883,-58.0055856690288,42.437180721903,22.8465185391211,0.90253982568798,1.9607757413026,-0.611349469574882,-0.707157135432158,4.098574660926,8.8249853251102,-0.121288675122496,21.8118461565229,0.437691457150233,-70.2695606535773,-7.68994466208966,2.70051730602639,-0.987644001396367,-22.833022308993,20.2570545540045,-32.1752533168347,-2.71198289944594,10.1308647774035,-1.62396751525905,1.56541000818455,-0.677938322771059,-19.0311729388538,730.959000814553,0.106034410495108,0.206830384947484
33.88,-17.428942189411,-102.316833044405,-75.3635449503844,-0.149226084300959,-3.12549349560091,-1.89944732308938,-1.80502499899679,-36.2505728056995,-158.062529693706,-120.040162920976,-0.0842586611528389,-1.69091342978467,-1.82058651468289,-1.61357281610047,-0.322455684418758,10.8873075779321,0.415236673002098,55.5143916397423,24.4602965497767,142.035979378695,5.77751483650752,17.8521597300337,0.338432049442093,-6.71053426750774,126.006061662471,-135.087150664277,-11.6230306625366,22.9347076416016,5.10139179229736,-43.189998626709,27.2999992370605,-362.845001220703,638,0.28163680434227,-0.0366074964404106,-46.7731931686401,2.42631006907922,0.342544200327452,0.579957962634509,0.814330539929634,0.0852330606220524,-0.134672455145673,-57.5374033885885,47.6898330164778,24.7738187033642,0.95453065306768,2.36938428132336,-0.361063765794651,-0.467989936335387,3.89792896577582,8.53757392394914,-0.416834361222087,24.1182339436178,3.90229430133494,-75.8530945126112,-7.52997039163209,1.74609453990663,-1.03644971102749,-25.8658050885402,28.4013818196097,-25.8452398111794,-2.85484923524544,9.46523759130279,-1.57136674179804,1.28071004826543,1.36241157314488,-17.5222634551163,759.428998099376,0.112598325528383,0.201886944436665
33.885,-18.474517792149,-109.370356745468,-80.1427749211203,-0.149319250902908,-3.16500779329371,-2.050471229966,-1.99062165666743,-37.8055490139789,-165.198654854442,-127.791957001611,-0.0759021401892245,-1.63019110416098,-1.76236491802859,-1.57569402399891,-0.618897007233926,10.2530721215494,0.356344567294919,58.2095724786311,24.659328495182,153.648542267217,5.65135872063485,17.661449447173,0.782242518084824,-8.18249519933404,108.729252296838,-136.70746299328,-11.8479220106961,23.6840290197589,5.19446339571591,-42.1463174700659,28.5130013540707,-362.498032696763,623.010959765805,0.281478412010794,-0.0365444579942286,-46.7125238028115,5.73240668797935,-0.0873182376137115,0.575523027920916,1.32421859789414,-0.233207379756355,-0.495746188801685,-57.0300882684007,53.2353136395196,27.7140520879544,0.998070955871911,2.81838978657397,-0.103254752588146,-0.224081947930933,3.84565165848111,8.34634456729488,-0.57479495802386,25.8476313877083,6.76664686363958,-80.6097537226256,-7.44855055282705,1.56504947620543,-1.0279672416713,-26.493716645863,33.4350593627846,-20.2895342943327,-2.90994235285799,9.05591381375161,-1.61384363702867,0.818528201172637,3.09531411776117,-11.7495742682302,796.526867152155,0.118624692207243,0.196630410167053
33.89,-19.6167351328313,-116.104940195282,-86.2317597951501,-0.149621934460119,-3.12397432237256,-2.24003690906738,-2.21414510318094,-39.3913466748632,-169.202999468929,-135.615149257826,-0.0615842573308027,-1.57170767094092,-1.73337252004838,-1.56626062698319,-0.583381317591271,10.0069991290252,0.37663924709072,58.6824886281938,25.8995589271479,166.069637957056,4.56813018653378,17.5701233880918,0.693453293978172,-8.80574231034718,78.4031127192484,-135.69272900349,-12.5672930391055,26.080920206662,5.49217611616898,-38.8078431662279,32.3930909507485,-361.38816739543,575.064778748216,0.280971754661283,-0.0363428138125807,-46.5184577151375,13.7410994249607,1.5554388619866,0.574579421661806,2.01684185851221,-0.402701410058124,-0.705252693986768,-56.4368012594575,59.4238491287233,32.8811776432492,1.02302274394417,3.35615576242377,0.171057954894743,0.0335681993515361,4.11962983572447,8.36663924709069,-0.430195364478753,26.3080199571502,8.31067111353646,-83.5474712609689,-7.53987661190816,3.08461362591632,-0.893514988024099,-21.8334568409005,31.6279559303495,-16.4373034071661,-2.77202238223065,9.21023848974347,-1.86538050708592,-0.0338483841215658,4.15190581447014,3.39786713210941,852.590920088065,0.123468123644502,0.190686215267101
33.895,-20.7590069400312,-122.839844783022,-92.3210350218037,-0.149924632450765,-3.08293889477453,-2.42961162758886,-2.43611628151878,-40.9772199543475,-173.207535030182,-143.438714562168,-0.0472656917255944,-1.5132214489443,-1.70437873956862,-1.55539911981475,-0.547863934386571,9.76091440253551,0.39693489463626,59.155427328715,27.1398484993756,178.49132594558,3.48484999879033,17.4787929741369,0.604659835966408,-9.42901914083537,48.0755270427808,-134.677946626212,-13.2866983706492,28.4779256890774,5.78990303302283,-35.4692096675826,36.2733655691037,-360.278249170283,527.116311421866,0.280465073151869,-0.0361411600155506,-46.3243823734418,21.7501740556399,3.19827429629195,0.573635770406928,2.70949814679995,-0.572203522665472,-0.911362319611287,-55.8434859596836,65.6126797176119,38.0485495924001,1.04797572183991,3.89394738158938,0.445383742951161,0.288556656999074,4.39362107758932,8.38693489463625,-0.285588875716748,26.7684304801741,9.85476899007251,-86.485328884074,-7.6312070258631,4.60425023588898,-0.759056323034872,-17.1729748119235,29.8207663263712,-12.5848888267618,-2.63409583490356,9.36457052469179,-2.11692937165322,-0.88626561490646,5.2085478946466,18.5460308366501,908.657646432633,0.128311786040297,0.18474173691882
33.9,-21.9012242807135,-129.574428232836,-98.4100198958335,-0.150227316007976,-3.04190542385338,-2.61917730669024,-2.65558737310793,-42.5630176152318,-177.21187964467,-151.261906818383,-0.0329478088671725,-1.45473801572424,-1.67538634158841,-1.54255287236754,-0.512348244743916,9.51484141001138,0.417229574432061,59.6283434782777,28.3800789313415,190.912421635419,2.40162146468926,17.3874669150558,0.515870611859756,-10.0522662518485,17.7493874651916,-133.663212636422,-14.0060693990586,30.8748168759806,6.0876157534759,-32.1307353637446,40.1534551657815,-359.16838386895,479.170130404277,0.279958415802358,-0.0359395158339028,-46.1303162857677,29.7588667926212,4.84103139589226,0.572692164147818,3.40212140741802,-0.741697552967241,-1.11334577494462,-55.2501989507404,71.8012152068156,43.215675147695,1.07292750991217,4.43171335743918,0.71969645043405,0.54102203628322,4.66759925483268,8.40722957443206,-0.140989282171641,27.228819049616,11.3987932399694,-89.4230464224174,-7.72253308494421,6.12381438559987,-0.624604069387672,-12.5127150069609,28.0136628939361,-8.73265793959511,-2.49617586427622,9.51889520068364,-2.36846624171048,-1.73864220020066,6.26513959135557,33.6934722369897,964.721699368543,0.133155217477557,0.178797542018868
33.905,-23.1731640268708,-133.379790212845,-104.46987650093,-0.150192931012892,-2.95878932341121,-2.80556636253141,-2.86851426083765,-44.3314082640943,-181.244923253735,-158.52707678909,-0.0187404131944058,-1.39043485256207,-1.64919624846333,-1.53007957562845,-0.330305856216585,9.45039291157553,0.506331791997113,59.919726137752,29.0079790380825,200.521373801621,1.28310092738501,17.2918341040014,0.381659476634531,-9.96830071268862,-5.36939543454486,-132.791579322686,-14.0632733826192,31.1307699617322,6.06230740505176,-33.0672024925949,43.1715069088625,-353.379876668937,431.624473663817,0.278873367420554,-0.0353528148734065,-45.7469671372384,39.482390627514,8.35209118680033,0.569486556255749,4.10754198284424,-0.700897527387408,-1.10028677967174,-54.5673448135276,75.6232882980067,48.5513584913566,1.09780899051726,5.02001298933529,1.07243129799556,0.869653522921651,4.85606985094674,8.56061119578416,-0.138384180207187,27.5507574170228,12.1062593941621,-92.4991629967046,-7.60925783369066,7.10310041073595,-0.461659476634566,-8.94538860457248,26.0817303659821,-4.87401099186726,-2.40938973426819,9.61600399017334,-2.52674579620361,-2.27500009536743,6.92999982833862,43.2249984741211,1000,0.136202946305275,0.175057157874107
33.91,-24.6650812579691,-132.213725768274,-110.479522651622,-0.149586539558046,-2.80426899675262,-2.9865406666239,-3.07187226015716,-46.4094348027088,-185.326150876279,-164.844339448899,-0.00472234317719155,-1.31626378132984,-1.62776508087343,-1.51963759254402,0.100371341479169,9.69417245744104,0.712190075172435,59.9030060042907,28.5966637549349,205.356836398625,0.104833122368338,17.1889049624138,0.170383870217757,-8.68419446286203,-16.2542023178406,-132.162902304542,-12.996761634723,27.7534829322728,5.48883024019819,-41.2581951716799,44.7262781005278,-339.65238155897,384.764627625223,0.276806919474224,-0.0341127416710478,-45.0424508176831,52.114760610067,15.0332398736326,0.562442706601767,4.83458909448869,-0.303230274262817,-0.725073722898523,-53.7325816008893,75.4289442239115,54.172401003221,1.12256795841434,5.69399341155488,1.55820444617819,1.32941940443428,4.89940843687839,8.93982382268607,-0.376746402831246,27.6377021110215,11.3939817087114,-95.8097494220388,-7.14878535816691,7.1653996280127,-0.250383870217777,-7.23324693813702,23.9382092562455,-1.00497210892621,-2.40938973426819,9.61600399017334,-2.52674579620361,-2.27500009536743,6.92999982833862,43.2249984741211,1000,0.136202946305275,0.175057157874107
33.915,-26.1570696309886,-131.047605720038,-116.48945537168,-0.148980119187485,-2.64974130180797,-3.16752360045767,-3.27042329272479,-48.4875604318072,-189.407573111748,-171.161903346736,0.00929639529026428,-1.24208917325762,-1.60633289134049,-1.50633682709484,0.531069075973249,9.93796362790938,0.918058174679033,59.8862850735316,28.1853288582599,210.19252957417,-1.07349086822866,17.0859709126605,-0.0409018108547987,-7.40002698055964,-27.1395282420443,-131.534195307998,-11.9301990303226,24.3760348572253,4.9153257291444,-49.4495784374169,46.281123431299,-325.924231854797,337.902547079641,0.274740372989533,-0.0328726093359246,-44.3379009033388,64.7477329658965,21.7147071503598,0.555398521062532,5.56167087530063,0.0944559415842537,-0.344114779905911,-52.8977785826521,75.2345908825388,59.7937115539253,1.14732810694028,6.36800597246228,2.04400075840394,1.78776039324551,4.9427490894061,9.31905453230348,-0.615119991733624,27.724650950969,10.6816700583718,-99.1204937123496,-6.68829092506004,7.22770181602128,-0.0390981891452057,-5.5210236284005,21.794585932923,2.86425126874007,-2.40938973426819,9.61600399017334,-2.52674579620361,-2.27500009536743,6.92999982833862,43.2249984741211,1000,0.136202946305275,0.175057157874107
33.92,-27.6490580040081,-129.881485671802,-122.499388091737,-0.148373698816924,-2.49521360686333,-3.34850653429143,-3.46365391924999,-50.5656860609055,-193.488995347217,-177.479467244572,0.0233151337577201,-1.1679145651854,-1.58490070180754,-1.49023192952667,0.961766810467329,10.1817547983777,1.12392627418563,59.8695641427725,27.7739939615849,215.028222749715,-2.25181485882565,16.9830368629072,-0.252187491927355,-6.11585949825726,-38.0248541662481,-130.905488311454,-10.8636364259222,20.9985867821777,4.34182121809061,-57.6409617031539,47.8359687620703,-312.196082150624,291.04046653406,0.272673826504843,-0.0316324770008015,-43.6333509889946,77.380705321726,28.396174427087,0.548354335523297,6.28875265611258,0.492142157431325,0.0429085391373095,-52.062975564415,75.0402375411662,65.4150221046295,1.17208825546622,7.04201853336968,2.5297970706297,2.24521391562494,4.98608974193382,9.6982852419209,-0.853493580636002,27.8115997909166,9.96935840803219,-102.43123800266,-6.22779649195317,7.29000400402986,0.172187491927366,-3.80880031866399,19.6509626096006,6.73347464640635,-2.40938973426819,9.61600399017334,-2.52674579620361,-2.27500009536743,6.92999982833862,43.2249984741211,1000,0.136202946305275,0.175057157874107
33.925,-28.8284531715484,-125.010715465816,-125.275228387331,-0.146376194164406,-2.31647143836671,-3.39242622121073,-3.51417881558469,-52.4380614905515,-195.569763372391,-182.019271643054,0.0225019914375424,-1.09220013428424,-1.54339131051273,-1.45148968930705,1.72132582235189,10.6270656875566,1.09868121919324,57.7641529468307,26.5455309784519,218.996403471842,-4.0928910572377,16.5686097978071,-0.563516748818022,-4.86147529684397,-42.3143248872049,-132.998278733416,-11.1881732130036,21.9284386323523,4.51798263093545,-67.8154391162221,62.1223444219639,-273.403114839958,233.205512523891,0.223305323344339,-0.0256417243799631,-42.6949446898329,90.2998123230343,38.0750647031787,0.537502275913088,6.87497764456373,1.14553713260696,0.691937201464686,-51.2745318833199,77.9327032006539,69.5629362442282,1.1845225231649,7.6802908018552,3.03044709175025,2.71729451228892,5.32767327230661,9.91131878080675,-0.972973543909072,28.6507865542503,4.45526010871551,-107.154536456451,-6.32888844180665,7.73078261744292,0.279392415249979,-3.53115976856041,20.3954144265984,10.2698836716876,-2.27215975641113,9.62758281664786,-2.39380423781162,-3.20251238733431,5.81447827963507,42.7925777076512,1009.31093451363,0.135745019936283,0.173930460015853
33.93,-29.8601737975921,-118.388479600981,-126.522564450569,-0.143721007924352,-2.12627095781624,-3.37156158261778,-3.49415641588427,-54.2133138712449,-196.705003116563,-185.719078893659,0.0146780202743955,-1.01575253892434,-1.49238886061886,-1.40112483327131,2.63638517251786,11.1676627099889,0.964191228246657,54.6713063866938,24.9307395112646,222.554804829978,-6.24736797102907,16.0069163062066,-0.922156724675585,-3.62108104483117,-43.4863509520989,-136.37762055386,-12.1702812459313,24.8943414409903,5.04851044091333,-78.9280050955192,82.4276959962522,-222.759720543575,170.179810884217,0.151574542172034,-0.017405015586669,-41.645932651029,103.355077428677,49.1714643261103,0.524849538463599,7.394663247875,1.91984706944101,1.46830285230116,-50.5079460852742,82.2844575652293,73.0146928466772,1.1911314348537,8.30171407904696,3.53815336038428,3.19695505340548,5.8102550045267,10.0458087717533,-1.03626295141335,29.8456020148506,-3.32894633895538,-112.545856354963,-6.69543959360226,8.35049139925562,0.337407705462223,-3.9316020073992,22.5050613434076,13.649225492132,-2.07005392104468,9.64463556586299,-2.19801418425847,-4.56850872070014,4.17159078529442,42.1557288091675,1023.02363947289,0.135070607590041,0.172271112580227
33.935,-30.8918452284886,-111.766559501731,-127.76984103755,-0.141065948290545,-1.93607954652385,-3.35069793890556,-3.46846334070356,-55.9884816032458,-197.840188729524,-189.418709727745,0.00685442217872733,-0.939308588786421,-1.44138884265566,-1.34923514247558,3.55140089025249,11.7082339553365,0.829707650135805,51.5786073015979,23.3160250415724,226.113036514199,-8.40174215370688,15.445249597626,-1.28077959963787,-2.38074593807166,-44.6583211317142,-139.756801238418,-13.1523424493704,27.8601028275986,5.57901295393289,-90.040041198506,102.732079358087,-172.118741057142,107.157114475405,0.0798471813116284,-0.00916869954126698,-40.5969706318722,116.409720025016,60.2673348435859,0.512197404329839,7.91432407121281,2.69412008514513,2.25107127604945,-49.7413968400511,86.6360044267357,76.4662848603124,1.19774003141225,8.92310772514597,4.04583542025098,3.67793756650875,6.29281372598329,10.1802923498642,-1.09954934111258,31.0403605035139,-11.1127816152336,-117.936919181194,-7.06197326727695,8.97017063172721,0.395420229353172,-4.33202515210109,24.6146076667151,17.0284061766894,-1.86795772261488,9.66168750195829,-2.00223346648892,-5.9344399197758,2.52878162814118,41.5189102773107,1036.73569057439,0.134396227401549,0.170611844266641
33.94,-31.9235658545322,-105.144323636895,-129.017177100787,-0.138410762050491,-1.74587906597338,-3.32983330031262,-3.43740125778998,-57.7637339839392,-198.975428473696,-193.11851697835,-0.000969548984419561,-0.862860993426522,-1.39038639276179,-1.29656368108292,4.46646024041846,12.2488309777688,0.695217659189223,48.485760741461,21.7012335743852,229.671437872336,-10.5562190674983,14.8835561060255,-1.63941957549543,-1.14035168605886,-45.8303471966082,-143.136143058862,-14.1344504822981,30.8260056362367,6.10954076391077,-101.152607177803,123.037430932375,-121.475346760759,44.1314128357308,0.00811640013932295,-0.000931990747972866,-39.5479585930683,129.464985130658,71.3637344665175,0.49954466688035,8.43400967452407,3.46843002197917,3.04022525260168,-48.9748110420053,90.9877587913112,79.9180414627614,1.20434894310106,9.54453100233772,4.55354168888501,4.1611612422777,6.77539545820338,10.3147823408108,-1.16283874861685,32.2351759641142,-18.8969880629045,-123.328239079706,-7.42852441907255,9.58987941353991,0.453435519565417,-4.73246739093987,26.7242545835243,20.4077479971337,-1.66585188724843,9.67874025117343,-1.80644341293577,-7.30043625314163,0.885894133800527,40.8820613788271,1050.44839553365,0.133721815055307,0.168952496831015
33.945,-32.0403059387207,-104.395011901855,-126.421733738772,-0.135050815379154,-1.63680308778625,-3.327472448349,-3.41998152959196,-57.9646053314209,-199.103881835938,-194.945767488715,-0.00382383153726824,-0.77047402379681,-1.38461542129517,-1.28920143754115,4.92658617090988,12.2129543965245,0.607780016018259,48.1580925876487,18.3867568674581,226.496510052756,-11.440952357838,14.2986619906317,-1.71610999199087,-3.25687449942965,-35.3835154637847,-148.631314452412,-14.2455768585205,31.161600112915,6.1695704460144,-102.410003662109,125.334999084473,-115.745002746582,37,0,0,-39.42926197052,130.942199707031,82.0593847772461,0.4863638220049,8.67856796818214,3.55604386329651,3.14883086621241,-48.8880711936951,91.4801635742188,82.0814910784993,1.19461138997755,10.017374638902,4.61098909378052,4.19723231013881,7.38293425236025,11.0860529573089,-0.811156954590694,33.3622806441938,-27.913671034981,-129.697480975705,-7.76113681042644,9.95790743392474,0.378752518020522,-5.25701532580481,21.2789827421772,22.4312334323013,-1.66946920003399,9.64823814741868,-1.73239912972405,-7.81045761431976,0.865880280467656,40.1227826405315,1056.96512389875,0.131877014688377,0.166703850365066
33.95,-32.0403059387207,-104.395011901855,-123.335833821241,-0.131600764586401,-1.53807227403241,-3.327472448349,-3.40075157873472,-57.9646053314209,-199.103881835938,-196.534188560748,-0.00604416330026399,-0.67604831225335,-1.38461542129517,-1.2886089143802,5.32868990122077,12.1035211028323,0.526341285828712,48.183227998201,14.8552316848557,222.462276659107,-12.1637210882703,13.7107761570759,-1.75682935708564,-5.80183481785307,-23.4536212303851,-154.396749247852,-14.2455768585205,31.161600112915,6.1695704460144,-102.410003662109,125.334999084473,-115.745002746582,37,0,0,-39.42926197052,130.942199707031,92.7044768307671,0.473114884874008,8.88803471718415,3.55604386329651,3.17565851101838,-48.8880711936951,91.4801635742188,84.0806763093651,1.18278759647589,10.4712857750054,4.61098909378052,4.17983558516139,8.00644953037398,11.9386146639808,-0.406508263961363,34.4808064137725,-37.0880958865814,-136.191842677163,-8.08943669150305,10.2938421959566,0.28713394655729,-5.7974266526799,14.869453051333,24.2818280342166,-1.69933582177091,9.61166667232287,-1.67388493946518,-8.21128881593018,1.05293488268152,39.3478417187424,1062.56403659928,0.129882780211679,0.164379891755584
33.955,-32.0403059387207,-104.395011901855,-120.250081047516,-0.128150878301124,-1.43934616802287,-3.327472448349,-3.37819679784146,-57.9646053314209,-199.103881835938,-198.122533892696,-0.00826438919201413,-0.581627103175633,-1.38461542129517,-1.28994872848379,5.7307744581705,11.9940930272068,0.444906438851552,48.208362210231,11.3238748946424,218.428235628294,-12.8864553551926,13.1229183554595,-1.79754678057421,-8.34667378588938,-11.5242958456519,-160.161909132231,-14.2455768585205,31.161600112915,6.1695704460144,-102.410003662109,125.334999084473,-115.745002746582,37,0,0,-39.42926197052,130.942199707031,103.349061298361,0.459866579487211,9.09749147826183,3.55604386329651,3.20789860201249,-48.8880711936951,91.4801635742188,86.0797662138325,1.17096436676374,10.9251752674345,4.61098909378052,4.16723842593016,8.62993507754287,12.7911357182729,-0.00187886804358156,35.5992788491069,-46.2620832775271,-142.685894710412,-8.41772091837973,10.6297609397374,0.195519743707994,-6.33781221132464,8.46022898368602,26.1323343949245,-1.72920101938892,9.57509694105097,-1.61537353931647,-8.61210090485695,1.23998056564103,38.5729377481702,1068.16268232896,0.127888640825316,0.162056043958547
33.96,-32.0403059387207,-104.395011901855,-117.164181129985,-0.124700827508371,-1.34061535426903,-3.327472448349,-3.35328427289405,-57.9646053314209,-199.103881835938,-199.710954964729,-0.0104847209550099,-0.487201391632173,-1.38461542129517,-1.29411291863942,6.1328781884814,11.8846597335145,0.363467708662004,48.2334976207834,7.79234971204002,214.394002234645,-13.6092240856248,12.5350325219037,-1.83826614566898,-10.8916341043128,0.405598387747735,-165.927343927672,-14.2455768585205,31.161600112915,6.1695704460144,-102.410003662109,125.334999084473,-115.745002746582,37,0,0,-39.42926197052,130.942199707031,113.994153351882,0.446617642356319,9.30695822726384,3.55604386329651,3.24501696064477,-48.8880711936951,91.4801635742188,88.0789514446983,1.15914057326208,11.3790864035379,4.61098909378052,4.16016912932576,9.25345035555661,13.6436974249448,0.40276982258575,36.7178046186856,-55.4365081291276,-149.18025641187,-8.74602079945634,10.9656957017693,0.103901172244762,-6.87822353819973,2.05069929284185,27.9829289968398,-1.75906764112583,9.53852546595516,-1.5568593490576,-9.01293210646737,1.42703516785489,37.7979968263811,1073.76159502949,0.125894406348618,0.159732085349065
33.965,-32.706150760164,-98.8005286270869,-113.929683219374,-0.120644136558031,-1.35981847347026,-3.21110106690847,-3.21069039554626,-59.4706835460512,-195.72117269165,-199.335569691722,-0.00905062975194081,-0.407779674853088,-1.36548587914056,-1.28276934375866,5.64771000225783,11.8564268232107,0.651944727929571,45.1093870087443,6.0950555402245,208.197965931612,-13.3788817340257,11.9768835403025,-1.68949433280648,-13.9304167537749,7.04305394579496,-165.286326874779,-14.2455768585205,31.161600112915,6.1695704460144,-102.410003662109,125.334999084473,-115.745002746582,37,0,0,-38.3076294654076,130.81209412572,118.199355467021,0.425555751244367,9.23286933069578,4.17615994127428,3.90648809278672,-47.9289368160133,97.9853762339878,90.0583585719775,1.11974912100784,11.5889716380158,5.08763356236578,4.63587221227289,7.84203621585006,13.3100824565365,0.195148159855512,35.2117963255647,-47.9895829117294,-154.113220106537,-8.83071953036802,11.3027711898849,0.074613501919184,-7.93326063626657,-7.6022422362153,33.1099253238336,-1.74687627164363,9.64119871985753,-1.55523635223881,-9.2902114143897,0.0260494003448779,33.6841199753349,1082.34127794084,0.123516413737135,0.156327027897717
33.97,-33.4016432193387,-92.9569434473654,-110.688415087341,-0.116560262304989,-1.38426784255933,-3.08954809292845,-3.06269045196462,-61.0438219222454,-192.187843865373,-198.872822407987,-0.00745393102820739,-0.32902132821086,-1.34550456834932,-1.27485035382038,5.12305486565815,11.8318040189659,0.956888688191484,41.8450532266292,4.47925708503716,201.905471513509,-13.1061368254685,11.4200293519982,-1.53228719801308,-16.9913142615032,13.4454507190264,-164.360341074121,-14.2455768585205,31.161600112915,6.1695704460144,-102.410003662109,125.334999084473,-115.745002746582,37,0,0,-37.1360547618905,130.676195418116,122.118342993413,0.404145317957088,9.1461651696397,4.82388752307276,4.59906549354604,-46.9270956879756,104.780242251553,92.0369846234833,1.07912959271423,11.788013897849,5.58550126807204,5.13936580831068,6.34004515692029,12.9236938360804,-0.0397155114021098,33.588982826433,-39.8030266286457,-158.976983907969,-8.90458794310227,11.6399142018514,0.0480966358094445,-9.01123905571862,-17.3999202785234,38.3829000220209,-1.73281370096967,9.7500702114454,-1.5561435981108,-9.56200937149244,-1.44563668771155,29.4215339071515,1091.05396251976,0.121121234453325,0.152873717317411
33.975,-34.0971025156076,-87.1136369051215,-107.447301507478,-0.112476582781789,-1.40871604583832,-2.96800091491324,-2.91555160358503,-62.6168852870732,-188.654683517487,-198.410097189257,-0.00585730843925957,-0.250266736973298,-1.32552421031942,-1.27168060732685,4.59842474599231,11.8071823888011,1.26181810792506,38.580875096516,2.86353567536075,195.613277138055,-12.8334049221043,10.863201715963,-1.37508755926844,-20.0520658176051,19.8475422091769,-163.434399426897,-14.2455768585205,31.161600112915,6.1695704460144,-102.410003662109,125.334999084473,-115.745002746582,37,0,0,-35.9645359221299,130.540303190519,126.037143652195,0.38273590557546,9.05946514286557,5.47158421952021,5.29427609514285,-45.9253023303521,111.574784272074,94.0155163289063,1.03851200126633,11.9870466668248,6.08334523413945,5.64965561600123,4.83812571686611,12.5373236396478,-0.274567983743498,31.9662467073079,-31.6168607020507,-163.840515792379,-8.97845283359673,11.9770411379544,0.0215810340934734,-10.0891660743305,-27.197131141829,43.655623290936,-1.71875180083598,9.85893651175483,-1.55705080072291,-9.83379436855527,-2.91725260191293,25.1591510902589,1099.766231655,0.118726169377949,0.149420571400016
33.98,-34.7925949747822,-81.2700517254001,-104.206033375445,-0.108392708528746,-1.43316541492739,-2.84644794093322,-2.77029452235227,-64.1900236632674,-185.12135469121,-197.947349905521,-0.00426060971552614,-0.17150839033107,-1.30554289952819,-1.27351877105005,4.07376960939263,11.7825595845563,1.56676206818697,35.3165413144009,1.24773722017342,189.320782719952,-12.5606600135471,10.3063475276586,-1.21788042447504,-23.1129633253333,26.2499389824083,-162.50841362624,-14.2455768585205,31.161600112915,6.1695704460144,-102.410003662109,125.334999084473,-115.745002746582,37,0,0,-34.7929612186128,130.404404482916,129.956131178587,0.361325472288181,8.97276098180949,6.11931180131869,5.99127890135318,-44.9234612023144,118.369650289639,95.9941423804121,0.997892472972721,12.1860889266579,6.58121293984571,6.16683734595314,3.33613465793634,12.1509350191917,-0.50943165500112,30.3434332081762,-23.430304418967,-168.704279593811,-9.05232124633098,12.314184149921,-0.00493583201626614,-11.1671444937826,-36.9948091841371,48.9285979891233,-1.70468923016202,9.9678080033427,-1.5579580465949,-10.105592325658,-4.38893868996936,20.8965650220756,1108.47891623391,0.116330990094139,0.14596726081971
33.985,-35.4880542710512,-75.4267451831562,-100.964919795582,-0.104309029005546,-1.45761361820638,-2.72490076291801,-2.62787726889195,-65.7630870280952,-181.588194343324,-197.484624686791,-0.00266398712657833,-0.0927537990935069,-1.28556254149829,-1.28040004546913,3.5491394897268,11.7579379543915,1.87169148792055,32.0523631842876,-0.367984189502991,183.028588344497,-12.2879281101829,9.74951989162338,-1.0606807857304,-26.1737148814352,32.6520304725588,-161.582471979016,-14.2455768585205,31.161600112915,6.1695704460144,-102.410003662109,125.334999084473,-115.745002746582,37,0,0,-33.6214423788522,130.268512255319,133.874931837369,0.339916059906553,8.88606095503536,6.76700849776614,6.68905892645558,-43.9216678446909,125.16419231016,97.972674085835,0.957274881524824,12.3851216956337,7.07905690591312,6.69069901426117,1.83421521788216,11.7645648227591,-0.744284127342508,28.7206970890511,-15.2441384923721,-173.56781147822,-9.12618613682545,12.6513110860239,-0.0314514337322373,-12.2450715123945,-46.7920200474427,54.2013212580383,-1.69062733002833,10.0766743036521,-1.55886524920701,-10.3773773227208,-5.86055460417074,16.634182205183,1117.19118536916,0.113935925018763,0.142514114902315
33.99,-36.6858484288361,-74.1504705286481,-97.1496008681421,-0.101537220624673,-1.5250721727529,-2.4430182446076,-2.32878602903337,-68.4432099191055,-169.876981511618,-193.892121727159,-0.00104601353907599,-0.0333678839830021,-1.18085136588622,-1.20739619278947,3.30378526225464,11.7313697307734,1.47206371339699,29.5133421526214,0.514131386204013,180.230534334971,-12.1017676713504,8.77228574493189,-0.991369730773345,-26.9723092895176,33.0223885439303,-151.830814009691,-12.4883656195404,27.1904325943501,6.10223506492542,-86.2744962081471,119.543525897931,-96.118013651034,31.5802853158854,0,0,-31.7667198414789,120.260166416579,133.556252244518,0.314834993719819,8.68631167943592,7.41803727318235,7.39000144877488,-41.6811471155955,127.719293619115,101.44265142319,0.916680225678562,12.5112921515755,7.94233683277504,7.58632474331937,0.93335943365871,11.228440416175,-0.982591440523426,25.8912248084188,-11.8584729389549,-173.555052352936,-8.43696878687116,12.7820175909042,0.195418856591213,-14.1440695584927,-62.4920712481941,55.313680622594,-1.68609380722046,10.1117725372314,-1.55915772914886,-10.4650001525879,-6.33500003814697,15.2600002288818,1120,0.113163761794567,0.141400828957558
33.995,-38.1225482374936,-75.0470886239561,-93.0613675056839,-0.099389740764077,-1.61298850833983,-2.08487470643812,-1.95777588136887,-71.6498368797542,-154.275817119129,-188.810854092044,0.000582004107791587,0.0167990454677919,-1.03583617602482,-1.09851822241804,3.19131609996782,11.703877268881,0.737265186456438,27.3194992339402,2.58455135587355,179.095043204065,-11.9568074177363,7.59510851299653,-0.963877268881008,-26.6946076542415,30.5230738264454,-137.880935197655,-9.89527034878863,21.3302289470468,6.00286906134952,-62.4635239460233,110.997119297765,-67.1547043608548,23.582478219934,0,0,-29.5870880452903,105.55562393305,131.221579033929,0.288008872976044,8.43279235091745,8.07060550093354,8.09134080844772,-38.8514493238167,128.257266383126,105.621952097409,0.876099338198953,12.6027888851276,8.9794151729087,8.66150167637803,0.318528013157432,10.6211069398262,-1.22252565340197,22.4878369894241,-10.7569231190264,-171.222358616617,-7.38475729081005,12.8145086822315,0.542823602321616,-16.4335652626578,-80.999342452483,54.4466344057876,-1.68609380722046,10.1117725372314,-1.55915772914886,-10.4650001525879,-6.33500003814697,15.2600002288818,1120,0.113163761794567,0.141400828957558
34,-39.5593165550353,-75.9437494744068,-88.972939196234,-0.0972421585011224,-1.70090903620827,-1.72671409023047,-1.59160404707844,-74.856616748083,-138.673908786705,-183.729344157199,0.00221009938651492,0.0669683671235095,-0.890814071128841,-0.993449931493574,3.07884157460045,11.6763834960134,0.00243162072293401,25.1255517020829,4.65507005330855,177.959497927379,-11.8118402517072,6.41787514748472,-0.936383496013425,-26.4168927767912,28.0236399293927,-123.930391187068,-7.30205142655291,15.4697458565293,5.90349831951586,-38.6514162601112,102.45030516307,-38.1900139582207,15.5842897493654,0,0,-27.4073523135814,90.8503802649102,128.886794494685,0.261181473031432,8.17926093335562,8.72320484633423,8.79063091174062,-36.0216165981868,128.795264800313,109.801452061154,0.835516515623856,12.6942899816921,10.0165429660174,9.74172581608823,-0.296332725517539,10.0137445028424,-1.46247130751902,19.0842868802276,-9.65532077180688,-168.889553646034,-6.33249562015087,12.8470013228932,0.89024491401195,-18.7231701411925,-99.5074961741152,53.5795468439705,-1.68609380722046,10.1117725372314,-1.55915772914886,-10.4650001525879,-6.33500003814697,15.2600002288818,1120,0.113163761794567,0.141400828957558
34.005,-40.9960163636929,-76.8403675697148,-84.8847058337758,-0.0950946786405263,-1.78882537179519,-1.36857055206098,-1.23063626494629,-78.0632437087316,-123.072744394216,-178.648076522084,0.0038381170333825,0.117135296574303,-0.745798881267432,-0.891425180550352,2.96637241231364,11.6488910341211,-0.732366906217621,22.9317087834017,6.72549002297809,176.824006796472,-11.6668799980931,5.24069791554937,-0.908891034121089,-26.1391911415151,25.5243252119079,-109.980512375032,-4.70895615580119,9.60954220922603,5.80413231593996,-14.8404439979874,93.9038985629033,-9.2267046680414,7.5864826534139,0,0,-25.2277205173928,76.1458377813812,126.552121284095,0.234355352287656,7.92574160483715,9.37577307408542,9.48693720828961,-33.191918806408,129.333237564323,113.980752735372,0.794935628144247,12.7857867152442,11.0536213061511,10.8259905249048,-0.911164146018817,9.4064110264936,-1.70240552039756,15.6808990612329,-8.55377095187837,-166.556859909715,-5.28028412408976,12.8794924142205,1.23764965974235,-21.0126658453576,-118.014767378404,52.7125006271641,-1.68609380722046,10.1117725372314,-1.55915772914886,-10.4650001525879,-6.33500003814697,15.2600002288818,1120,0.113163761794567,0.141400828957558
34.01,-41.4606436157227,-77.1303329467773,-82.0206073935344,-0.0919453276269322,-1.8623257179118,-1.25274729728699,-1.11731803812541,-79.1002635955811,-118.02734375,-170.800281587614,0.00802572235177245,0.123408404744237,-0.698901116847992,-0.88964486763382,2.62570493591492,11.4130979001909,-1.05266975729481,21.0039996363967,6.10517899046212,175.755389240709,-11.3157049359149,4.43257976547588,-0.870098172893358,-26.6682658478859,21.0592101054786,-98.3530655462298,-2.9831625659101,8.05600620713974,5.49143331552157,-14.3982284726387,86.9906817899922,8.48788628786729,4.47232069811835,0,0,-24.5228298187256,71.3904037475586,120.472071800969,0.209056499590677,7.7196982795598,9.58681297302246,9.73798331964574,-32.2767974281311,129.507217407227,117.677627536876,0.754879815341604,12.7301932731926,11.3890113830566,11.2116286430506,-1.09768748295611,9.17482137987454,-1.75009817289335,13.9939365781562,-8.87938806909808,-163.845929831295,-4.66736569402781,12.4854458685574,1.54172347968368,-21.4295299753894,-121.774192245149,53.2985351500032,-1.68609380722046,10.1117725372314,-1.55915772914886,-10.4650001525879,-6.33500003814697,15.2600002288818,1120,0.113163761794567,0.141400828957558
34.015,-41.4606436157227,-77.1303329467773,-79.7417765460284,-0.0883173620390874,-1.92893087439248,-1.25274729728699,-1.12510420759708,-79.1002635955811,-118.02734375,-161.630799524933,0.0134363675562051,0.108702360762306,-0.698901116847992,-0.935890399151338,2.17599585988051,11.077765698986,-1.1748450554082,19.2036229029684,4.19889774330278,174.71880869722,-10.8659958598805,3.80090747948535,-0.825907107618311,-27.5828957391997,15.654870677505,-87.8364264099652,-1.67201068096524,8.56091795035742,5.07679550709857,-25.12495941694,80.8585225664269,20.8249915260889,3.69247836973498,0,0,-24.5228298187256,71.3904037475586,112.602377368522,0.184489375628446,7.53636026064653,9.58681297302246,9.77359509832611,-32.2767974281311,129.507217407227,121.143670122486,0.715077780711757,12.6043031449181,11.3890113830566,11.2638245109714,-1.0794911619605,9.12283189131565,-1.70590710761831,13.1274451021747,-9.88708556338771,-160.954415683668,-4.2644471576964,11.8875667501301,1.82506619232963,-20.9513550497552,-118.484733864108,54.5790169978426,-1.68609380722046,10.1117725372314,-1.55915772914886,-10.4650001525879,-6.33500003814697,15.2600002288818,1120,0.113163761794567,0.141400828957558
34.02,-41.4606436157227,-77.1303329467773,-77.4628370327054,-0.0846892234520729,-1.99553920693326,-1.25274729728699,-1.13793808680152,-79.1002635955811,-118.02734375,-152.460880216435,0.0188472707667035,0.0939956155241651,-0.698901116847992,-0.982216854426598,1.72626533951458,10.7424175074993,-1.29702617943824,17.4031603187589,2.29252559531624,173.682178724493,-10.4162653395146,3.16920507226617,-0.781713935096815,-28.4975692445468,10.2502735441559,-77.319285788834,-0.360796273876218,9.06585377024018,4.66213792671389,-35.8522018643143,74.7260709314734,33.1626850579179,2.91259885464958,0,0,-24.5228298187256,71.3904037475586,104.732307670497,0.159921080185409,7.3530134992785,9.58681297302246,9.80428432122884,-32.2767974281311,129.507217407227,124.609877985983,0.675273848125942,12.4784070135856,11.3890113830566,11.3168053446603,-1.06129397327518,9.07083992364329,-1.66171393509681,12.2609123076354,-10.8948311096298,-158.062763654483,-3.8615094082356,11.289659121898,2.10842241614399,-20.4731573223983,-115.195118625579,55.8595599053285,-1.68609380722046,10.1117725372314,-1.55915772914886,-10.4650001525879,-6.33500003814697,15.2600002288818,1120,0.113163761794567,0.141400828957558
34.025,-41.4606436157227,-77.1303329467773,-75.1840061851993,-0.0810612578642281,-2.06214436341394,-1.25274729728699,-1.15541222360607,-79.1002635955811,-118.02734375,-143.291398153754,0.0242579159711362,0.0792895715422341,-0.698901116847992,-1.02756881856559,1.27655626348017,10.4070853062945,-1.41920147755163,15.6027835853306,0.386244348156893,172.645598181004,-9.96655626348017,2.53753278627563,-0.737522869821768,-29.4121991358606,4.84593411618227,-66.8026466525694,0.95035561106865,9.57076551345786,4.24750011829089,-46.5789328086157,68.5939117079081,45.4997902961395,2.13275652626621,0,0,-24.5228298187256,71.3904037475586,96.8626132380498,0.135353956223177,7.16967548036523,9.58681297302246,9.82966893013733,-32.2767974281311,129.507217407227,128.075920571593,0.635471813496096,12.3525168853112,11.3890113830566,11.3693959184085,-1.04309765227956,9.0188504350844,-1.61752286982176,11.3944208316538,-11.9025286039194,-155.171249506855,-3.45859087190419,10.6917800034707,2.39176512878994,-19.994982396764,-111.905660244539,57.1400417531678,-1.68609380722046,10.1117725372314,-1.55915772914886,-10.4650001525879,-6.33500003814697,15.2600002288818,1120,0.113163761794567,0.141400828957558
34.03,-42.8296293829928,-79.7288639884371,-75.2066058773111,-0.0766434281114274,-2.0743610246473,-1.35762876674119,-1.281843932283,-80.6741305029443,-108.703205534926,-134.847179121276,0.0316869067639717,0.0580207691243781,-0.584655220954581,-0.95667429492301,1.30012903383771,10.3286959502473,-1.2738284119289,16.769168871792,-0.11975054727614,171.014674134167,-9.88147838009891,2.45982566965379,-0.666087850741899,-30.5094876310455,1.07749557010122,-57.7768591518898,2.03483835615611,9.05821215615474,3.92026544662176,-42.2981931289819,58.4979115479093,60.5816222961838,1.57391900494589,0,0,-23.628798297243,67.5690345208422,89.7846979818004,0.129797454135444,7.04090079373898,9.19725322933542,9.45995848879147,-30.297821876495,125.685847367825,128.730525260776,0.590049862267565,12.0208184728719,11.7036557914193,11.7350891377885,-0.724700063659975,8.85661084178052,-1.81877968757652,9.71617815357105,-13.6179601487455,-152.30926557689,-3.54764996817001,10.4451324616816,2.12256965868468,-19.6716083237964,-109.415163886607,58.3495835502185,-1.69221665222517,10.106670297609,-1.61018136979772,-7.89253610939373,-5.00030131307661,10.040508039469,1095.92642377944,0.112888366338596,0.143161428479068
34.035,-44.4793823151514,-82.8603313183214,-75.7013400612482,-0.0720638125156696,-2.07541924750035,-1.48402052032837,-1.43316425256109,-82.5707839286606,-97.4667670503664,-126.552232197569,0.0395295318953778,0.035406846673547,-0.446978477891674,-0.859385931547166,1.42079366828265,10.3030226237697,-1.07357646540327,18.5441148998761,-0.338449254307935,169.261914931434,-9.87120904950786,2.49576832672249,-0.58906787130896,-31.6441852704279,-2.35512326635436,-49.0574367889264,3.07275787218737,8.33695647408998,3.61098023092798,-34.9389343487983,47.5893142069596,76.2256651172663,1.06045247539298,0,0,-22.5514086272619,62.9639354486971,82.8696220299,0.128141278251254,6.923327111075,8.72779814458303,9.00473750182491,-27.912975520136,121.08074731632,128.808329128506,0.543477601861579,11.6469177919545,12.0828310521808,12.1626786991938,-0.344734831790815,8.67176289114148,-2.07037828705744,7.87150210295503,-15.4784839317551,-149.453504199562,-3.73763258410459,10.2705538416336,1.74003709416776,-19.380010047754,-107.088716771225,59.5445025726966,-1.6995952398929,10.1005216326783,-1.67166951874883,-4.79248189437104,-3.39186739953503,3.75054305244582,1066.9155648597,0.112556489651597,0.145283111766368
34.04,-46.1292139156105,-85.9919479719065,-76.1960978365344,-0.0674839785414084,-2.07647752081464,-1.61041830089345,-1.58706579273095,-84.4675277961024,-86.2297927573813,-118.256889730163,0.0473725310015648,0.012791845880126,-0.30929516972729,-0.758259917613883,1.5414640566084,10.2773480730621,-0.873314969883961,20.3191455660809,-0.557158389965309,167.509072148557,-9.86093922922483,2.53171269771314,-0.512044219186142,-32.7789370177516,-5.78790578688969,-40.3375986411954,4.11072688130509,7.61566639902146,3.30168026700017,-27.5793246431091,36.6801966906563,91.8704539229381,0.54696146124088,0,0,-21.4739675820641,58.3586167828716,75.9542163333069,0.126485023392485,6.80574782192193,8.25832067391272,8.54394408198275,-25.5280154426213,116.475427671088,128.886136706305,0.496903120662097,11.2729992816212,12.462024393876,12.5866512770214,0.0352485186817419,8.48690612604673,-2.32198888399195,6.02673808914933,-17.3390964336519,-146.597606645543,-3.92762425934087,10.0959668968219,1.35748628862445,-19.0883978668775,-104.762158719449,60.7394785747666,-1.70697417940783,10.0943726745492,-1.73316059975606,-1.69227985357872,-1.78335678798604,-2.53972187091739,1037.90332256011,0.112224597139091,0.14740489622592
34.045,-47.7790455160696,-89.1235646254916,-76.6908556118207,-0.0629041445671471,-2.07753579412893,-1.73681608145854,-1.7426664636321,-86.3642716635442,-74.9928184643962,-109.961547262757,0.0552155301077519,-0.0098231549132949,-0.171611861562907,-0.652555268369387,1.66213444493415,10.2516735223544,-0.673053474364649,22.0941762322857,-0.775867525622683,165.75622936568,-9.8506694089418,2.56765706870378,-0.435020567063324,-33.9136887650754,-9.22068830742501,-31.6177604934644,5.14869589042281,6.89437632395293,2.99238030307236,-20.2197149374198,25.771079174353,107.51524272861,0.0334704470887812,0,0,-20.3965265368663,53.7532981170461,69.0388106367138,0.124828768533716,6.68816853276885,7.78884320324242,8.07780070991256,-23.1430553651065,111.870108025857,128.963944284105,0.450328639462615,10.8990807712879,12.8412177355713,13.0061114892434,0.415231869154299,8.30204936095198,-2.57359948092647,4.18197407534364,-19.1997089355487,-143.741709091525,-4.11761593457715,9.92137995201021,0.974935483081131,-18.796785686001,-102.435600667674,61.9344545768366,-1.71435311892277,10.08822371642,-1.7946516807633,1.40792218721361,-0.174846176437041,-8.82998679428059,1008.89108026052,0.111892704626586,0.149526680685471
34.05,-48.6730740300994,-89.3276901245117,-78.591434675691,-0.0581403147046219,-2.0206592441989,-1.85656984901922,-1.89240846749551,-87.0480674479291,-69.2453933059351,-102.251737095803,0.0567665776883892,-0.0098143721736507,-0.171740624070571,-0.679478250322976,2.10749683076275,9.75296218043524,-0.434779738009743,22.0372939669721,-0.371450910731855,164.315646250518,-9.34001848721743,2.30853739699978,-0.572380625396164,-35.2053202755541,-5.51020090095026,-21.1194926351099,5.21635293960571,6.84736108779907,2.97221946716309,-19.7399997711182,25.0599994659424,108.535003662109,0,0,0,-19.8736416251116,52.8958944360575,65.0131568924674,0.13040744688902,6.54432597232324,7.5761765289226,7.86343948140683,-21.9860988993065,113.613062148716,126.970669948677,0.405158830009047,10.3671995680163,12.6861449997646,12.8860668283052,0.91115043312909,8.27446756813862,-2.28970631734628,6.08158373177036,-18.640245270272,-144.805181246462,-3.77275406718783,10.0782680118318,0.639351362772018,-16.7035908892906,-98.6373447008527,60.0052742368398,-1.78675501508539,10.002261736467,-1.8178800396415,2.42545274257685,0.301483997599726,-10.9796322087216,968.42779421086,0.10876727104187,0.152568385045926
34.055,-49.5144454950252,-89.3276901245117,-80.5901395445275,-0.0533634116830924,-1.95973995911661,-1.97586643375959,-2.04156344327096,-87.6473184336121,-63.880464895165,-94.5823632094311,0.0578789624100259,-0.00822801746540623,-0.18147912078407,-0.710377988122571,2.5755229241496,9.22124022818507,-0.193843228396388,21.8526682891075,0.0764373077916142,162.896763726188,-8.79444960912741,2.02882949503486,-0.724696809634494,-36.5079570027101,-1.30141924444342,-10.4966781698241,5.21635293960571,6.84736108779907,2.97221946716309,-19.7399997711182,25.0599994659424,108.535003662109,0,0,0,-19.3893996101894,52.2997916314508,61.1888021313425,0.136490906532938,6.39864471903856,7.38140659465262,7.66237221727898,-20.9147129283416,115.798774545147,124.832876012673,0.360084665141646,9.82427638951251,12.4938096236457,12.7229681360122,1.41517853369955,8.2578512571308,-1.96845763786181,8.24238796159354,-17.9119995409171,-146.142007913964,-3.39057891400803,10.2582780477499,0.307025142615672,-14.4846637608804,-94.7362725074536,57.8581459831548,-1.86369469861966,9.91072995632969,-1.83844149825489,3.29780912991183,0.698890771926986,-12.8406591155477,927.163955208113,0.105446882545948,0.155674391192184
34.06,-50.3557768411514,-89.3276901245117,-82.5887491098704,-0.0485867364368357,-1.89882357882571,-2.0951573301257,-2.18970196983062,-88.2465408454353,-58.5157922982615,-86.9133550189344,0.0589912940902398,-0.00664173839871756,-0.191217153140488,-0.735362347301512,3.04352670082402,8.68954362983307,0.0470817927318612,21.6680514146797,0.524304169829363,161.477948857901,-8.24890674519332,1.74913493027678,-0.877005731037413,-37.8105316167283,2.9071617263083,0.125629771788852,5.21635293960571,6.84736108779907,2.97221946716309,-19.7399997711182,25.0599994659424,108.535003662109,0,0,0,-18.9051806851973,51.7037172505902,57.3646297254895,0.142574076101534,6.25297041221836,7.18664594752426,7.45722309434738,-19.8433780438715,117.984382721075,122.695184012294,0.315012649528721,9.28137909901078,12.3014834185823,12.5537256104068,1.91918260088738,8.2412357384323,-1.64722427635749,10.4030891586001,-17.1837885362297,-147.478770838061,-3.00842198394253,10.4382795003169,-0.0252852313543229,-12.2658424367391,-90.8353863274148,55.7111201101799,-1.94063071346789,9.81920254066785,-1.85900197644397,4.1701239210048,1.09627859685627,-14.7015972837267,885.902083773505,0.102126652374864,0.158780249235917
34.065,-51.1978897446394,-88.1828542045417,-84.2153173834052,-0.0435640633021946,-1.83061413330951,-2.1797206458715,-2.3012888997741,-88.7873720430911,-52.8528323549284,-79.4450002818112,0.0601000812694133,0.00523078641064255,-0.20559516328887,-0.758959368905365,3.38570703181089,8.22451252463808,0.275597253586374,21.1415717039338,0.589679612474998,160.122352255618,-7.77894477150204,1.49262984766803,-0.996842538083011,-38.8456658784731,6.61436500788272,9.04323735292683,5.20467607311091,6.42699448575514,2.94992728286182,-17.9374049893046,22.3328380246613,110.393444447534,0,0,0,-18.4053041700803,51.5550479381262,54.3726788147394,0.148712399811895,6.09531727609539,7.01753877900369,7.27421336272881,-18.737231612839,118.889915381061,120.762055807069,0.269969052519646,8.74868146065994,12.0553135818421,12.3243262144954,2.24493036066258,8.21847615815376,-1.4060658669347,11.9758244889191,-16.0752209915058,-148.390376722975,-2.65337701836599,10.6114140636218,-0.400696393374146,-11.089369153513,-86.802193888511,54.8611693272025,-1.97397338487873,9.73862692724358,-1.87226845070069,4.11776764730614,1.31846141957878,-16.1306415593166,849.135506272109,0.0996760915294806,0.161786014962314
34.07,-52.0415106958445,-84.6475347997868,-85.0647476614454,-0.0380284357599483,-1.74718531678545,-2.19175320265802,-2.33780507727083,-89.2061907772943,-46.5678211820596,-72.3967508277136,0.061201303530838,0.0385813525028791,-0.229660280940964,-0.786269947273771,3.46509182994165,7.89876111161872,0.478165359161439,19.9012898429721,-0.143675057357972,158.898967967694,-7.46688039264316,1.28458692842878,-1.04885326789282,-39.3221774381342,9.27404300400508,14.3997680058543,5.16861723534587,5.12887815362978,2.88108773095754,-12.370888251061,13.9112060727977,116.132416868554,0,0,0,-17.8728050060093,52.3406740084105,53.1190175480721,0.154964992784611,5.91267310401211,6.9020262338531,7.14190553636871,-17.558554421186,117.122254634445,119.25638339735,0.224991432217714,8.23736122840398,11.6967434548686,11.9762574714975,2.19839444451695,8.18288986933652,-1.33215588246813,12.3205349788867,-14.1725542674691,-148.414033325227,-2.35499967366759,10.7701836598833,-0.866055554830368,-12.0897054773405,-82.4933127639163,56.7199023613413,-1.91627930971952,9.68093278681951,-1.87030159610466,2.13451636351526,1.17474756742025,-16.6575924267068,821.761437951155,0.0990419393527203,0.16458232480329
34.075,-52.8851718750287,-81.112046813686,-85.9142184444819,-0.0324925442518663,-1.66375252196676,-2.20378633321579,-2.37118776543579,-89.6250294828261,-40.2825103090728,-65.3481652785584,0.0623025783039341,0.0719335089134645,-0.253726546135743,-0.807818800906167,3.54448041352843,7.5729941651764,0.680743124175996,18.660948839296,-0.877064697133712,157.675525342814,-7.15480113302615,1.07653408868411,-1.10086647782899,-39.7987117202005,11.9338478266019,19.7565540844007,5.13255667811882,3.83069992095929,2.81224489644625,-6.80410607403344,5.48917253627189,121.871662951889,0,0,0,-17.3402804497699,53.126337541194,51.8652965006949,0.161217883911586,5.73002022256008,6.78650818049856,7.00734393643464,-16.3798210244311,115.354509597107,117.750639189796,0.180011667162538,7.7260166138948,11.3381562295152,11.6221465812086,2.1518563093109,8.14730188359072,-1.25824237361147,12.6652619063389,-12.2697968149634,-148.437691055543,-2.05660810087589,10.9289608270569,-1.33143690689083,-13.0900895021037,-78.1842261707639,58.5787240289757,-1.85858248342422,9.62323589525623,-1.86833464771937,0.151170508588824,1.03102686228132,-17.1845684216955,794.386064300539,0.0984077569364779,0.167378767986017
34.08,-53.7287928262337,-77.5767274089311,-86.7636487225222,-0.0269569167096201,-1.5803237054427,-2.21581889000231,-2.4009823531878,-90.0438482170293,-33.997499136204,-58.2999158244608,0.0634038005653587,0.105284075005701,-0.277791663787837,-0.823956765314885,3.62386521165919,7.24724275215704,0.883311229751061,17.4206669783343,-1.61041936696668,156.45214105489,-6.84273675416727,0.868491169444854,-1.15287720763881,-40.2752232798616,14.5935258227243,25.1130847373282,5.09649784035378,2.53258358883393,2.74340534454198,-1.23758933578984,-2.9324594155917,127.610635372909,0,0,0,-16.807781285699,53.9119636114782,50.6116352340276,0.167470476884301,5.5473760504768,6.67099563534796,6.87118641717399,-15.2011438327782,113.586848850492,116.244966780077,0.135034046860607,7.21469638163883,10.9795861025418,11.2624594097117,2.10532039316527,8.11171559477348,-1.1843323891449,13.0099723963065,-10.3671300909267,-148.461347657795,-1.7582307561775,11.0877304233184,-1.79679606834705,-14.0904258259312,-73.8753450461692,60.4374570631146,-1.80088840826501,9.56554175483216,-1.86636779312334,-1.83208077520206,0.887313010122793,-17.7115192890858,767.011995979585,0.0977736047597176,0.170175077826993
34.085,-54.4605095235168,-73.3524603768887,-85.6471933702713,-0.0193320172866316,-1.50670933465814,-2.17413054413597,-2.37316776235557,-90.2871193708666,-27.005147479991,-51.6507679519127,0.0635156847208711,0.159901795031247,-0.290605333759316,-0.823910308812927,3.79094334150649,6.81175037570196,0.985235835376613,15.4165446876214,-1.75569167733474,153.153129840713,-6.38949616388517,0.477313928656183,-1.1551638587888,-40.4389673493262,16.5337663060513,33.6398088175796,5.09573068964248,2.12165615499474,2.61281119640322,-8.98543790915547,-6.82141963474272,129.662270294498,0.556355295420391,0,0,-16.3000943510239,52.9730647038143,50.2308759168084,0.174927267143345,5.30585019353451,6.53188559960538,6.71045959665242,-14.1402380661277,109.811464280475,114.810633985896,0.0966873992239746,6.73662348594677,10.497971887545,10.7747347031987,1.93051148197947,7.96276569379633,-1.22119908249627,14.9550791618778,-9.12714724620304,-147.860121363861,-1.50607503493371,11.1047641646234,-1.99265390598222,-14.5044656211134,-71.9324882195421,61.0425141321553,-1.7818945646286,9.54654788970947,-1.86572027206421,-2.48499989509583,0.840000033378601,-17.8850002288818,758,0.0975648313760757,0.171095669269562
