time,hip_angle_l,hip_angle_l_velocity,hip_angle_l_velocity_filt,hip_angle_l_torque_estimated,hip_angle_l_torque_desired,hip_angle_l_torque_measured,hip_angle_l_torque_interaction,knee_angle_l,knee_angle_l_velocity,knee_angle_l_velocity_filt,knee_angle_l_torque_estimated,knee_angle_l_torque_desired,knee_angle_l_torque_measured,knee_angle_l_torque_interaction,thigh_imu_l_accel_x,thigh_imu_l_accel_y,thigh_imu_l_accel_z,thigh_imu_l_gyro_x,thigh_imu_l_gyro_y,thigh_imu_l_gyro_z,shank_imu_l_accel_x,shank_imu_l_accel_y,shank_imu_l_accel_z,shank_imu_l_gyro_x,shank_imu_l_gyro_y,shank_imu_l_gyro_z,foot_imu_l_accel_x,foot_imu_l_accel_y,foot_imu_l_accel_z,foot_imu_l_gyro_x,foot_imu_l_gyro_y,foot_imu_l_gyro_z,insole_l_force_y,insole_l_cop_x,insole_l_cop_z,hip_angle_r,hip_angle_r_velocity,hip_angle_r_velocity_filt,hip_angle_r_torque_estimated,hip_angle_r_torque_desired,hip_angle_r_torque_measured,hip_angle_r_torque_interaction,knee_angle_r,knee_angle_r_velocity,knee_angle_r_velocity_filt,knee_angle_r_torque_estimated,knee_angle_r_torque_desired,knee_angle_r_torque_measured,knee_angle_r_torque_interaction,thigh_imu_r_accel_x,thigh_imu_r_accel_y,thigh_imu_r_accel_z,thigh_imu_r_gyro_x,thigh_imu_r_gyro_y,thigh_imu_r_gyro_z,shank_imu_r_accel_x,shank_imu_r_accel_y,shank_imu_r_accel_z,shank_imu_r_gyro_x,shank_imu_r_gyro_y,shank_imu_r_gyro_z,foot_imu_r_accel_x,foot_imu_r_accel_y,foot_imu_r_accel_z,foot_imu_r_gyro_x,foot_imu_r_gyro_y,foot_imu_r_gyro_z,insole_r_force_y,insole_r_cop_x,insole_r_cop_z
81.2,-63.1962137414519,2.07229525535598,-5.83689262105281,0.21691023789814,0.723914022492459,-0.393892079712361,-0.404772680639444,-76.367584102023,72.7071779754081,72.048541663206,-0.157170757187863,-0.82349563584831,-0.164916656228565,-0.195298546027486,4.45637336814621,3.58859530026111,0.139297650130545,-14.6500821970796,-18.0329013957387,31.9535699319859,-4.83542819843343,0.689310704960833,-0.856002610966062,-19.7335621957902,-8.02127453824583,168.080598265803,-9.97046661376953,2.22257828712463,-2.62254643440247,-55.1949996948242,-88.9349975585938,156.520004272461,0,0,0,-5.53428609066159,9.7704354765521,16.2109338649413,0.0688783707641124,1.48509490304729,1.42505727467898,1.42913897618617,2.70611196567745,-30.6794102726032,0.397131720841879,-0.373573324547383,-2.79876811102969,-1.27551717884236,-1.24430354540669,0.152464751958238,9.15565796344646,-1.12482767624021,6.34909905553945,-3.2618927892209,-50.5388518196177,6.92821148825064,10.1884934725849,0.524469973890352,2.90255939141929,65.0026367533765,-23.5739257969893,-2.22246502852627,9.46213201169246,-1.38491164140851,-11.181896699004,-3.72770101936928,0.0489908632737227,876.035770234987,-0.0820640563089449,0.102107978832006
81.205,-63.1734157560264,2.25938007315934,-3.65488326773496,0.222817254570487,0.900529609709418,-0.295323418913404,-0.309979481580499,-75.6038953560347,72.1459238017508,72.7293266799213,-0.158587989599111,-0.91286620232871,-0.231393192873845,-0.259607418594172,4.8031688424717,3.70853959965188,0.199269799825922,-16.6620303215894,-14.3985183036242,22.9014129301916,-5.11442906875545,0.970919060052228,-0.900329852045251,-16.221505549646,-11.6588767473595,165.415169390452,-9.97046661376953,2.22257828712463,-2.62254643440247,-55.1949996948242,-88.9349975585938,156.520004272461,0,0,0,-5.42030312626957,7.89958736068586,14.3582942889109,0.0654051413344926,1.49021384836491,1.4640262755028,1.4720781508318,2.34706458343227,-36.104869771315,-6.70772107947528,-0.380216773104555,-2.93212587692762,-1.55059249431699,-1.51056873301104,0.0533803307223816,9.34078938207135,-1.19522976501306,5.23206545681162,-3.58702360614169,-45.5942881088225,6.52405134899913,10.5770087032202,0.514040034812888,3.20193727234635,67.8483361806831,-24.7553417357015,-2.21434654108434,9.48586300367682,-1.36118074267506,-11.428304178804,-3.64556529638143,-0.106154480192638,884.118973020017,-0.0786368964786266,0.0998147832403191
81.21,-63.1506188576687,2.44645597026758,-1.47297795834967,0.228723989580777,1.07713677543166,-0.196759458126883,-0.216759244464659,-74.84024302473,71.5846963901655,73.4100792350202,-0.160005154432999,-1.00223250738595,-0.297866559743392,-0.312632633896289,5.14994778067883,3.82847817978367,0.259239089891808,-18.6738825111323,-10.7643085084338,13.849687559,-5.39341663558375,1.25251398731818,-0.94465497948525,-12.7096163675798,-15.2963055060531,162.749867609746,-9.97046661376953,2.22257828712463,-2.62254643440247,-55.1949996948242,-88.9349975585938,156.520004272461,0,0,0,-5.30632559688444,6.02882845176774,12.5057430515977,0.0619320775175673,1.49533254959779,1.50299341818238,1.51721234441913,1.98803432150858,-41.5300705698789,-13.8122351017646,-0.386859904884665,-3.06547728397727,-1.82565469347866,-1.77639685273533,-0.0456993659082277,9.52591197314432,-1.26562849682956,4.11508512117739,-3.91213891997184,-40.6499601678018,6.11991048116376,10.9655054084297,0.503610593062292,3.50130087815034,70.6938999175727,-25.9367013414011,-2.20622844075321,9.50959286410521,-1.33745097549315,-11.6746999092486,-3.56343348984041,-0.261292425921852,892.201790376725,-0.0752099000642834,0.0975216969942166
81.215,-63.1427267456055,2.5112202167511,0.00366076066028453,0.232354870202005,1.25635611376775,-0.162637367844582,-0.186014900799127,-74.5758724212646,71.3904037475586,73.527261585486,-0.161547846001478,-1.09048120727503,-0.320879131555557,-0.313336293627465,5.25371732791491,3.89713778680846,0.189540710638439,-19.7925137207242,-8.81600196511818,8.77508339616857,-5.52799290153185,1.679271813276,-0.909342797957526,-9.17538907759821,-17.2993319347504,157.750908565807,-9.97046661376953,2.22257828712463,-2.62254643440247,-55.1949996948242,-88.9349975585938,156.520004272461,0,0,0,-5.26686744689941,5.38118600845337,10.9816309262945,0.0545352948718501,1.46883210291696,1.51648354530334,1.53494212407883,1.8637407875061,-43.4082336425781,-20.1657254831397,-0.392894431177852,-3.19397721065295,-1.92087912559509,-1.87034746053246,0.0574981198295455,9.79805636553151,-1.23210605480864,4.74689965305827,-5.32909197499102,-35.5990953680125,5.81717327914925,10.7996751593197,0.40230396748954,2.94603727502095,70.9754400950893,-32.2757879816018,-2.20341801643372,9.51780796051025,-1.32923591136932,-11.7600002288818,-3.53500008583069,-0.314999997615814,895,-0.074023500084877,0.0967278480529785
81.22,-63.1427267456055,2.5112202167511,1.10677905341265,0.23478050477997,1.4369454312344,-0.162637367844582,-0.189830421777443,-74.5758724212646,71.3904037475586,73.3460456812852,-0.163156886855369,-1.17813174043271,-0.320879131555557,-0.291664013083356,5.22881476692483,3.93864205512527,0.0511931495823769,-20.4381356723192,-7.76046131409784,5.80658881449652,-5.58609887717539,2.18285693552007,-0.831868163766138,-5.62959232756877,-18.4368563256558,151.51672834538,-9.97046661376953,2.22257828712463,-2.62254643440247,-55.1949996948242,-88.9349975585938,156.520004272461,0,0,0,-5.26686744689941,5.38118600845337,9.63152639035249,0.0450615867656323,1.42559241225955,1.51648354530334,1.53881361094056,1.8637407875061,-43.4082336425781,-26.1211130988045,-0.398606283144803,-3.31989908544401,-1.92087912559509,-1.86831674613222,0.267786412634757,10.1162557559605,-1.14356361573276,6.30459071087467,-7.32402964552782,-30.4921915710048,5.56814766924833,10.3403612566136,0.252888601548987,1.93832047226692,69.8994035090977,-41.3452392063881,-2.20341801643372,9.51780796051025,-1.32923591136932,-11.7600002288818,-3.53500008583069,-0.314999997615814,895,-0.074023500084877,0.0967278480529785
81.225,-63.1427267456055,2.5112202167511,2.20994994824849,0.237206255024074,1.61754336008426,-0.162637367844582,-0.193993403189247,-74.5758724212646,71.3904037475586,73.1648211358225,-0.16476600443621,-1.26578645319715,-0.320879131555557,-0.270880447472289,5.20391101845866,3.98014830256889,-0.0871610085630492,-21.0837884103311,-6.70487032972903,2.83795268046256,-5.64420762359646,2.68646607116942,-0.754389835204707,-2.08362649658228,-19.574434959296,145.282250848703,-9.97046661376953,2.22257828712463,-2.62254643440247,-55.1949996948242,-88.9349975585938,156.520004272461,0,0,0,-5.26686744689941,5.38118600845337,8.28135747481309,0.035587426906608,1.38235065972189,1.51648354530334,1.54220337750162,1.8637407875061,-43.4082336425781,-32.0767846965216,-0.404318407480833,-3.44582696480686,-1.92087912559509,-1.86573517479877,0.478084733015803,10.434470319695,-1.05501695451969,7.86235604703057,-9.31906244446433,-25.3850442518094,5.31911018458655,9.88102545157077,0.103466110751921,0.930555616639744,68.8233156124111,-50.4151229070327,-2.20341801643372,9.51780796051025,-1.32923591136932,-11.7600002288818,-3.53500008583069,-0.314999997615814,895,-0.074023500084877,0.0967278480529785
81.23,-63.1283420720551,2.86349845577737,3.33521801559328,0.239372983128615,1.79585473664939,-0.15244341055068,-0.188219509728497,-74.5347733198206,71.098087724518,72.9254424642314,-0.166445890713686,-1.35245210434937,-0.326022028847719,-0.256354055120198,5.18992418460923,4.02376074364137,-0.220940185910375,-21.6848741916446,-5.61500822236955,-0.165948068480679,-5.70532772015862,3.18556530007133,-0.680104465101156,1.39811127220687,-20.7147722008998,138.938406597913,-9.97046661376953,2.22257828712463,-2.62254643440247,-55.1949996948242,-88.9349975585938,156.520004272461,0,0,0,-5.26663910483185,5.30623318928111,6.94868853284473,0.0260566932542891,1.33818008395845,1.51620803296509,1.54473711343527,1.83245975736278,-43.4382147567976,-37.890923096507,-0.409761811907625,-3.57028129581712,-1.93309350592457,-1.87505062685158,0.680626790606905,10.7298668851885,-0.971775906719572,9.22325181394879,-11.1520275744002,-20.262104769067,5.07038921069421,9.44156697651724,-0.0419848369218655,-0.06463645882225,67.7804507622392,-59.2333386002217,-2.2040685273182,9.51940921424031,-1.32996147899876,-11.7384281799154,-3.52037497067347,-0.313171858376827,895.417860404599,-0.0738210647035139,0.0965997005475662
81.235,-62.7670541993631,11.7113777717761,4.99470636282729,0.235295994976704,1.9192395198865,0.103589730009457,0.0632236750151909,-73.5025213970837,63.7562294787604,71.2833921011526,-0.169834373831568,-1.41537035553464,-0.45519189951983,-0.367166830265985,5.43918166918968,4.11821621148239,-0.244554052870621,-21.2119490097246,-3.69739378609111,-4.02385143606114,-5.83913963293339,3.5765059864133,-0.682728228096738,3.33516098993408,-21.9229988642982,129.949588927858,-9.97046661376953,2.22257828712463,-2.62254643440247,-55.1949996948242,-88.9349975585938,156.520004272461,0,0,0,-5.26090402717808,3.42370561601086,6.03643491888177,0.0151502702182209,1.27155806502127,1.50928821888369,1.53996570816334,1.04680015955953,-44.1912254483066,-40.2989557107154,-0.40873156281585,-3.65935009952623,-2.2398719301997,-2.17886398396058,0.696369368580408,10.4753618746169,-1.01637987764448,5.83827362828836,-9.07893088653162,-14.7522024783413,4.82900301510052,9.48092342145099,-0.0918363338379551,-0.757828163828312,67.5375097441296,-61.9931485659468,-2.22040686776068,9.55962657139813,-1.34818495723176,-11.1966209812033,-3.1530481262696,-0.267256006736054,905.912912386934,-0.0687366637239361,0.0933811263158211
81.24,-62.405783553825,20.5588351976682,6.65411558130166,0.231219201226287,2.04261841981333,0.359610662237504,0.314566581689667,-72.4703186948276,56.4147213120723,69.6414200353446,-0.173222695377682,-1.47828560661256,-0.584355611033508,-0.479455140779672,5.6884272685191,4.2126671754388,-0.268166793859718,-20.7390463781184,-1.77987078670168,-7.88157084868415,-5.97294516520497,3.96742803167734,-0.685351865984414,5.27211834404706,-23.1311679162784,120.96119986822,-9.97046661376953,2.22257828712463,-2.62254643440247,-55.1949996948242,-88.9349975585938,156.520004272461,0,0,0,-5.25516922298787,1.5412678065959,5.12422480356529,0.00424436722902633,1.20493922279679,1.50236873475719,1.53447499090285,0.261178024067828,-44.9442002342896,-42.7068735036091,-0.407701362849055,-3.74841465620101,-2.54663572647444,-2.48285561303885,0.712111195906477,10.2208689995121,-1.060981721735,2.45345684727153,-7.00593304935383,-9.2425629142172,4.58762832943414,9.52027798976616,-0.141685453703839,-1.45098681563463,67.2945803100854,-64.7528269366897,-2.23674442914821,9.59984201088681,-1.3664075665215,-10.6548396172804,-2.7857387969737,-0.221342344483592,916.407463937646,-0.0636525051819407,0.0901627055541423
81.245,-62.0444956811329,29.4067145136669,8.31360392853567,0.227142213074376,2.16600320305045,0.61564380279764,0.565909019458785,-71.4380667720908,49.0728630663147,67.9993696722658,-0.176611178495563,-1.54120385779783,-0.713525481705619,-0.59337188367092,5.93768475309955,4.30712264327982,-0.291780660819965,-20.2661211961984,0.13774364957676,-11.7394742162646,-6.10675707797974,4.35836871801931,-0.687975628979995,7.20916806177427,-24.3393945796768,111.972382198164,-9.97046661376953,2.22257828712463,-2.62254643440247,-55.1949996948242,-88.9349975585938,156.520004272461,0,0,0,-5.2494341453341,-0.341259766674351,4.21197118960232,-0.00666205580704195,1.13831720385961,1.4954489206758,1.52822928977551,-0.524481573735424,-45.6972109257986,-45.1149061178176,-0.406671113757279,-3.83748345991012,-2.85341415074958,-2.78731189254819,0.72785377387998,9.96636398894045,-1.10558569265991,-0.931521338388911,-4.93283636148523,-3.73266062349145,4.34624213384045,9.55963443469991,-0.191536950619928,-2.14417852064069,67.0516392919758,-67.5126369024148,-2.25308276959069,9.64005936804463,-1.3846310447545,-10.1130324185683,-2.41841195256983,-0.17542649284282,926.902515919981,-0.0585681042023629,0.0869441313223972
81.25,-61.7657431030273,36.2333183288574,10.302181919401,0.221621738836555,2.27432819574213,0.813186824321747,0.758817605496421,-70.6416301727295,43.4082336425781,66.0910753118499,-0.180875911404136,-1.59652121802325,-0.813186824321747,-0.679513876226681,6.18782517179471,4.35627685259704,-0.293690336160469,-19.9823862809823,2.060262474654,-15.3719748831837,-6.19616149734825,4.69311355991665,-0.714217379640519,8.68783945904122,-25.1953345312405,102.941736415078,-10.3607311432197,2.0939105384484,-2.66101654991531,-53.4011837848235,-89.5248639905307,152.953129927406,0.09884644751233,0,0,-5.24500923156738,-1.79372870922089,3.34744310798355,-0.0157106042752104,1.08008496122736,1.49010992050171,1.522799965998,-1.13065923690796,-46.2781982421875,-47.0216620344088,-0.404114025392408,-3.91520497863051,-3.09010982513428,-3.02238125857321,0.72863265853609,9.78680389607708,-1.13555190986193,-3.70551330270541,-3.44255255620188,0.832752595486743,4.01123609649397,9.63794052704346,-0.205782620359497,-2.72477458989766,66.5914545553209,-69.632212696542,-2.25550887146265,9.64919078006405,-1.39087902356932,-9.70537857369836,-2.09867392029547,-0.0431304794121532,935.988464475123,-0.0538505117325272,0.0840326133113698
81.255,-61.7657431030273,36.2333183288574,13.4028659857545,0.211223901586139,2.33180263606993,0.813186824321747,0.75430279351737,-70.6416301727295,43.4082336425781,63.282989215469,-0.188101575961159,-1.6261737141023,-0.813186824321747,-0.667811116163345,6.44100043335603,4.25241007862316,-0.222281929053433,-20.3376918606769,3.9997500750921,-18.2438056965045,-6.1355725458635,4.83809426525518,-0.820248044738852,8.61838122541673,-24.8614007157381,93.7679066355955,-12.069421688445,1.53056606553859,-2.82944979887883,-45.5473409321023,-92.1074691701928,137.336326427511,0.531624672403475,0,0,-5.24500923156738,-1.79372870922089,2.64395517475302,-0.0184849941140013,1.05018189148605,1.49010992050171,1.52196121990637,-1.13065923690796,-46.2781982421875,-47.2354635693241,-0.396398618996991,-3.95461069424369,-3.09010982513428,-3.02167635534904,0.678863162673605,9.86037619430858,-1.11607688974184,-4.41612446209457,-3.92074578000135,2.20855991535674,3.35990486803278,9.84783796611567,-0.0997519552611644,-2.92513487919913,65.3973072310842,-69.5894691681577,-2.21093883425155,9.55331330964661,-1.3566741196896,-9.75082029556652,-1.9396279195525,0.380992192460208,940.316246724035,-0.0503710426246261,0.0821577477407231
81.26,-61.7657431030273,36.2333183288574,16.5034022033541,0.20082656013189,2.38927433586559,0.813186824321747,0.74996690458029,-70.6416301727295,43.4082336425781,60.4750370160029,-0.195326895979532,-1.65582479627252,-0.813186824321747,-0.657980160560772,6.69416362285644,4.14854825728965,-0.150876926886656,-20.692980498469,5.93914519567132,-21.1154995733952,-6.07498648341897,4.98306805753318,-0.9262736540168,8.5489263037431,-24.5274828230764,84.594514288393,-13.7780307588207,0.967248454371717,-2.997875016503,-37.6938725712203,-94.689951204462,121.720267577793,0.964382261293052,0,0,-5.24500923156738,-1.79372870922089,1.94050078567342,-0.0212592516626034,1.02028024760157,1.49010992050171,1.52041554164982,-1.13065923690796,-46.2781982421875,-47.449254909621,-0.388683580492399,-3.99401453088893,-3.09010982513428,-3.02208981785888,0.629096039951299,9.93394498441982,-1.09660279824181,-5.12670173767869,-4.39891620229292,3.58430163312299,2.70860469675396,10.0577253967271,0.00627365401678388,-3.12548561479616,64.203216846926,-69.546727677897,-2.16637092225681,9.45744041091858,-1.32247084678948,-9.79625985065412,-1.78058950254026,0.805094641050484,944.643822612931,-0.0468917394269437,0.0802829715685872
81.265,-61.7657431030273,36.2333183288574,19.6040862697076,0.190428722881474,2.44674877619339,0.813186824321747,0.745867184107467,-70.6416301727295,43.4082336425781,57.666950919622,-0.202552560536555,-1.68547729235157,-0.813186824321747,-0.650050498882621,6.94733888441776,4.04468148331578,-0.0794685197796209,-21.0482860781635,7.87863279610942,-23.9873303867161,-6.01439753193421,5.1280487628717,-1.03230431911513,8.4794680701186,-24.1935490075739,75.4206845089103,-15.4867213040461,0.403903981461906,-3.16630826546652,-29.8400297184991,-97.2725563841241,106.103464077899,1.3971604861842,0,0,-5.24500923156738,-1.79372870922089,1.23701285244289,-0.0240336415013943,0.990377177860251,1.49010992050171,1.51822869419519,-1.13065923690796,-46.2781982421875,-47.6630564445363,-0.380968174096981,-4.03342024650211,-3.09010982513428,-3.02378241137123,0.579326544088814,10.0075172826513,-1.07712777812172,-5.83731289706786,-4.87710942609239,4.96010895299299,2.05727346829278,10.2676228357993,0.112304319115116,-3.32584590409763,63.0090695226893,-69.5039841495127,-2.12180088504572,9.36156294050114,-1.28826594290976,-9.84170157252228,-1.62154350179729,1.22921731292284,948.971604861842,-0.0434122703190426,0.0784081059979405
81.27,-61.7657431030273,36.2333183288574,22.7046224873073,0.180031381427225,2.50422047598904,0.813186824321747,0.742061121964368,-70.6416301727295,43.4082336425781,54.8589987201558,-0.209777880554928,-1.71512837452179,-0.813186824321747,-0.644028445367702,7.20050207391817,3.94081966198227,-0.00806351761284416,-21.4035747159556,9.81802791668865,-26.8590242636068,-5.95381146948968,5.2730225551497,-1.13832992839308,8.41001314844497,-23.8596311149122,66.2472921617078,-17.1953303744218,-0.159413629704966,-3.33473348309069,-21.9865613576171,-99.8550384183932,90.4874052281804,1.82991807507377,0,0,-5.24500923156738,-1.79372870922089,0.533558463363281,-0.0268078990499964,0.960475533975776,1.49010992050171,1.5154886528819,-1.13065923690796,-46.2781982421875,-47.8768477848332,-0.373253135592389,-4.07282408314735,-3.09010982513428,-3.02687220612503,0.529559421366508,10.0810860727626,-1.05765368662169,-6.54789017265198,-5.35527984838396,6.33585067075923,1.40597329701395,10.4775102664108,0.218329928393065,-3.52619663969467,61.814979138531,-69.461242659252,-2.07723297305097,9.26569004177312,-1.25406267000963,-9.88714112760988,-1.46250508478505,1.65331976151312,953.299180750738,-0.0399329671213603,0.0765333298258046
81.275,-61.5037883077745,34.2740281889441,25.3754829396375,0.165342834945371,2.55100698952699,0.993236302058684,0.91865836797139,-70.3896224418822,40.4692985773885,51.6882642648652,-0.211424611512942,-1.73545149298067,-0.875870722465288,-0.702584011857736,7.18773581532816,4.16548962591315,-0.0118587551095955,-21.6387299535913,9.42276833287945,-29.553434407502,-5.82987248394132,5.63645088248262,-1.19820500291977,8.10177464630002,-23.2395570203645,55.8225909844808,-18.3559079625578,-0.286701891065927,-3.35114959847282,-13.9884415391366,-93.5584179165096,70.0666568025451,1.69658328467066,0,0,-5.27485216094854,-2.12027704778806,-0.129461557169242,-0.0318782642927329,0.948342607654075,1.45810112606715,1.48029394416983,-1.52856496199005,-46.9312952448527,-47.927958111196,-0.36555495003811,-4.10588644998582,-3.15679481353962,-3.09811453895641,0.343120806568861,10.1069658328467,-1.1668154354018,-6.99759827836399,-5.06186360592813,7.44966367216531,0.886027457663461,10.5311754120437,0.376815435401783,-4.05069863116287,58.0418081120929,-71.2106293984912,-2.0826076522724,9.26143799705981,-1.24498027797434,-9.53862412733841,-1.38407059570974,1.83592941481544,963.343959671557,-0.0360112626083482,0.0749954222947165
81.28,-61.0722522503316,31.0463554847711,27.7679413088726,0.147877114599334,2.5908717362425,1.28984412590953,1.21223305355384,-69.9744728642233,35.6277897594708,48.2828966109846,-0.209459372497159,-1.74973365307133,-0.979134196775437,-0.803581858900484,7.00279534268452,4.60284885175958,-0.0643418622111623,-21.7960867120969,7.51597467098813,-32.1328510763388,-5.6649255759078,6.14128838888823,-1.22819534983495,7.63896065069533,-22.4342606680123,44.5885525978362,-19.1615730562549,-0.131674269523378,-3.26914659077605,-5.89729586097763,-81.5135439596008,46.5367307856856,1.1967441694176,0,0,-5.32401446040276,-2.65822246869083,-0.766250384804235,-0.0384348392173086,0.947714936876655,1.40537084891968,1.42405494909649,-2.18406228804634,-48.0071866229274,-47.8737370921408,-0.357868280603393,-4.13484045417587,-3.26664955759683,-3.21401362512967,0.068209293179683,10.1019674416942,-1.35925349477423,-7.27837210236418,-4.26890896012544,8.39380422319887,0.451167427393306,10.4836906960947,0.569253494774209,-4.78503017085564,52.5991155237817,-74.120186717526,-2.12031708892702,9.31650593120229,-1.25216303774422,-8.93506852437494,-1.35782903739212,1.86217094334033,977.089535341016,-0.0318034347696147,0.0736757401561693
81.285,-60.6406956151358,27.8185288693538,30.1605137622414,0.1304105614022,2.6307383839044,1.58646609347427,1.5063134983328,-69.559303490199,30.7860500746981,44.8773665724941,-0.207494039769154,-1.76401649420535,-1.08240259519385,-0.906402032130363,6.81784605117327,5.04022893303617,-0.116827471964348,-21.9534509741435,5.60909008383516,-34.7123907443969,-5.49997080239777,6.64614996841893,-1.25818712683678,7.17612458585238,-21.6289259151856,33.3539785172149,-19.9672765680099,0.0233607444955215,-3.18713967277421,2.1942356426393,-69.4680956441036,23.0056827466995,0.696881219387208,0,0,-5.37317910415622,-3.19619354146623,-1.40306957764964,-0.0449917267914921,0.947087236168818,1.35263805733432,1.36762523070029,-2.83959087142588,-49.083129304773,-47.8195134875617,-0.350181244630626,-4.16379583903468,-3.37650954006633,-3.33137243410879,-0.206715329337023,10.0969688121939,-1.55170073053592,-7.55915931503558,-3.47591650236119,9.3379897954785,0.0162866608668792,10.4362037158418,0.761700730535904,-5.51939672707311,47.1561634012286,-77.0298827785053,-2.15802832375228,9.3715764912536,-1.25934614002327,-8.33148414092399,-1.33158622774846,1.88841372318984,990.835766466852,-0.027595406281039,0.0723559950887138
81.29,-60.2091595576929,24.5908561651808,32.5529721314764,0.112944841056162,2.67060313061991,1.88307391732512,1.80095285387492,-69.1441539125401,25.9445412567805,41.4719989186134,-0.205528800753371,-1.77829865429602,-1.185666069504,-1.01097748686018,6.63290557852964,5.4775881588826,-0.169310579065915,-22.1108077326491,3.70229642194384,-37.2918074132337,-5.33502389436425,7.15098747482454,-1.28817747375196,6.71331059024769,-20.8236295628334,22.1199401305704,-20.772941661707,0.17838836603807,-3.10513666507745,10.2853813207983,-57.4232216871948,-0.524243270159918,0.197042104134142,0,0,-5.42234140361045,-3.734138962369,-2.03985840528464,-0.0515483017160678,0.946459565391398,1.29990778018686,1.31115122236556,-3.49508819748217,-50.1590206828477,-47.7652924685065,-0.342494575195909,-4.19274984322474,-3.48636428412355,-3.45009716478852,-0.4816268427262,10.0919704210413,-1.74413878990835,-7.83993313903577,-2.68296185655849,10.2821303465121,-0.418573369403276,10.3887189998927,0.95413878990833,-6.25372826676587,41.7134708129174,-79.9394400975402,-2.19573776040689,9.42664442539607,-1.26652889979316,-7.72792853796052,-1.30534466943084,1.91465525171473,1004.58134213631,-0.0233875784423054,0.0710363129501666
81.295,-59.9172726780808,22.5622219867965,32.9300854287507,0.0877591364629616,2.71468171991235,2.03838814759962,1.95496286320517,-68.8850558833967,21.8752507189851,38.0943898405628,-0.203751899423299,-1.79748450705351,-1.25284825703681,-1.08116459102396,6.59613781006673,5.71474690970286,-0.205057420861136,-22.4237965205251,2.72754438230418,-38.6953016714958,-5.31065503632505,7.4252871043057,-1.2774138687083,6.82457685136537,-21.1530842542809,13.3841920820679,-21.0905437469482,0.239501968026161,-3.07281017303467,13.4750003814697,-52.6749992370605,-9.80000019073486,0,0,0,-5.47134155355629,-4.1622744252564,-2.53231916035422,-0.0589597888458773,0.947747317870497,1.24999887908202,1.25759495088239,-4.04969076978537,-50.2590419700522,-47.8680531161272,-0.336947230217572,-4.20668709502793,-3.5971804291011,-3.57102357762806,-0.580965547483294,10.11710335755,-1.82301148417222,-8.00638550936225,-3.16971493460348,10.4089407958432,-0.81435557083089,10.356448321225,1.03602296834443,-7.03397026016538,39.0678461467105,-81.1459058601921,-2.23620782864357,9.47395733341279,-1.24628020796847,-5.55060442380927,-1.06838577833003,0.665446695846342,1020.99191722863,-0.0145131249552245,0.0701252565795203
81.3,-59.7162769153523,21.3139483063951,31.9958067682761,0.0575521076614411,2.76149873958607,2.10175200775795,2.01778740298106,-68.7275192276973,18.30875418452,34.7351088030839,-0.202097687156519,-1.81985962714071,-1.29654747093911,-1.12948556661373,6.65578724059875,5.82161880607273,-0.229911350249482,-22.8380286769974,2.35933802099542,-39.3335260310977,-5.37776064567358,7.5495567512474,-1.24013297462578,7.30938189375521,-22.2208827020762,6.27474092246482,-21.0905437469482,0.239501968026161,-3.07281017303467,13.4750003814697,-52.6749992370605,-9.80000019073486,0,0,0,-5.52023233788737,-4.5189240905542,-2.93082850758017,-0.0669269743396017,0.950281313270429,1.20192974378949,1.20611452985383,-4.53859861309613,-49.7240677387593,-48.0729518729777,-0.332792356126748,-4.21085201867417,-3.70861342455195,-3.69363377255665,-0.566053189850289,10.161840430449,-1.82798227004988,-8.09843709968944,-4.48912106262648,10.0039137984036,-1.18467911871716,10.3340797847755,1.04596454009977,-7.84402425504463,38.24245022011,-81.2440942232078,-2.27847102330454,9.516220409561,-1.20818377418073,-2.34941829014795,-0.694334149627679,-1.41358449985859,1039.13528568212,-0.0026028493680727,0.0694801600892052
81.305,-59.5152715681614,20.0656151021905,31.0614835568188,0.0273436384408276,2.8083179917246,2.1651188894155,2.08148830319233,-68.5699750598785,14.7420875820306,31.3756675786308,-0.200443396008795,-1.84223581418323,-1.34024876863397,-1.17934132016389,6.71543951550779,5.92849579861809,-0.254766464794921,-23.252280586088,1.99111410180381,-39.9717808243631,-5.44486945494626,7.67383232397457,-1.20285030280763,7.79421005402414,-23.2887320677319,-0.835049250592979,-21.0905437469482,0.239501968026161,-3.07281017303467,13.4750003814697,-52.6749992370605,-9.80000019073486,0,0,0,-5.56912545357052,-4.87559076265497,-3.32935685768377,-0.0748945397477553,0.952815429503673,1.15385831632514,1.15499902310316,-5.02752976992762,-49.1890679972746,-48.2778604004045,-0.328637283911177,-4.21501714092437,-3.82005173367385,-3.81710690777302,-0.551140121123028,10.2065796366308,-1.83295329295896,-8.19049307948734,-5.80859010639637,9.59886748729286,-1.55502032544412,10.3117101816846,1.05590658591795,-8.65411687726616,37.4170149345889,-81.3422872683256,-2.32073623328164,9.55848550101968,-1.17008552376843,0.851920491748237,-0.320264684311498,-3.49271483395443,1057.27951930028,0.00930799415935793,0.0688350328375297
81.31,-59.3142758054329,18.8173414217891,30.1272048963443,-0.00286339036069287,2.85513501139832,2.22848274957382,2.14617254667129,-68.4124384041791,11.1755910475654,28.016386541152,-0.198789183742015,-1.86461093427042,-1.38394798253627,-1.23063586999438,6.77508894603981,6.03536769498795,-0.279620394183267,-23.6665127425603,1.62290774049506,-40.6100051839649,-5.51197506429479,7.79810197091627,-1.16556940872511,8.27901509641398,-24.3565305155273,-7.94450041019603,-21.0905437469482,0.239501968026161,-3.07281017303467,13.4750003814697,-52.6749992370605,-9.80000019073486,0,0,0,-5.61801623790159,-5.23224042795277,-3.72786620490972,-0.0828617252414798,0.955349424903605,1.10578918103262,1.10437061574025,-5.51643761323837,-48.6540937659816,-48.4827591572549,-0.324482409820353,-4.21918206457061,-3.9314847291247,-3.94119459414923,-0.536227763490024,10.2513167095298,-1.83792407883663,-8.28254466981453,-7.12799623441937,9.19384048985325,-1.92534387333039,10.2893416452351,1.06584815767329,-9.46417087214541,36.5916190079884,-81.4404756313412,-2.36299942794261,9.60074857716788,-1.13198908998069,4.05310662540955,0.0537869443908493,-5.57174602965936,1075.42288775377,0.0212182697465098,0.0681899363472146
81.315,-59.1421669585682,18.815518441672,28.9954219143191,-0.020799968930778,2.89738218240956,2.27858688774272,2.19869632828354,-68.3353437378125,8.64716219846364,25.1433634839829,-0.192415139767112,-1.89123091813333,-1.42765828951497,-1.28328308058658,6.9096390766052,6.06965669088629,-0.325167250986587,-23.8126901862484,1.714310537016,-42.2530971882179,-5.50793574174756,7.72277729790155,-1.03105194519247,8.44955768792068,-25.1906624655017,-15.8247366483059,-20.9282842294683,1.96069028944152,-2.51171465914454,21.9751316453881,-45.756877011332,-17.5326578118841,0,0,0,-5.66330213166045,-5.08433657516025,-3.96052568167698,-0.0838278196099079,0.930316771834815,1.06480039158902,1.0614069621661,-5.89469360305852,-47.7627641645455,-48.4975093610252,-0.319174378621178,-4.1979911281379,-3.99529859519491,-4.01802483606155,-0.604471825618592,10.2958582727842,-1.86275528005011,-8.3567423031091,-7.82203094083134,7.93417456998803,-2.24963026946462,10.2531073963044,1.06482834544314,-9.95825724837915,33.9713855752336,-80.6157082001128,-2.37817230911966,9.62533493814713,-1.14159469663004,6.2334967464087,0.445310278967576,-6.92148111816417,1083.93089782023,0.0287984689962336,0.0696183725210527
81.32,-58.9907854506573,19.7074581155641,27.7221119087833,-0.0299366015613281,2.93634910274477,2.31917909293947,2.24291412075115,-68.3159359911481,6.86328265485244,22.6192449965379,-0.182657281148705,-1.92089248517651,-1.47137297203456,-1.33716947986091,7.09788543942552,6.05189760005419,-0.385548159815741,-23.7666480989059,2.13526676414739,-44.6165910051327,-5.45288256016803,7.50434048066665,-0.826822400623258,8.39474567917962,-25.8571764917931,-24.2570160730315,-20.6496904566608,4.91590891465861,-1.54833378295412,36.569552206681,-33.8787092369948,-30.8093536505218,0,0,0,-5.70599944530426,-4.57465674336149,-4.07424412152318,-0.0797737304045918,0.885519612900953,1.02889189179126,1.02418575663017,-6.19357615347629,-46.6159843418787,-48.3759130953275,-0.313039915301178,-4.1586206083062,-4.02496212976177,-4.06079601732643,-0.732337279609756,10.3402559998645,-1.90182527988075,-8.41813175289909,-8.06758873999132,6.06179635139321,-2.54087935911115,10.2069337601409,1.05594880002709,-10.2257398510356,30.0643855921705,-79.129206523055,-2.37391894677507,9.63724426803006,-1.18540407473355,7.68175064102695,0.849329575286013,-7.74816683365873,1085.52921599512,0.03327318365758,0.0725335100733484
81.325,-58.8393967241346,20.5994403215087,26.4487411855896,-0.039073669871275,2.97531788121361,2.3597732337714,2.28843312360315,-68.2965273190273,5.07931804712682,20.0950061467598,-0.172898957227803,-1.9505554666285,-1.51508973908433,-1.39217862793341,7.28614077875448,6.03413766238165,-0.445931947902385,-23.7206038160512,2.55624306453361,-46.9801975250095,-5.39782675338315,7.28589324729436,-0.622583117389009,8.3399310567335,-26.5237223007379,-32.689697590143,-20.3710833991375,7.87126845917498,-0.584906968044689,51.1646687014325,-21.9999750534366,-44.0866825870488,0,0,0,-5.74869879496513,-4.06495260753184,-4.1879679840216,-0.0757194478804446,0.840720317819128,0.992981679700342,0.987677847791076,-6.49247295607805,-45.4691498351328,-48.2543110313243,-0.306905159459919,-4.11924821109528,-4.05462707883125,-4.10338524593408,-0.860208830852076,10.3846558440458,-1.94089714276035,-8.47952413003875,-8.31315824854995,4.18932884863365,-2.83214233694088,10.1607579221923,1.04706883119081,-10.4932352085726,26.1571993042108,-77.6426339623162,-2.36966538160932,9.64915416580817,-1.2292155418828,9.13007359548472,1.25336813722346,-8.57489196957748,1087.12761038565,0.0377481116952393,0.0754487866336814
81.33,-58.688007997612,21.4914225274534,25.1753704623958,-0.0482107381812219,3.01428665968245,2.40036737460333,2.33532360483024,-68.2771186469065,3.2953534394012,17.5707672969817,-0.163140633306901,-1.98021844808048,-1.5588065061341,-1.44818701077814,7.47439611808344,6.01637772470912,-0.506315735989029,-23.6745595331965,2.97721936491984,-49.3438040448863,-5.34277094659826,7.06744601392207,-0.41834383415476,8.28511643428739,-27.1902681096828,-41.1223791072545,-20.0924763416143,10.8266280036913,0.378519846864738,65.7597851961841,-10.1212408698784,-57.3640115235759,0,0,0,-5.79139814462599,-3.55524847170219,-4.30169184652003,-0.0716651653562974,0.795921022737303,0.957071467609426,0.951910797829266,-6.79136975867981,-44.3223153283868,-48.1327089673212,-0.300770403618661,-4.07987581388436,-4.08429202790074,-4.14551984913069,-0.988080382094396,10.4290556882272,-1.97996900563995,-8.54091650717841,-8.55872775710858,2.3168613458741,-3.1234053147706,10.1145820842437,1.03818886235454,-10.7607305661097,22.2500130162512,-76.1560614015774,-2.36541181644357,9.66106406358628,-1.27302700903205,10.5783965499425,1.65740669916091,-9.40161710549622,1088.72600477618,0.0422230397328987,0.0783640631940145
81.335,-58.5366264897011,22.3833622013455,23.90206045686,-0.0573473708117719,3.05325358001767,2.44095957980009,2.38362681285727,-68.2577109002422,1.51147389579001,15.0466488095367,-0.153382774688494,-2.00988001512366,-1.60252118865368,-1.50506406296535,7.66264248090376,5.99861863387702,-0.566696644818183,-23.628517445854,3.39817559205123,-51.7072978618011,-5.28771776501873,6.84900919668717,-0.214114289585552,8.23030442554633,-27.8567821359741,-49.5546585319801,-19.8138825688067,13.7818466289084,1.34190072305516,80.3542057574769,1.75692690445871,-70.6407073622136,0,0,0,-5.8340954582698,-3.04556863990343,-4.41541028636622,-0.0676110761509812,0.751123863803441,0.921162967811668,0.916884133838062,-7.09025230909758,-43.17553550572,-48.0111127016235,-0.294635940298661,-4.04050529405266,-4.1139555624676,-4.18693757941931,-1.11594583608556,10.4734534153075,-2.01903900547059,-8.6023059569684,-8.80428555626856,0.444483127279273,-3.41465440441714,10.0684084480802,1.02930931693849,-11.0282131687661,18.343013033188,-74.6695597245196,-2.36115845409897,9.67297339346921,-1.31683638713556,12.0266504445607,2.06142599547935,-10.2283028209908,1090.32432295107,0.046697754394245,0.0812792007463101
81.34,-58.3852377631784,23.2753444072901,22.6286897336662,-0.0664844391217188,3.09222235848651,2.48155372063202,2.43335333517428,-68.2383022281214,-0.272490711935616,12.5224099597586,-0.143624450767592,-2.03954299657565,-1.64623795570345,-1.5626787964688,7.85089782023273,5.98085869620448,-0.627080432904828,-23.5824731629992,3.81915189243745,-54.0709043816779,-5.23266195823385,6.63056196331488,-0.00987500635130304,8.17548980310021,-28.523327944919,-57.9873400490916,-19.5352755112835,16.7372061734248,2.30532753796459,94.9493222522285,13.6356610880169,-83.9180362987407,0,0,0,-5.87679480793066,-2.53586450407378,-4.52913414886465,-0.063556793626834,0.706324568721616,0.885252755720752,0.882564324201999,-7.38914911169933,-42.0287009989741,-47.8895106376203,-0.288501184457402,-4.00113289684174,-4.14362051153709,-4.2273972553317,-1.24381738732788,10.5178532594888,-2.05811086835019,-8.66369833410805,-9.0498550648272,-1.42798437548028,-3.70591738224686,10.0222326101316,1.02042934810221,-11.2957085263032,14.4358267452284,-73.1829871637808,-2.35690488893323,9.68488329124732,-1.36064785428481,13.4749733990185,2.4654645574168,-11.0550279569095,1091.9227173416,0.0511726824319044,0.0841944773066432
81.345,-58.0240175581347,25.7056048926305,22.5668551239199,-0.0605607642786238,3.10070232048066,2.53226449400401,2.49458167208607,-68.2761479684954,-1.47274102001483,9.90040123083418,-0.118189195646803,-2.06441001175729,-1.6561513556007,-1.58708446519357,7.84225571263448,6.16409698141728,-0.590075353427575,-23.3858264810259,3.87784259616006,-56.816706814547,-5.17676713790346,7.13236629767939,0.0487967902551852,5.87265410693883,-27.630004763959,-62.2643021678209,-15.0998966314897,18.4891757607895,2.95166118157761,85.0738588596245,13.9848693160467,-50.0529043993505,6.87591135413888,0,0,-5.88370755990049,-2.1929358294527,-4.30275906953997,-0.05963219278602,0.56748045819401,0.897165941465502,0.896719749646434,-7.78658883925469,-38.6312652496992,-46.5781995982741,-0.283667765832439,-3.90918104483514,-4.16845387606724,-4.26184438362715,-1.30988696985863,10.4401507068552,-2.15981161643105,-8.98704963298856,-10.0420455056877,-3.05745208324416,-3.7466164310483,9.9933835689517,0.787106228327546,-10.9061095304427,10.8897382237458,-70.8903368744697,-2.37051108021349,9.64561734182989,-1.38189021678483,12.8928976086836,2.00368612304541,-13.2220965372866,1086.23310660621,0.056513433612375,0.0868938656694736
81.35,-57.6521178752424,28.2141459028891,22.5665746447756,-0.0538715677022008,3.10763359379699,2.58349182678719,2.55762770689967,-68.3169046584114,-2.64339339005058,7.2732935057589,-0.0919561330653837,-2.08903459356803,-1.66434772884601,-1.61022069007208,7.82360896238997,6.35755701520407,-0.548120165377426,-23.1815179521123,3.91812878495994,-59.5820659171664,-5.12082688716993,7.6707912109896,0.100075353427593,3.45548277894683,-26.6573810629337,-66.3303296516931,-10.4530930883366,20.1800898063911,3.58191594850321,73.9545690668014,13.7482885922963,-13.7908029945477,14.1015270738864,0,0,-5.88880236842658,-1.85846370586588,-4.05909247836041,-0.0557139843201151,0.423851044916864,0.911509594644792,0.913876604220337,-8.18905537272428,-35.1193079242518,-45.2063746434076,-0.278900224970602,-3.81455306319909,-4.19304299580316,-4.29467226838747,-1.37281975193384,10.3562403307549,-2.26469958655641,-9.32372706795886,-11.0722209049985,-4.67465480506738,-3.77458655641505,9.96541344358494,0.542367631368367,-10.4831045480441,7.36181911884322,-68.5566155089917,-2.38502539391834,9.60374921898932,-1.40198692463976,12.207629635004,1.49789304655889,-15.4573755361265,1080.17291277674,0.0618984442215167,0.0895824201773205
81.355,-57.280235925503,30.7225672993287,22.5662941790053,-0.047182690084226,3.11456453661202,2.6347167169167,2.62183753660008,-68.3576594049415,-3.813989940309,4.64631104807466,-0.0657243213452354,-2.11365800121409,-1.67254371126673,-1.63365285233481,7.80496310127144,6.55100782430871,-0.506166977860754,-22.9772191651656,3.9584130528086,-62.3472931602062,-5.06488930381436,8.20919045078688,0.151351471503531,1.03842670802751,-25.684803739159,-70.3961632567038,-5.80651111697169,21.8709232247733,4.21214066322744,62.8358094708977,13.5117191493358,22.4695693380919,21.3267982573131,0,0,-5.89389693401883,-1.52400753078773,-3.8154375058434,-0.0517959626846729,0.280228480267091,0.925852563881054,0.931502306524793,-8.59150271553331,-31.6075180581467,-43.8346151007553,-0.274132911437626,-3.71992959367355,-4.21763094306533,-4.32596153423029,-1.43574953320884,10.2723339557215,-2.36958255534809,-9.66038844926547,-12.1023471828427,-6.29178041442055,-3.80255534809282,9.93744465190715,0.297640704187797,-10.0601197356332,3.83406823438238,-66.2230054214732,-2.39953901554263,9.56188309253073,-1.42208267423093,11.5223943366998,0.992124087613689,-17.6925479509973,1074.11300791322,0.06728319805922,0.0922708464878325
81.36,-56.9083362426107,33.2311083095873,22.5660136998611,-0.040493493507803,3.12149580992835,2.68594404969987,2.68702949048,-68.3984160948576,-4.98464231034475,2.01920332299937,-0.0394912587638157,-2.13828258302484,-1.68074008451204,-1.65722701402032,7.78631635102692,6.7444678580955,-0.464211789810605,-22.772910636252,3.99869924160847,-65.1126522628256,-5.00894905308083,8.7476153640971,0.202630034675939,-1.37874461996449,-24.7121800381336,-74.4621907405761,-1.15970757381857,23.561837270375,4.84239543015304,51.7165196780746,13.2751384255854,58.7316707428947,28.5524139770605,0,0,-5.89899174254492,-1.18953540720091,-3.57177091466384,-0.047877754218768,0.136599066989946,0.940196217060344,0.949480832502972,-8.9939692490029,-28.0955607326993,-42.4627901458888,-0.269365370575789,-3.6253016120375,-4.24222006280125,-4.35558689963968,-1.49868231528406,10.1884235796213,-2.47447052547345,-9.99706588423578,-13.1325225821536,-7.90898313624376,-3.83052547345957,9.90947452654039,0.052902107228618,-9.6371147532346,0.306149129479774,-63.8892840559952,-2.41405332924748,9.52001496969016,-1.44217938208586,10.8371263630201,0.486331011127173,-19.9278269498372,1068.05281408376,0.0726682086683617,0.0949594009956795
81.365,-56.5655696872316,33.8584536551331,23.4993766174669,-0.0304503643910124,3.06507577114736,2.72918315752442,2.74497625815131,-68.4291584795678,-4.26922938954584,0.368363435314338,-0.0183954828916465,-2.13282442660098,-1.7230274701844,-1.71487686405049,7.74435497390389,6.92933334823474,-0.364761894118028,-23.1265459349026,3.94155308826864,-66.7037358521129,-4.64439822524225,9.14387015657656,0.0495237882361068,-1.17582158157203,-21.7901765775521,-75.5620757496547,0.414338409900665,24.1346130371094,5.05588626861572,47.9500007629395,13.1949996948242,71.0149993896484,31,0,0,-5.89732999387773,-0.965041538876178,-3.20775239705509,-0.0519978836308219,0.000869354395054214,0.946417395495582,0.959561097075251,-9.27256840562677,-25.9051687617543,-40.3731915624907,-0.269730889242183,-3.53424208544157,-4.25054931640625,-4.36719675797244,-1.44251081283456,10.2297402684489,-2.47125540641728,-10.0537117132108,-13.5446208191718,-9.04417729530331,-3.66177486951952,9.96199134973232,-0.0578961073795238,-9.20491685772893,-2.34109365576672,-62.0636629566299,-2.43158986302872,9.49247032180321,-1.46568982582674,9.88357605698541,0.0492120897029042,-22.0464844607909,1066.92987024599,0.0790961804271327,0.09564778606546
81.37,-56.2377031802623,33.5221163976088,24.911108039683,-0.0186883068905853,2.97619707936442,2.76833305275805,2.79929407727117,-68.4547727989578,-2.58754234752315,-0.782458000150847,7.00060398259005e-05,-2.11195462882896,-1.78278257343573,-1.78982140115155,7.6904465952144,7.10980922471696,-0.23585055377358,-23.7660387792601,3.83448867541241,-67.6933582628379,-4.12172133620931,9.46732042871353,-0.208298892452791,0.369378322893377,-17.8693041607906,-75.1424989965695,0.414338409900665,24.1346130371094,5.05588626861572,47.9500007629395,13.1949996948242,71.0149993896484,31,0,0,-5.89220677235775,-0.79687283327687,-2.78205189315728,-0.0602363134982326,-0.130823166021706,0.948477916297352,0.96557250647711,-9.48773096847006,-24.3916506558423,-37.9157301785106,-0.272726076936284,-3.44500409523263,-4.25054931640625,-4.3686693532456,-1.3253186852487,10.3352131832762,-2.41265934262435,-9.96690272981386,-13.6401107009084,-9.93252255873193,-3.39223297607205,10.055745051801,-0.100085273310435,-8.76797830796437,-4.53736093570912,-60.4982076227052,-2.45067593080841,9.47226153757983,-1.49095080610597,8.79251718822216,-0.352756901769624,-24.1055501067103,1068.33617577702,0.0860589199062991,0.0953115432198331
81.375,-55.9098523068285,33.1857951775276,26.3227721468399,-0.00692681023592878,2.88732262555076,2.80748108122193,2.85374762791688,-68.4803858969898,-0.905935492752125,-1.93322456142971,0.0185346144883243,-2.09108582618367,-1.84253482740691,-1.86443321647988,7.63654078701789,7.29027649563574,-0.10694536026016,-24.4055011309203,3.72742936766838,-68.6829334857692,-3.59906936978218,9.79075527789265,-0.46610927947963,1.91450454817203,-13.9486187015161,-74.722942250005,0.414338409900665,24.1346130371094,5.05588626861572,47.9500007629395,13.1949996948242,71.0149993896484,31,0,0,-5.88708379512641,-0.628712146402795,-2.35637168777672,-0.0684743505356857,-0.262509406993472,0.950538338848082,0.971545145597805,-9.70288327179766,-22.8782047184458,-35.4583859727387,-0.275721121811975,-3.35577036012526,-4.25054931640625,-4.36831973630346,-1.20813214569105,10.4406810688781,-2.35406607284553,-9.88009788569709,-13.7355960294369,-10.820825463527,-3.12270393508945,10.1494942834471,-0.142272427551191,-8.33106059257658,-6.73352349186362,-58.9328269337992,-2.4697610885143,9.45205371696431,-1.51621058187536,7.7015103440092,-0.754706726305691,-26.1645175709757,1069.74241425171,0.0930213273837739,0.0949753164071475
81.38,-55.5819857998592,32.8494579200033,27.734503569056,0.00483524726449833,2.79844393376782,2.84663097645556,2.90798640637664,-68.5060002163797,0.775751549270568,-3.0840459968949,0.0370001034197967,-2.07021602841165,-1.90228993065824,-1.93856388638013,7.5826324083284,7.47075237211796,0.0219659800842886,-25.0449939752777,3.62036495481216,-69.6725558964943,-3.07639248074924,10.1142055500296,-0.723931960168527,3.45970445263744,-10.0277462847546,-74.3033654969199,0.414338409900665,24.1346130371094,5.05588626861572,47.9500007629395,13.1949996948242,71.0149993896484,31,0,0,-5.88196057360643,-0.460543440803487,-1.9306711838789,-0.0767127804030964,-0.394201927410233,0.952598859649852,0.977357182995764,-9.91804583464095,-21.3646866125339,-33.0009245887585,-0.278716309506076,-3.26653236991632,-4.25054931640625,-4.36617062199413,-1.09094001810519,10.5461539837053,-2.2954700090526,-9.79328890230017,-13.8310859111736,-11.7091707269556,-2.85316204164198,10.2432479855158,-0.184461593482102,-7.89412204281201,-8.92979077180602,-57.3673715998745,-2.48884715629399,9.43184493274093,-1.54147156215459,6.61045147524594,-1.15667571777822,-28.2235832168951,1071.14871978274,0.0999840668629403,0.0946390735615207
81.385,-55.2542390819939,32.166724253948,28.9283243784011,0.019290615288092,2.6512663703553,2.90387668517111,2.97972864715584,-68.5110797721579,1.86217702354948,-3.61357900451568,0.0523844702252669,-2.01572820086943,-1.94517095547294,-1.99518717669663,7.55858595289969,7.61338981683207,0.100953994766653,-25.7489192496589,3.41422299753615,-70.2421606553509,-2.71516224596834,10.4693171260274,-0.856150130834222,4.1936628332174,-7.66374315818895,-73.3050312438139,0.125306628619302,22.8107788959328,4.60485962123588,45.2253915784303,14.2267450858844,72.5475922151499,32.049394243294,0,0,-5.87885932922363,-0.427194035448254,-1.57050206066837,-0.0816114129870114,-0.50904529586143,0.927847179891361,0.956089037193332,-10.1066743644358,-19.764024142929,-30.5329241353393,-0.282467293812553,-3.18494723795935,-4.23125977578891,-4.34298964961223,-1.01236804186694,10.6452978063654,-2.21611624073497,-9.88913992666113,-13.6309569705035,-12.6143782310974,-2.74056172263144,10.343883759265,-0.183288146534316,-7.5330523816497,-8.82120048141187,-55.382136556294,-2.47526733247918,9.31039677260334,-1.56841546861782,5.82979649232445,-1.88415231339984,-30.4282870637137,1072.38159790665,0.108248289800041,0.0940651457154148
81.39,-54.9266365129876,30.9525520741219,29.7880246694296,0.0378791433478897,2.41464325922639,2.9888874492107,3.07825789422844,-68.4846605671221,2.03563014680943,-3.19014837529778,0.063044397564474,-1.90966529167423,-1.96217310828086,-2.02515616495959,7.58034339661791,7.69800209795852,0.10337148851312,-26.5517659383013,3.05607577583692,-70.1675466508302,-2.60154003988427,10.8730385816878,-0.795712787172478,3.683303042296,-7.68761963963556,-71.4187892095313,-0.607121418388038,19.4560846464458,3.46192452591809,38.3210291065203,16.8412647017996,76.431296509062,34.7086373644108,0,0,-5.87885932922363,-0.600647151503508,-1.31081151511636,-0.0813875434102941,-0.598056723660817,0.861963837760676,0.893334488827833,-10.2546237109273,-18.029492852692,-28.0484590266538,-0.287378088290418,-3.11509137743506,-4.18237864410368,-4.28856281779018,-0.993028091895181,10.7347450749847,-2.10491152839736,-10.2651945094453,-12.9773382909024,-13.5455610075154,-2.86868889119435,10.4550884716026,-0.115598321633169,-7.28831844682189,-5.17705250062224,-52.7527390369855,-2.41157790576249,9.0336374325007,-1.5979441614286,5.5251923402123,-3.11103037244199,-32.8566595504866,1073.34859540524,0.118509926550748,0.0931265507585154
81.395,-54.5990495649315,29.7384377892118,30.6476839676919,0.0564667850578848,2.17803143090843,3.07389415971396,3.17542178192145,-68.4582426218234,2.20907499936924,-2.76673793636354,0.0737038166103692,-1.8036074398369,-1.97917445038151,-2.05421660944765,7.60209980288411,7.78261034454934,0.105788866987142,-27.3545743451066,2.69794563153717,-70.0929362041011,-2.48792325160518,11.2767407868497,-0.735278325321894,3.17296758666886,-7.71149498258887,-69.5326371162192,-1.33951454130387,16.1015503575848,2.31904392874522,31.4169958527332,19.4556596505577,80.3148156177609,37.3677536858365,0,0,-5.87885932922363,-0.774091996858968,-1.0511333522911,-0.0811636845082657,-0.68706390716172,0.796083637120652,0.83016706999267,-10.4025660028055,-16.2950442694591,-25.564112383785,-0.292288648608715,-3.04523884782154,-4.1334998431991,-4.23259833573159,-0.973689064102998,10.8241880785236,-1.9937121185923,-10.6412311609601,-12.3237507775553,-14.4766993826947,-2.99680995031759,10.5662878814077,-0.0479117243605215,-7.04359618155039,-1.53307828237222,-50.1234668942515,-2.34789151592481,8.75689128900973,-1.62747144623381,5.22060271242554,-4.3378499307184,-35.2849162460862,1074.31554679485,0.128771073999685,0.0921880005562869
81.4,-54.2714469959252,28.5242656093857,31.5073842587204,0.0750553131176824,1.94140831977952,3.15890492375355,3.27086045318097,-68.4318234167877,2.38252812262919,-2.34330730714563,0.0843637439495763,-1.6975445306417,-1.99617660318943,-2.08225059789148,7.62385724660234,7.86722262567579,0.108206360733609,-28.157421033749,2.33979840983795,-70.0183221995805,-2.3743010455211,11.6804622425102,-0.674840981660149,2.66260779574747,-7.73537146403547,-67.6463950819367,-2.07194258831121,12.7468561080978,1.17610883342743,24.5126333808233,22.0701792664729,84.198519911673,40.0269968069532,0,0,-5.87885932922363,-0.947545112914222,-0.791442806739086,-0.0809398149315483,-0.776075334961107,0.730200294989968,0.766548575164097,-10.550515349297,-14.5605129792221,-23.0796472750995,-0.297199443086581,-2.97538298729725,-4.08461871151388,-4.17522655105377,-0.954349114131244,10.913635347143,-1.88250740625469,-11.0172857437442,-11.6701320979542,-15.4078821591127,-3.1249371188805,10.6774925937453,0.0197781005406258,-6.79886224672258,2.11106969841742,-47.494069374943,-2.28420208920812,8.48013194890708,-1.65700013904459,4.91599856031339,-5.56472798976055,-37.7132887328591,1075.28254429344,0.139032710750392,0.0912494055993876
81.405,-53.9517466948276,25.7365789711576,31.7049634849603,0.0946561496416286,1.66586860885502,3.20063741870331,3.32095163843076,-68.4107480057809,2.17255629349411,-1.85451273297687,0.104858760519152,-1.56086643622584,-2.01056958580381,-2.1065446095771,7.70608154923609,8.03249383146824,0.064821797971251,-28.5349790136072,1.73858825469706,-69.0247681281295,-2.2306614659921,12.2739954639484,-0.698778755327363,2.19071386351167,-8.77536082718478,-65.3644943034736,-2.58887602347449,10.251731942308,0.385448965982289,19.762888178067,23.120259325796,82.761100500242,47.326982030257,0.0167089983146105,-0.00491097359520558,-5.90244048771067,-1.70518447855274,-0.709218437988476,-0.0785606932939714,-0.862868402777276,0.614333140406408,0.652498286450959,-10.6912352875252,-12.4027419444719,-20.634969976895,-0.301392012905561,-2.91062509104709,-3.99796438506548,-4.07882611261746,-0.989224011165665,11.0211323928919,-1.81146312588791,-11.132299506179,-10.7564626120359,-16.4234291282701,-3.26652680507442,10.7910178700496,0.15428769035216,-6.75297672619656,4.18296931380452,-44.9787945278146,-2.28442824233598,8.36135481477238,-1.660659601165,4.58851767031968,-6.54344153234883,-40.6029850407606,1074.04452558383,0.149121580680492,0.0907068202278603
81.41,-53.6547112594402,18.4235416289238,29.9985681798968,0.117171626812161,1.27836847794708,3.11792560861833,3.24422940010816,-68.405035440769,0.859959768166889,-1.17766571415658,0.153639580718573,-1.33612532940419,-2.01746223664422,-2.12212339429015,7.9622009819804,8.42974029858186,-0.11028026319068,-27.6896364666305,0.438309451522995,-65.3885045768213,-2.0006766692421,13.4134655933006,-0.965352042469396,1.82934605717049,-12.7375007038541,-61.944406136316,-2.48622357306052,10.2279467856043,0.607653982261226,21.2081337280051,19.6717939368631,66.0218658467944,67.9733444657678,0.0814698766465291,-0.0239449669861964,-5.99383654311454,-4.1428637042691,-1.1373048226404,-0.0699834380048303,-0.943298342101288,0.354709935384609,0.394276798509576,-10.8111921740739,-9.02749388224811,-18.3042556529626,-0.303520013675857,-2.86051505401135,-3.80267254894391,-3.87269001400462,-1.18000685392419,11.1805536724572,-1.85589200707825,-10.496679346811,-9.09481600252062,-17.6817634539224,-3.44685579343521,10.9112371956235,0.480970640281129,-7.27889594435381,1.73405712618884,-42.7912287001421,-2.46845159534086,8.69685310989791,-1.58992956595035,4.19519136869649,-6.80870817741731,-44.8198091167397,1066.46548114548,0.158715502752759,0.0913029091426052
81.415,-53.3576899874819,11.1108529915032,28.2922542402398,0.13968603038565,0.890886824062351,3.03521774244954,3.16489290382619,-68.3993231481472,-0.452574169113157,-0.500850969178506,0.202418074920465,-1.11139493882834,-2.02435455882495,-2.13642591429475,8.21830820227799,8.82696782394138,-0.285373975026788,-26.8443342278051,-0.861907350945212,-61.7524144121025,-1.7707028387708,14.5528813897266,-1.23191261869749,1.4679954817947,-16.6994516552957,-58.5244810479381,-2.3835760173848,10.2041627630393,0.82984840322182,22.6533103648424,16.2234929798102,49.2834293639865,88.6187224285323,0.146227667009807,-0.0429780527864286,-6.08522824051462,-6.58042669504241,-1.56537079501002,-0.061406591701732,-1.02372444631471,0.095099109878593,0.135717619284129,-10.9311433407635,-5.65240676071011,-15.9736524636059,-0.305647912977492,-2.81040740635368,-3.60739002484961,-3.66562321792714,-1.37078059965607,11.3399673503975,-1.90031876978294,-9.86108949548042,-7.43324862467663,-18.9400377788916,-3.62717618323657,11.0314507888244,0.807638013109681,-7.80479008530249,-0.714738290866679,-40.6037671813495,-2.65246617362931,9.03233540758423,-1.51920290332942,3.80188382190362,-7.07396217387597,-49.0364321234801,1058.88679809586,0.168308967361644,0.0918989696342662
81.42,-53.0606545520945,3.79781564926945,26.5858589351764,0.162201507556182,0.503386693154408,2.95250593236456,3.08274499811849,-68.3936105831353,-1.76517069444038,0.175996049641782,0.251198895119886,-0.886653832006693,-2.03124720966537,-2.14941842361541,8.47442763502231,9.224214291055,-0.46047603618872,-25.9989916808284,-2.16218615411927,-58.1161508607944,-1.54071804202081,15.6923515190788,-1.49848590583952,1.10662767545352,-20.6615915319651,-55.1043928807805,-2.28092356697083,10.1803776063356,1.05205341950076,24.0985559147804,12.7750275908773,32.544194710539,109.265084864043,0.210988545341726,-0.0620120461774194,-6.17662429591848,-9.01810592075878,-1.99345717966194,-0.052829336412591,-1.10415438563872,-0.164524095143207,-0.123108993645785,-11.0511002273123,-2.27715869848632,-13.6429381396735,-0.307775913747789,-2.76029736931794,-3.41209818872804,-3.45775911007063,-1.56156344241459,11.4993886299628,-1.94474765097328,-9.22546933611245,-5.77160201516138,-20.198372104544,-3.80750517159736,11.1516701143982,1.13432096303865,-8.33070930345975,-3.16365047848236,-38.416201353677,-2.83648952663419,9.36783370270976,-1.44847286811478,3.40855752028042,-7.33922881894444,-53.2532561994593,1051.3077536575,0.177902889433911,0.0924950585490111
81.425,-52.9019874500746,-0.358745723962784,23.881709694441,0.184357754670572,0.134467335539848,2.76857918619306,2.89645203894361,-68.3852827633633,-1.76070801803503,0.609357127651356,0.299533001763777,-0.646195782845313,-1.9942946046122,-2.11725095437237,8.59675505617978,9.58365842696628,-0.639032808988767,-25.5443462338743,-3.85112054376472,-53.9085520876682,-1.61920449438204,16.2237752808989,-1.71741033707863,2.35476099320292,-25.104631432931,-51.4228625329449,-2.26071366406559,10.108124609015,1.11822375324335,23.549129505629,10.0502409929854,19.0353569936002,126.462561797753,0.24867549424225,-0.0677665903030821,-6.28953931264127,-11.5710898991274,-2.96830713887769,-0.0434648757887772,-1.15789789038681,-0.359088689477256,-0.317011020712294,-11.1167405945424,-0.608916467259439,-11.4156581526299,-0.310628413720649,-2.73098512551891,-3.25716332795647,-3.28960316466919,-1.70486741573035,11.692277752809,-1.97232449438205,-8.78527951172146,-5.06104480510471,-21.1331158274379,-3.82283146067418,11.2618408988764,1.35602966292134,-8.75876820640865,-5.3303870162297,-36.7825540296851,-2.95862086401093,9.56631726245666,-1.38154893859049,4.02298022735253,-7.485932345101,-58.4975071438564,1046.41887640449,0.185455314605424,0.0912024597043402
81.43,-52.9255313597261,-0.358745723962784,19.8632381619754,0.206043350362786,-0.210022246547198,2.45133391556043,2.5738586579764,-68.3735097812267,-0.0217021809481504,0.72209959408368,0.347284135092534,-0.385012243601205,-1.89959452382634,-2.02604984869979,8.54289438202248,9.89335730337079,-0.8221591011236,-25.6041914273825,-6.05209377167428,-48.94805049244,-2.10395056179776,15.9544719101123,-1.87360629213482,5.72271549452072,-30.1814986822028,-47.3966109030379,-2.34907684219017,9.9720323770073,0.978906599912751,20.3726962266558,8.2782249621702,9.77939991365926,139.119820224719,0.250710741466351,-0.056032980556401,-6.43080687979366,-14.2762101757607,-4.66334234378562,-0.0330626456312188,-1.17650179104251,-0.467993790406859,-0.425245941226045,-11.1108543603018,-1.18858510369933,-9.3243531977076,-0.314435380934095,-2.72905995310845,-3.15536074111167,-3.17405091542225,-1.78565842696631,11.9292647191011,-1.97771056179777,-8.60241919822444,-5.60297627965042,-21.6417999722569,-3.62085393258429,11.3587901123596,1.43951370786516,-9.05799417394923,-7.12574282147315,-35.8782266611181,-2.99925505245937,9.58437687323067,-1.31963018594163,5.96465766941028,-7.47650663980205,-65.0954397281261,1045.07235955056,0.190319960456216,0.087422351115875
81.435,-52.9490741467422,-0.358745723962784,15.8449582407788,0.227727912028885,-0.554495402466873,2.13410377201491,2.24831915191085,-68.3617373604568,1.71722073577648,0.834836684659317,0.395032991521933,-0.123841158273712,-1.80489895858887,-1.93363078685171,8.48903627608348,10.2030414125201,-1.00527666131622,-25.6640337673147,-8.25296205140399,-43.9877854269465,-2.58867351524879,15.6851813804173,-2.02979479935795,9.09050940292886,-35.2581238531201,-43.3705512553752,-2.43743580692653,9.83594663423443,0.839596089589653,17.1964144083577,6.50629342572991,0.523884182043672,151.776475120385,0.252745891644522,-0.0442999302990268,-6.57206771093769,-16.9812014651597,-6.35829672496645,-0.0226609114792945,-1.19510480461539,-0.576893698455434,-0.533312469248796,-11.1049684067324,-1.76822610001732,-7.23314796169405,-0.318242166621353,-2.72713487249526,-3.05356300848139,-3.05807096582081,-1.86644558587482,12.1662403852328,-1.98309637239167,-8.41956760398707,-6.14488191348115,-22.1504598616808,-3.41888603531303,11.4557347030498,1.52299377207062,-9.35720587361038,-8.92101301943999,-34.9739424132533,-3.03988730336307,9.60243562287503,-1.2577143857414,7.90624252719175,-7.46708138394547,-71.6930577056542,1043.72590690209,0.195184374347927,0.0836424227729081
81.44,-52.9726180563937,-0.358745723962784,11.8264867083133,0.249413507721099,-0.898984984553919,1.81685850138228,1.91989517495547,-68.3499643783202,3.45622657286336,0.94757915109164,0.44278412485069,0.137342380970396,-1.71019887780301,-1.84008468755465,8.43517560192618,10.5127402889246,-1.18840295345105,-25.7238789608228,-10.4539352793136,-39.0272838317183,-3.07341958266451,15.4158780096308,-2.18599075441414,12.4584639042467,-40.3349911023918,-39.3442996254682,-2.52579898505111,9.69985440222677,0.700278936259054,14.0199811293845,4.7342773949147,-8.73207289789729,164.433733547352,0.254781138868623,-0.0325663205523456,-6.71333527809008,-19.686321741793,-8.05333192987438,-0.0122586813217361,-1.21370870527109,-0.685798799385037,-0.641059078665049,-11.0990821724918,-2.34789473645722,-5.14184300677172,-0.322049133834798,-2.7252097000848,-2.95176042163659,-2.94172134092452,-1.94723659711078,12.4032273515249,-1.98848243980739,-8.23670729049004,-6.68681338802686,-22.6591440064998,-3.21690850722314,11.5526839165329,1.60647781701444,-9.65643184115096,-10.7163688246834,-34.0696150446862,-3.08052149181152,9.62049523364905,-1.19579563309255,9.8479199692495,-7.45765567864652,-78.2909902899239,1042.37939004815,0.200049020198719,0.079862314184443
81.445,-53.0123074052593,-0.0874722652091926,8.64330314573776,0.261701476589544,-1.07313135790873,1.44494675786622,1.53409483549657,-68.2433494737121,7.33712123626371,1.78162492770555,0.485806115663525,0.367137385192322,-1.5372678592327,-1.66732112850757,8.4445755883276,10.6094521493568,-1.26457558832759,-24.6951696514002,-11.6855464522152,-36.8104433520436,-3.77901939127705,14.2927018512708,-2.08254647003453,14.9454238089151,-42.0968407922618,-36.5341621634185,-2.55069589614868,9.66150951385498,0.661025404930115,13.125,4.2350001335144,-11.3400001525879,168,0.255354583263397,-0.0292602982372046,-6.87296326729733,-18.8208665451706,-9.76497900838525,-0.00327973482395886,-1.16776963063931,-0.827831934831492,-0.781448610512934,-11.1304788423998,-4.41013445619584,-4.22466212082067,-0.32873185478105,-2.75762289361651,-2.85992404974551,-2.8350099645656,-1.84712205836212,12.5002468779417,-1.99945214935677,-9.76054341131214,-5.97831034255675,-22.1816613015065,-2.77246187637279,11.7161109507374,1.65835644807028,-10.0558123859661,-13.9014981386574,-32.9372819362611,-3.09197044372559,9.62558364868164,-1.17834961414337,10.3950004577637,-7.45499992370605,-80.1500015258789,1042,0.201419666409492,0.0787972435355186
81.45,-53.0583334351544,0.290242976922019,5.7876015530545,0.270303461595767,-1.18046164614701,1.05156402112138,1.12433464773428,-68.0995198874688,12.0585617746707,2.89870186257464,0.526975664494168,0.58463355403768,-1.33363444108816,-1.46303888291297,8.47879410103547,10.6226131157829,-1.29879410103546,-23.2393392911791,-12.5369472432374,-35.6698262617811,-4.57130957012865,12.8344667712582,-1.87723539378727,17.0869242718296,-42.5582870225104,-34.200934041457,-2.55069589614868,9.66150951385498,0.661025404930115,13.125,4.2350001335144,-11.3400001525879,168,0.255354583263397,-0.0292602982372046,-7.03980486438609,-16.5545750766942,-11.4832567606578,0.00514143686309276,-1.09650653661778,-0.98287101829916,-0.934209351003049,-11.1765041192183,-7.05414119033706,-3.7680430422435,-0.336543211468114,-2.80350958452878,-2.77199144413975,-2.73187953928288,-1.67602949482273,12.5423619705052,-2.01261311578288,-11.9540378156632,-4.7792000681782,-21.3172620251252,-2.23286225290244,11.9056288672733,1.69783934734859,-10.4945112668363,-17.632063436724,-31.7154243125041,-3.09197044372559,9.62558364868164,-1.17834961414337,10.3950004577637,-7.45499992370605,-80.1500015258789,1042,0.201419666409492,0.0787972435355186
81.455,-53.1043594650494,0.667958219053231,2.93189996037125,0.27890544660199,-1.28779193438528,0.658181284376548,0.712360428220626,-67.9556903012254,16.7800023130777,4.01577879744374,0.568145213324812,0.802129722883039,-1.13000102294363,-1.25814120936013,8.51301261374335,10.635774082209,-1.33301261374334,-21.7835089309579,-13.3883480342596,-34.5292091715186,-5.36359974898025,11.3762316912457,-1.67192431754,19.2284247347441,-43.0197332527591,-31.8677059194955,-2.55069589614868,9.66150951385498,0.661025404930115,13.125,4.2350001335144,-11.3400001525879,168,0.255354583263397,-0.0292602982372046,-7.20664646147484,-14.2882836082178,-13.2015345129303,0.0135626085501444,-1.02524344259626,-1.13791010176683,-1.08620437772013,-11.2225293960368,-9.69814792447828,-3.31142396366632,-0.344354568155177,-2.84939627544104,-2.68405883853399,-2.62840090374004,-1.50493693128334,12.5844770630687,-2.02577408220899,-14.1475322200142,-3.58008979379965,-20.4528627487439,-1.69326262943208,12.0951467838092,1.7373222466269,-10.9332101477065,-21.3626287347906,-30.4935666887471,-3.09197044372559,9.62558364868164,-1.17834961414337,10.3950004577637,-7.45499992370605,-80.1500015258789,1042,0.201419666409492,0.0787972435355186
81.46,-53.1503833003025,1.0456554507304,0.0763345350345806,0.287507021442992,-1.39511710483372,0.264817305153015,0.298510424399535,-67.8118675731543,21.5012177208086,5.13280246715287,0.609312799083319,1.01961552094026,-0.926377314574897,-1.05286379895165,8.54722949482273,10.6489344210856,-1.36722949482272,-20.3277479885492,-14.2397082282576,-33.3886464688724,-6.15585214935679,9.91806614370883,-1.46662303106369,21.3698230852963,-43.4811574800405,-29.5345890519743,-2.55069589614868,9.66150951385498,0.661025404930115,13.125,4.2350001335144,-11.3400001525879,168,0.255354583263397,-0.0292602982372046,-7.37348010311839,-12.0221002024665,-14.9197303332101,0.021983378693629,-0.953983746586084,-1.2929417925641,-1.23732166727909,-11.2685524782493,-12.3420285854393,-2.85482665788519,-0.352165552376253,-2.89528077835546,-2.59613042578564,-2.52452557891095,-1.33385252588641,12.6265901474741,-2.03893442108568,-16.3409220327953,-2.38103669614599,-19.5885046891887,-1.15368873548793,12.2846556636335,1.77680326325695,-11.3718881102627,-25.0930161497131,-29.2717673263683,-3.09197044372559,9.62558364868164,-1.17834961414337,10.3950004577637,-7.45499992370605,-80.1500015258789,1042,0.201419666409492,0.0787972435355186
81.465,-53.1703086726793,1.6080236970732,-0.48892735042637,0.294756682043244,-1.29140935348792,-0.114543442183586,-0.102876657692666,-67.4924268944774,25.9605199564612,8.31648557689069,0.63660293778157,1.28915454107973,-0.688352193331958,-0.813039266241751,8.46352962288821,10.3337654779911,-0.794354346655737,-21.7898291126601,-14.3940448169006,-36.4684018411384,-6.46211705591306,8.74753198143924,-1.29435332119875,21.6347129211059,-41.5329024515068,-25.587953982302,-2.61045856469962,9.49109717070878,0.738539324865212,11.5080039291603,3.02441481566207,-11.9798809809133,185.047017202041,0.251954785927274,-0.0219998443457477,-7.49498782996858,-12.3703961908171,-15.3159322296741,0.0242565174206547,-0.886208772040229,-1.27508738312489,-1.21461094324523,-11.4612768932935,-16.6331307218073,-4.72042726029141,-0.348949326888287,-2.95413396035147,-2.58466707336529,-2.49663988310398,-1.1445886635732,12.8301171584587,-2.13882328812779,-16.9211319145946,-2.5096581272054,-17.1455395628578,-0.541766093265322,12.6804696592919,1.73305893813928,-11.3464053776989,-27.8625938301039,-30.1336214740817,-3.09197044372559,9.62558364868164,-1.17834961414337,10.3950004577637,-7.45499992370605,-80.1500015258789,1042,0.201419666409492,0.0787972435355186
81.47,-53.187933790032,2.18663190474503,-0.852388848183967,0.301886865625678,-1.16911541383377,-0.492650850903847,-0.504171944109517,-67.1575312070088,30.3965168134469,11.6820719784236,0.662669085857893,1.56326535908552,-0.447308727482857,-0.570303104512651,8.36944586869024,9.98968774835285,-0.168025354423578,-23.5088903004747,-14.4869670432689,-39.9197988205346,-6.72555156766735,7.60239828748688,-1.12500256364241,21.7342724493578,-39.3724606884424,-21.4993760220942,-2.67548310149436,9.30568069005509,0.822878041009185,9.74863770514972,1.70724221523241,-12.6761008029955,203.594957315354,0.24825564978865,-0.0141001360050949,-7.61249613215104,-12.9490043984889,-15.5956486075879,0.0259879444488179,-0.81874431072572,-1.24200298801627,-1.1756952176627,-11.6669153966812,-21.0691270660773,-6.79051195772199,-0.344761793635432,-3.01412660296274,-2.57994073120691,-2.47492675481582,-0.953733047914481,13.0478538467455,-2.24634757863974,-17.3591938389026,-2.75523829689321,-14.5636291301941,0.0764985771784474,13.094438177763,1.6819849001461,-11.2800323588644,-30.5473824419612,-31.1789965207258,-3.09197044372559,9.62558364868164,-1.17834961414337,10.3950004577637,-7.45499992370605,-80.1500015258789,1042,0.201419666409492,0.0787972435355186
81.475,-53.2055597478366,2.76526770329033,-1.21586767756608,0.309017389210191,-1.04681564260555,-0.870776289637398,-0.906253508664756,-66.8226195500735,34.8327252004912,15.0478188676015,0.688736476895835,1.83738924803777,-0.206253767500628,-0.327912815045305,8.27535762811802,9.64559361140308,0.458333504242811,-25.2280334615471,-14.5798937006242,-43.3713603794444,-6.98899864126951,6.4572099879509,-0.955643730612446,21.8338367250955,-37.2119159049325,-17.4106030984625,-2.74051073897752,9.12025536783541,0.907220778836251,7.98918758593988,0.390006805561401,-13.372353824249,222.143781885303,0.244556337257096,-0.0062000509676542,-7.73001003770493,-13.5276401970342,-15.8753783237487,0.0277194540399027,-0.751276632375242,-1.20891701528164,-1.13581207182065,-11.8725637059201,-25.5053349403813,-8.86069536693061,-0.34057406070048,-3.07412210631706,-2.5752141636734,-2.45255465574342,-0.762868331325156,13.265600917784,-2.35387699643654,-17.7972766521489,-3.0008301770464,-11.9815955793943,0.694792729510083,13.5084264362807,1.63090842669262,-11.2136561750392,-33.2322990776901,-32.2244214159725,-3.09197044372559,9.62558364868164,-1.17834961414337,10.3950004577637,-7.45499992370605,-80.1500015258789,1042,0.201419666409492,0.0787972435355186
81.48,-53.1909202966287,4.2816239591699,-1.18341818038148,0.316821415521549,-0.901874393849014,-1.19586956000237,-1.25567273276172,-66.461473898163,38.8577907523639,18.5597389227611,0.71486389198089,2.13857636592387,0.0433107610328885,-0.0776077924827633,8.06134739649632,9.35279493241196,0.949373340607364,-26.9878978370179,-15.2921704432605,-47.129123364742,-7.20809650239436,5.60274789355642,-0.803806995211244,21.5237486501474,-35.1884830537838,-13.6541355442853,-2.79259300231934,8.9717435836792,0.974772989749908,6.57999992370605,-0.665000021457672,-13.9300003051758,237,0.241593465209007,0.000127324979985133,-7.85841666838613,-14.6446158315873,-16.1318183220286,0.0284311372045155,-0.702418439858905,-1.1583950400432,-1.07758053386187,-12.1102705175478,-30.0387026422897,-11.2967246447209,-0.33628104917289,-3.13223880646256,-2.57721175302005,-2.43615889568612,-0.605445717403176,13.4329155604049,-2.38585464023762,-18.0250763139127,-4.15399268254534,-9.06769566034077,1.28968818573074,13.8556869733891,1.62694029217431,-11.2929366132413,-35.7894153594705,-33.700827310914,-3.16226384834123,9.63806678220244,-1.21131479633196,10.88559788428,-7.87121076922045,-85.7697332501173,1030.20946838819,0.204806456698926,0.0772083651357769
81.485,-53.0464349626623,9.57191573927068,0.442332838326416,0.32733761943931,-0.665784645022513,-1.30762880094313,-1.3917326956365,-65.9946709488756,41.229300689281,22.6607300342339,0.741239115243826,2.54874341757133,0.327179263568439,0.2061938618138,7.36469612656845,9.2663491543917,0.895980360065452,-28.9120540434961,-18.4970048426313,-52.1200016164555,-7.24877686852155,5.91802073104201,-0.722446262956897,19.5650643551353,-33.7163309153853,-11.2340304297751,-2.79259300231934,8.9717435836792,0.974772989749908,6.57999992370605,-0.665000021457672,-13.9300003051758,237,0.241593465209007,0.000127324979985133,-8.03068853878806,-17.9282448444481,-16.2945973353426,0.0250390080063386,-0.728436786720516,-1.03769504467256,-0.948356383190116,-12.4770440209426,-34.9641467677656,-15.2055735401069,-0.331563347292625,-3.18280875509908,-2.60626915566465,-2.44600261949348,-0.582563011456632,13.3973202400436,-2.11380469176214,-17.4067096374425,-8.95967482303179,-4.81760185353565,1.79056519367158,13.9345051827605,1.81254446262955,-11.9583870468031,-37.8328504172476,-36.9119395445637,-3.51544863070807,9.70078750002664,-1.37694627713195,13.3505737417068,-9.96243593743507,-114.005721204293,970.968685215494,0.221823171109563,0.0692251457300787
81.49,-52.9019565181359,14.8619552643753,2.06800633695904,0.337853321916868,-0.429706153574843,-1.41938271290997,-1.52737777238064,-65.5278902579779,43.6006975463804,26.7615255996877,0.767613080866896,2.9588909113773,0.61103423050879,0.488998579193397,6.66807807480146,9.17990749833302,0.84258992544098,-30.8361185011566,-21.701686427087,-57.1106418899957,-7.28945529490211,6.2332785354913,-0.64108941019579,17.6064734553308,-32.2442489730643,-8.81404071222825,-2.79259300231934,8.9717435836792,0.974772989749908,6.57999992370605,-0.665000021457672,-13.9300003051758,237,0.241593465209007,0.000127324979985133,-8.20295219481508,-21.2117172852598,-16.4573685869262,0.0216470405537843,-0.754453892959065,-0.917000804594475,-0.818463601752012,-12.8438000356142,-39.889356035139,-19.1142360513189,-0.326845870364767,-3.23337629242774,-2.63532517277603,-2.45498016371937,-0.559681396617563,13.3617266169607,-1.84176771534218,-16.7883724463183,-13.7651278159815,-0.567710702357392,2.29141831848216,14.0133196338728,1.99813978299083,-12.6238057499418,-39.8761880386782,-40.1228986639546,-3.86861657229757,9.7635052271624,-1.54256986018823,15.8154320626156,-12.0535613905454,-142.240362792458,911.730726798812,0.238839074118597,0.0612423069852334
81.495,-52.7574711841695,20.1522470444761,3.69375735566694,0.348369525834629,-0.193616404748342,-1.53114195385073,-1.66225121911403,-65.0610873086905,45.9722074832975,30.8625167111605,0.793988304129832,3.36905796302476,0.89490273304434,0.770704285839286,5.97142680487359,9.09346172031276,0.789196944899069,-32.7602747076349,-24.9065208264578,-62.1015201417093,-7.33013566102929,6.54855137297689,-0.559728677941443,15.6477891603187,-30.7720968346658,-6.39393559771809,-2.79259300231934,8.9717435836792,0.974772989749908,6.57999992370605,-0.665000021457672,-13.9300003051758,237,0.241593465209007,0.000127324979985133,-8.375224065217,-24.4953462981207,-16.6201476002402,0.0182549113556074,-0.780472239820676,-0.79630080922384,-0.68806937438229,-13.210573539009,-44.8148001606149,-23.0230849467049,-0.322128168484502,-3.28394624106426,-2.66438257542062,-2.46308879056145,-0.536798690671019,13.3261312965994,-1.56971776686671,-16.1700057698482,-18.570809956468,3.68238310444774,2.79229532642301,14.0921378432442,2.18374395344607,-13.2892561835036,-41.9196230964552,-43.3340108976043,-4.22180135466442,9.8262259449866,-1.70820134098822,18.2804079200424,-14.14478655876,-170.476350746633,852.489943626114,0.255855788529234,0.0532590875795352
81.5,-52.5637217752692,25.3043396802812,5.88198886957677,0.358458310422379,0.0589317459757569,-1.57732295228167,-1.73042403759152,-64.5876208439754,48.4449389597448,34.7981695069666,0.821339584692921,3.80216518026602,1.16785174787419,1.04030444199122,5.47087871211657,9.05039758521858,0.739801207390696,-33.7363479706306,-25.155705820665,-66.6971736457884,-7.3239642661138,6.71268796877856,-0.491161046405269,13.9546968762775,-29.73081014425,-4.07922419238148,-2.7837995277308,8.96376429988783,0.979495409036731,6.65377119284038,-0.624544809335408,-13.396943401088,244.479114580157,0.2417833342484,0.000580984840512967,-8.58937217309508,-28.0279534111532,-17.2843057589984,0.014287436612953,-0.81176299474954,-0.696933159926903,-0.578723160394421,-13.6135785836497,-49.7478335845964,-27.2099558652932,-0.315224666410764,-3.33376153887229,-2.69647341003083,-2.47340355754763,-0.477165071040899,13.2279285322276,-1.291809256662,-15.6640061611706,-22.0987654320988,8.49387383602886,3.25586865052749,14.1160040246356,2.31796024147813,-13.8029599817514,-43.2208136750284,-46.396459735952,-4.54328762437448,9.95792554388599,-1.87473940969975,19.5379055204519,-16.3320431230388,-193.058802326174,800.772973961827,0.269006612070218,0.0464493581524611
81.505,-52.2338892368456,30.0757037182495,9.62396709840013,0.367368537302458,0.35697695567136,-1.4424104187516,-1.6160615507293,-64.0956673927151,51.1976488315432,38.2779275843496,0.851391265161614,4.29870197539057,1.41069430822832,1.27860046981346,5.51180218305993,9.12712909323737,0.701435453381311,-32.0943568525332,-17.2425717015265,-70.2021931478809,-7.18840526861394,6.45947399231659,-0.457910726263798,12.9947636072359,-29.8792208799242,-2.05515437180374,-2.75072029022932,8.9337478802156,0.997260176262424,6.93128348993189,-0.472360646352785,-11.3916932858362,272.614000853711,0.242497582408784,0.00228755965575776,-8.91920471151861,-32.2487756699002,-19.3331988920017,0.00873036770392791,-0.857619720146271,-0.656459399867882,-0.528222936723262,-14.1167134604101,-54.7027105732803,-32.1653674009477,-0.302283588860651,-3.38150171760271,-2.73694717008985,-2.49137296017639,-0.316028904201459,12.9568105372279,-0.997671809256674,-15.4682302970898,-22.0987654320988,14.8565894186562,3.61650673821576,13.9881181779377,2.31028709067626,-13.8976902385647,-42.4724446462032,-49.0489069267247,-4.77729249236365,10.2801418338406,-2.04381099689646,17.4610393993476,-18.7848937017335,-200.032417390503,769.824599060918,0.271483694803018,0.0428791340135428
81.51,-51.9040724257032,34.8468402450583,13.3657668998809,0.376278339319535,0.65500795378916,-1.3075043182052,-1.49997367623484,-63.6037373990865,53.9502274469105,41.7575197377349,0.881441512687313,4.79521509433758,1.65352528921184,1.51574079816181,5.55272370266479,9.20385694249647,0.663071528751766,-30.4524440288816,-9.32981490139041,-73.7070455214448,-7.05285273492286,6.20627208976157,-0.424661991584855,12.0348761103319,-30.027624538985,-0.0311810641871284,-2.7176426300327,8.90373289180504,1.01502409641739,7.20878255450876,-0.320183739910453,-9.38653878617253,300.747545582048,0.243211796511942,0.00399405309703654,-9.24902152266107,-36.4693966687645,-21.3819943284031,0.00317356377053266,-0.903474258973986,-0.615987569703962,-0.477929118169685,-14.6198243463792,-59.6573513004255,-37.1205426495749,-0.289343128375079,-3.42923961995612,-2.77741900025377,-2.5087718438958,-0.154900420757348,12.6857054698457,-0.703548387096792,-15.272463768116,-22.0987654320988,21.2190016103059,3.97712762973353,13.8602384291725,2.30261430575036,-13.9924159783907,-41.7241113015774,-51.7012276418541,-5.01128620238659,10.6023427596768,-2.21287452231617,15.3842723086706,-21.2376273220752,-207.005699934565,738.877699859748,0.273960659422012,0.0393090801122814
81.515,-51.5742398872797,39.6182042830266,17.1077451287043,0.385188566199614,0.953053163484763,-1.17259178467513,-1.38188963911112,-63.1117839478263,56.7029373187089,45.2372778151179,0.911493193156006,5.29175188946213,1.89636784956596,1.7518671328959,5.59364717360815,9.28058845051526,0.624705774742381,-28.8104529107842,-1.41668078225187,-77.2120650235372,-6.917293737423,5.9530581132996,-0.391411671443385,11.0749428412904,-30.1760352746592,1.99288875639061,-2.68456339253123,8.87371647213282,1.03278886364309,7.48629485160027,-0.167999576927831,-7.38128867092071,328.882431855601,0.243926044672326,0.00570062791228134,-9.5788540610846,-40.6902189275115,-23.4308874614064,-0.00238350513849244,-0.949330984370717,-0.575513809644941,-0.428095759604789,-15.1229592231396,-64.6122282891094,-42.0759541852294,-0.276402050824966,-3.47697979868654,-2.81789276031279,-2.52582588668453,0.00623574608209256,12.414587474846,-0.409410939691468,-15.0766879040351,-22.0987654320988,27.5817171929333,4.33776571742179,13.7323525824745,2.29494115494849,-14.087146235204,-40.9757422727522,-54.3536748326268,-5.24529107037576,10.9245590496313,-2.38194610951288,13.3074061875663,-23.69047790077,-213.979314998894,707.929324958839,0.276437742154812,0.0357388559733631
81.52,-51.361842956543,42.6907424926758,20.7663829494566,0.394440358567189,1.24773711269617,-1.08571434020996,-1.30962772934993,-62.7949886322021,58.4755554199219,48.1553857135811,0.930661004075399,5.74247506983483,2.05274724960327,1.90068448243762,5.64368582101009,9.34298899861842,0.582426648928026,-27.7945908452586,4.91848541645738,-80.6331462814193,-6.85674205597911,5.91988998618433,-0.368471882515485,10.1209815898213,-30.1574677681314,4.05941175615911,-2.67808435719973,8.86445194375751,1.06252790987934,7.80405862962724,-0.131506729027235,-4.99090163435802,366.865527298777,0.244578284015433,0.0069354555987095,-9.79125099182129,-43.4082336425781,-25.6732173505622,-0.00915075604331535,-0.963916819165646,-0.549450576305389,-0.39338747912325,-15.4469548606873,-67.8029403686523,-46.5502908207934,-0.261489872894658,-3.51398080435009,-2.84395599365234,-2.52840438090631,0.0504034181036802,12.1376161285371,-0.242157703525584,-15.9995473103628,-20.9970115914069,33.9023289574177,4.59139364478329,13.6217298265363,2.22199877193882,-14.0698557091264,-39.3864136254148,-56.6880679072359,-5.56781035538298,11.312666089358,-2.50308098593199,10.3601284475365,-25.7727511043419,-218.520810614085,676.615524740316,0.278442307229004,0.0326428616047058
81.525,-51.361842956543,42.6907424926758,24.2747591075811,0.404311236616658,1.53638045932388,-1.08571434020996,-1.32184420211469,-62.7949886322021,58.4755554199219,50.0579340676549,0.930143911371383,6.11038789070533,2.05274724960327,1.89251022411331,5.71021931126235,9.37947510617611,0.533063091644084,-27.9111768098583,8.40016626836799,-83.9028526522395,-6.93186051271554,6.28475106176126,-0.364179399273407,9.17769514896876,-29.8368563654821,6.20300369618626,-2.7197206783202,8.89272358300028,1.11393081589108,8.19467453915857,-0.304279179457055,-1.90353301336728,422.667809445837,0.245118445025028,0.00731712092952794,-9.79125099182129,-43.4082336425781,-28.265748916885,-0.0181079714678482,-0.921939729805401,-0.549450576305389,-0.385691678100742,-15.4469548606873,-67.8029403686523,-50.1550263059308,-0.243010239457725,-3.53156103165006,-2.84395599365234,-2.50519046326846,-0.117003428337507,11.8500197513176,-0.304398710535758,-18.94599259752,-17.9021841674863,40.147627106545,4.65148841017244,13.5423188865578,2.03098326766618,-13.849932184995,-36.2756881154125,-58.4474561002866,-6.05048363464598,11.8200127061958,-2.53752095956846,5.83799721282013,-27.1849780746122,-218.663534240926,644.636524586808,0.279592419260814,0.0304042710738472
81.53,-51.361842956543,42.6907424926758,27.7829679771229,0.414181643996755,1.8250100426793,-1.08571434020996,-1.331515073467,-62.7949886322021,58.4755554199219,51.9603917032299,0.929626843323703,6.47828316852697,2.05274724960327,1.88400075284989,5.77674962902319,9.41595947398045,0.483701888144106,-28.0277572153333,11.8816811045981,-87.1724031148787,-7.00697538760681,6.64959473980455,-0.359887120708196,8.23445368648938,-29.5162602504259,8.34649342412395,-2.7613550141116,8.92099387417709,1.16533127087736,8.58527182309818,-0.477043391643006,1.18368839378495,478.467430793635,0.245658580278329,0.00769876806154174,-9.79125099182129,-43.4082336425781,-30.8581568644988,-0.0270647597888418,-0.879964642022943,-0.549450576305389,-0.37915080652617,-15.4469548606873,-67.8029403686523,-53.7595899078198,-0.224531487178213,-3.54914042067865,-2.84395599365234,-2.48262808741081,-0.284402292380905,11.5624370874482,-0.366636749731371,-21.8922973904331,-14.8075043130596,46.3926274634661,4.71158031008546,13.4629117331013,1.8399768715141,-13.6300191473945,-33.1651109329664,-60.2067604010908,-6.53313389878028,12.3273351314154,-2.5719592910166,1.31608160518913,-28.5971377061942,-218.80625106233,612.659049275956,0.280742476452265,0.0281657872848601
81.535,-51.361842956543,42.6907424926758,31.2913441352475,0.424052522046224,2.11365338930701,-1.08571434020996,-1.33853568275104,-62.7949886322021,58.4755554199219,53.8629400573037,0.929109750619687,6.84619598939748,2.05274724960327,1.87546346482422,5.84328311927545,9.45244558153814,0.434338330860164,-28.1443431799331,15.3633619565087,-90.4421094856988,-7.08209384434324,7.01445581538148,-0.355594637466118,7.29116724563688,-29.1956488477766,10.4900853641511,-2.80299133523206,8.94926551341986,1.21673417688911,8.9758877326295,-0.649815842072826,4.27105701477569,534.269712940695,0.246198741287925,0.00808043339236018,-9.79125099182129,-43.4082336425781,-33.4506884308217,-0.0360219752133747,-0.837987552662698,-0.549450576305389,-0.373930855042345,-15.4469548606873,-67.8029403686523,-57.3643253929571,-0.20605185374128,-3.56672064797862,-2.84395599365234,-2.46113083862653,-0.451809138822092,11.2748407102287,-0.428877756741545,-24.8387426775903,-11.712676889139,52.6379256125934,4.77167507547461,13.3835007931228,1.64896136724146,-13.4100956232632,-30.0543854229641,-61.9661485941415,-7.01580717804329,12.8346817482532,-2.60639926465307,-3.20604962952725,-30.0093646764645,-218.948974689171,580.680049122448,0.281892588484076,0.0259271967540015
81.54,-51.361842956543,42.6907424926758,34.7995530047893,0.433922929426321,2.40228297266242,-1.08571434020996,-1.342845235991,-62.7949886322021,58.4755554199219,55.7653976928787,0.928592682572007,7.21409126721911,2.05274724960327,1.86722160905795,5.90981343703629,9.48892994934247,0.384977127360186,-28.2609235854081,18.8448767927388,-93.711659948338,-7.15720871923451,7.37929949342477,-0.351302358900907,6.34792578315749,-28.8750527327204,12.6335750920888,-2.84462567102346,8.97753580459667,1.26813463187539,9.36648501656911,-0.822580054258776,7.35827842192793,590.069334288492,0.246738876541226,0.00846208052437398,-9.79125099182129,-43.4082336425781,-36.0430963784355,-0.0449787635343683,-0.79601246488024,-0.549450576305389,-0.370149064021861,-15.4469548606873,-67.8029403686523,-60.9688889948461,-0.187573101461769,-3.58430003700721,-2.84395599365234,-2.44113121448613,-0.61920800286549,10.9872580463593,-0.491115795937157,-27.7850474705034,-8.61799703471229,58.8829259695145,4.83176697538763,13.3040936396664,1.45795497108937,-13.1901825856626,-26.9438082405181,-63.7254528949458,-7.49845744217759,13.3420041734728,-2.64083759610121,-7.72796523715825,-31.4215243080466,-219.091691510575,548.702573811595,0.283042645675526,0.0236887129650144
81.545,-50.9817519836456,43.7305038042336,37.2672306133331,0.439350846475058,2.66889978001037,-0.931561737641003,-1.19027555299649,-62.3072044799021,58.9954357992951,56.9339729990913,0.912519357503497,7.52465261449724,2.30244895844998,2.10930092997608,5.7271173494693,9.50579664715803,0.381593294316042,-28.2139982193615,19.5094241581462,-95.9506984781296,-7.11623688126179,7.82040888800715,-0.458687134212898,5.34788203208333,-27.1640198344031,14.0264223983266,-2.85725831985474,8.98611354827881,1.28373050689697,9.48499965667725,-0.875,8.29500007629395,607,0.246902763843536,0.00857787951827049,-10.1966817314527,-46.1116127209417,-38.368964123395,-0.0517781995735321,-0.696030343486135,-0.568560400962026,-0.386977066837251,-16.1121138905041,-72.2739138425076,-63.978254859835,-0.164875583934908,-3.56128496348381,-2.8847236195865,-2.46383337362784,-0.626525146314864,10.8376860430513,-0.544779882948112,-29.3696005564801,-7.72373956140445,65.1735685392763,4.69204136494397,13.3191273683166,1.30290616010315,-12.7191227599653,-21.4199331097126,-65.9982534066652,-7.69002275405428,13.6958519260061,-2.7505508905554,-9.73400866437817,-34.9439608573441,-217.045303471719,495.52514631485,0.283439339648434,0.0167351517531984
81.55,-50.4361371029125,45.2230655445772,39.2815323514313,0.442843450094025,2.92591059717809,-0.710277992793742,-0.967878119141833,-61.6069976582247,59.7417162726907,57.7828233523954,0.889671551628738,7.81022071368202,2.66089200973511,2.46105136423584,5.43588235294117,9.51411764705883,0.398235294117646,-28.0958605664488,18.9469862018881,-97.7407407407407,-7.02470588235295,8.29470588235294,-0.614705882352964,4.32316630355845,-24.8474945533769,15.0922294843863,-2.85725831985474,8.98611354827881,1.28373050689697,9.48499965667725,-0.875,8.29500007629395,607,0.246902763843536,0.00857787951827049,-10.778671466603,-49.9922727697036,-40.5785801620614,-0.0576375280074305,-0.570789903743783,-0.595992267131805,-0.41362980246845,-17.066939683802,-78.6919290879193,-66.7281743174204,-0.140342122417948,-3.52059040812422,-2.94324493408203,-2.50664918197546,-0.564117647058835,10.7482352941176,-0.594705882352935,-30.360929557008,-7.78794480755263,71.4836601307189,4.46529411764707,13.375294117647,1.1635294117647,-12.1387073347857,-14.8453159041394,-68.4945533769063,-7.75479190489825,13.9828290378346,-2.89304294305689,-10.6441180285285,-39.3852946337532,-214.045583388385,433.117647058823,0.283507876536425,0.00772839839405873
81.555,-49.8904962045893,46.7156984575754,41.2959301413029,0.44633622025744,3.18293366988046,-0.488983696053637,-0.742848309801851,-60.9067574472563,60.4880323323947,58.6317141830422,0.866822656258683,8.09580243015254,3.01935215334064,2.8140322064666,5.14463346890188,9.52243904374567,0.414878087491316,-27.9777172801542,18.3845214258334,-99.5308683613349,-6.93317051879775,8.76902549350262,-0.770732070231151,3.29840171156839,-22.5308588090786,16.1580873933484,-2.85725831985474,8.98611354827881,1.28373050689697,9.48499965667725,-0.875,8.29500007629395,607,0.246902763843536,0.00857787951827049,-11.3606889538746,-53.8731178673448,-42.7883015660437,-0.0634971358428088,-0.445543491923814,-0.623425441387331,-0.441729998822808,-18.0218110078706,-85.1102503757346,-69.4782249046351,-0.115807491025373,-3.47989391224891,-3.00176903916049,-2.55222907755594,-0.501707171907558,10.6587802797342,-0.644634262473957,-31.3523058289583,-7.85215311532143,77.7940526182367,4.23853605793077,13.4314635452832,1.02414601726019,-11.5582642325558,-8.27038518861419,-70.9909723829573,-7.81956414425258,14.2698198341375,-3.0355417902774,-11.5542707911513,-43.8268401947112,-211.045720263703,370.707171907549,0.283576416692591,-0.00127878445119786
81.56,-49.3448813238561,48.208260197919,43.3102318794012,0.449828823876407,3.43994448704818,-0.267699951206377,-0.515324554079948,-60.2065506255789,61.2343128057903,59.4805645363463,0.843974850383924,8.38137052933732,3.37779520462577,3.16845525268631,4.85339847237375,9.53076004364648,0.43152008729292,-27.8595796272416,17.8220834695754,-101.320910623946,-6.84163951988891,9.24332248784842,-0.926750818371216,2.27368598304351,-20.2143335280524,17.2238944794081,-2.85725831985474,8.98611354827881,1.28373050689697,9.48499965667725,-0.875,8.29500007629395,607,0.246902763843536,0.00857787951827049,-11.9426786890248,-57.7537779161067,-44.9979176047102,-0.0693564642767073,-0.320303052181462,-0.650857307557111,-0.471162735913166,-18.9766368011685,-91.5282656211463,-72.2281443622204,-0.0912740295084136,-3.43919935688932,-3.06029035365602,-2.60093231921155,-0.43929967265153,10.5693295308005,-0.69456026187878,-32.3436348294861,-7.91635836146961,84.1041442096794,4.01178881063386,13.4876302946136,0.884769268921743,-10.9778488073763,-1.69576798304105,-73.4872723531983,-7.88433329509655,14.556796945966,-3.17803384277889,-12.4643801553017,-48.2681739711203,-208.046000180369,308.299672651523,0.283644953580582,-0.0102855378103375
81.565,-48.7992404255329,49.7008931109172,45.3246296692727,0.453321594039822,3.69696755975055,-0.0464056544662721,-0.285442015818898,-59.5063104146105,61.9806288654943,60.3294553669931,0.821125955013869,8.66695224580784,3.7362553482313,3.52455497341436,4.56214958833446,9.53908144033332,0.44816288066659,-27.741436340947,17.2596186935207,-103.11103824454,-6.75010415633371,9.7176420989981,-1.0827770062494,1.24892139105345,-17.8976977837541,18.2897523883702,-2.85725831985474,8.98611354827881,1.28373050689697,9.48499965667725,-0.875,8.29500007629395,607,0.246902763843536,0.00857787951827049,-12.5246961762964,-61.6346230137479,-47.2076390086925,-0.0752160721120855,-0.195056640361493,-0.678290481812636,-0.501769619849901,-19.9315081252372,-97.9465869089616,-74.9781949494351,-0.066739398115839,-3.39850286101401,-3.11881445873447,-2.65308291238723,-0.376889197500253,10.479874516417,-0.744488641999801,-33.3350111014364,-7.98056666923842,90.4145366971971,3.78503075091756,13.5437997222498,0.745385874417238,-10.3974057051463,4.87916273248419,-75.9836913592493,-7.94910553445089,14.8437877422689,-3.3205326899994,-13.3745329179244,-52.7097195320784,-205.046137055688,245.889197500248,0.283713493736747,-0.0192927206555941
81.57,-48.0963089320701,53.327003501645,47.0583960787132,0.454111975277777,3.89664415948642,0.264800074036484,0.0365098099928125,-58.6457233514446,64.7002280222255,61.217250058954,0.823704409183937,8.93857829962487,4.21003035560733,3.99777845343272,4.55526979436028,9.59283684275337,0.576348971801494,-27.0590716645308,18.2894355587784,-103.12713054556,-6.5883812338382,9.6528400443295,-1.12986430242583,1.28611662189628,-15.8807472168635,20.1175854095691,-2.86110974803756,9.14567075975275,1.24521671800598,10.3212002034699,-0.312172751020965,10.0799665649042,663.282723802487,0.242449455869828,0.0110733259337617,-13.2969158868751,-63.7112723596782,-49.9005750866045,-0.0706558426490917,-0.0391718171225169,-0.737866488518555,-0.565492686471524,-21.1767001825858,-104.259160666342,-79.4977225033329,-0.0518107433754868,-3.27234225230223,-3.15354855230562,-2.68515237422262,-0.165544391084849,10.5090533185568,-0.529463612855564,-33.9237480636241,-9.16464249826314,96.9620186044107,3.37635857652997,13.4948659032139,0.520949883019345,-9.7632739992794,13.9856613170245,-79.5378094590917,-7.9562554359436,14.875467300415,-3.33626246452332,-13.4750003814697,-53.2000007629395,-204.714996337891,239,0.283721059560776,-0.0202869810163975
81.575,-47.373821764334,57.2180488447385,48.7574322201814,0.45456706277746,4.08921540929102,0.587179482334429,0.371574500637708,-57.7651929161787,67.6648352175918,62.1099198706422,0.829438249966332,9.20848717221393,4.69814003733135,4.48724134753201,4.58367664080776,9.65223297623446,0.718383204038906,-26.3066568764718,19.516891886756,-102.923085857273,-6.4179401551533,9.52113557443663,-1.16343603004558,1.45509112938411,-13.9008761008268,22.040068957025,-2.86543930163159,9.32503578114166,1.20192173619735,11.261208665484,0.320525204896075,12.0865230185456,726.552518162788,0.237443303702985,0.0138785629741606,-14.0927789490118,-65.5641525956243,-52.6536170235552,-0.064802384006467,0.120523244498654,-0.801434253003706,-0.633955644248931,-22.4579845260408,-110.558950710214,-84.2370645247169,-0.038073282207988,-3.13556974490772,-3.18533243454819,-2.71818514484649,0.0642928210811364,10.5529548085211,-0.281549316586637,-34.4625535686325,-10.4877447738754,103.539271603418,2.94509099864547,13.4328873291467,0.28594778968108,-9.12244615012746,23.4067871590344,-83.2233666412791,-7.9562554359436,14.875467300415,-3.33626246452332,-13.4750003814697,-53.2000007629395,-204.714996337891,239,0.283721059560776,-0.0202869810163975
81.58,-46.651334596598,61.109094187832,50.4564683616497,0.455022150277143,4.28178665909561,0.909558890632374,0.708337851356901,-56.8846624809127,70.6294424129581,63.0025896823305,0.835172090748727,9.47839604480299,5.18624971905537,4.97865136593076,4.61208348725525,9.71162910971554,0.860417436276318,-25.5542420884128,20.7443482147336,-102.719041168986,-6.24749907646841,9.38943110454376,-1.19700775766533,1.62406563687194,-11.9210049847902,23.9625525044808,-2.86976885522561,9.50440080253057,1.15862675438871,12.2012171274981,0.953223160813116,14.093079472187,789.822312523088,0.232437151536142,0.0166838000145595,-14.8886420111485,-67.4170328315704,-55.4066589605059,-0.0589489253638423,0.280218306119826,-0.865002017488857,-0.702930217392098,-23.7392688694958,-116.858740754087,-88.976406546101,-0.0243358210404892,-2.9987972375132,-3.21711631679077,-2.7552726457499,0.294130033247122,10.5968562984854,-0.0336350203177101,-35.0013590736408,-11.8108470494876,110.116524602425,2.51382342076097,13.3709087550794,0.0509456963428144,-8.48161830097552,32.8279130010444,-86.9089238234664,-7.9562554359436,14.875467300415,-3.33626246452332,-13.4750003814697,-53.2000007629395,-204.714996337891,239,0.283721059560776,-0.0202869810163975
81.585,-45.9306447432663,64.9453785896963,52.1623539774214,0.45535535919989,4.47256815083685,1.23207247689636,1.04667834230192,-56.0059181197578,73.6017906283403,63.9144620093788,0.840478304538503,9.74487332810587,5.6732665485518,5.47090667500242,4.64488340077093,9.77112361433666,0.994295496444561,-24.8033439182153,21.9524312862036,-102.5549586226,-6.08138290995282,9.25974070438383,-1.22792563507077,1.79956693910693,-9.94639131194304,25.8848773634569,-2.87177766004749,9.67900338590646,1.11544772375234,13.1257562797047,1.56985735104933,16.0587990454245,852.51426963871,0.227402470361057,0.0194309513342869,-15.6821024210289,-69.2348295926882,-58.1503271707495,-0.0530658147878687,0.438031920094423,-0.9269026513544,-0.770516582717298,-25.0193117774924,-123.099400711324,-93.7316856635739,-0.0107161990431185,-2.86084757488744,-3.24903543047341,-2.79662556568978,0.52198793305718,10.6362834295017,0.205548758589297,-35.5476170418669,-13.1378409678383,116.661770308948,2.08036284626617,13.3138030023703,-0.17930854502359,-7.84411566577311,42.0900477575923,-90.5811760835464,-7.96747516339062,14.892369338459,-3.34281420457394,-13.4848320052671,-53.2261680135221,-204.607150961625,238.576483826945,0.283691384244502,-0.0203571934509405
81.59,-45.3105697376396,65.6659103202852,54.2640112026366,0.448731270998768,4.56169830686029,1.56313986223641,1.39475125417485,-55.2267090579618,77.0243182640689,65.9251590286663,0.821385387846038,9.81617449532851,6.09923997754656,5.90400005216109,4.92858057796824,9.83639907103692,0.662897023966291,-24.1369515539913,22.057814264732,-104.671916691274,-6.16172193358391,9.244677137453,-1.10741709962412,2.34817832732853,-8.26646265422491,27.8034674725483,-2.74129720340356,9.58219531868679,1.07876889984637,13.1696917311388,1.27109659255546,15.69852863098,882.390344051524,0.220725081316055,0.0188695166381662,-16.3405899705402,-69.054696660041,-60.3664362695716,-0.0454735367412671,0.488868186750732,-0.893795912820396,-0.743160424921712,-26.2320252065644,-125.98152763368,-99.4100086300998,-0.00378645425999558,-2.65531032506296,-3.28876351671422,-2.84992603148292,0.63747527952689,10.4203723034932,-0.0530424737232879,-36.5208598435708,-14.6906901514486,121.397805343991,1.52050027533697,13.5347353173558,-0.139139033208036,-7.39468825734298,42.3008137146492,-93.5040039880265,-8.61927606094947,15.874279426707,-3.72343218889978,-14.0559921556228,-54.746333052909,-198.34196195594,213.972657839921,0.281967420995508,-0.0244361274599049
81.595,-44.6905242988166,66.3864076940301,56.3655682153197,0.442107498651555,4.65082421292396,1.89419146141465,1.74372005193615,-54.4475371508989,80.4466827046975,67.935760172643,0.802293381553949,9.88747226272438,6.52519309501028,6.33885494949219,5.21226422773959,9.9016714152321,0.331514353436927,-23.4705909651042,22.1631922183235,-106.788773817832,-6.24205712643951,9.22961428879258,-0.986914310340709,2.89676355631934,-6.58661409991406,29.7219660982281,-2.61082296841025,9.48539186752984,1.04209182488298,13.2136250876152,0.972350079758628,15.3382753951745,912.264993894702,0.214048010666487,0.0183081087127253,-16.999046121637,-68.8745723166048,-62.5824396984958,-0.0378816207144083,0.539702029400429,-0.860690752902572,-0.715688697265791,-27.4446808102773,-128.863517128659,-105.088060839284,0.0031429600947093,-2.44978287579397,-3.32848970861561,-2.90730380421371,0.75295711925683,10.2044714726937,-0.311621375727256,-37.4940562385036,-16.2434652911345,126.133614552454,0.960664400124495,13.7556570977087,-0.0989714367802273,-6.94528227879118,42.5115696218321,-96.4266925244013,-9.27104587893091,16.8561426949049,-4.10403202436121,-14.6271250715636,-56.2664256068372,-192.077071690909,189.370005027893,0.280243539949606,-0.0285148669745907
81.6,-44.0704492931899,67.1069394246189,58.4672254405349,0.435483410450433,4.7399543689474,2.22525884675469,2.09335202215589,-53.6683280891029,83.869210340426,69.9464571919305,0.783200464861484,9.95877342994703,6.95116652400504,6.77537469901759,5.49596140493689,9.96694687193236,0.000115880958656805,-22.8041986008802,22.2685751968519,-108.905731886506,-6.32239615007061,9.21455072186175,-0.866405774894059,3.44537494454094,-4.90668544219593,31.6405562073194,-2.48034251176632,9.38858380031017,1.00541300097701,13.2575605390492,0.673589321264752,14.97800498073,942.141068307516,0.207370621621485,0.0177466740166047,-17.6575336711483,-68.6944393839576,-64.798548797318,-0.0302893426678066,0.590538296056737,-0.827584014368568,-0.687959544964274,-28.6573942393493,-131.745644051015,-110.76638380581,0.0100727048778322,-2.24424562596949,-3.36821779485641,-2.96863523742922,0.86844446572654,9.98856034668516,-0.57021260803984,-38.4672990402075,-17.7963144747448,130.869649587497,0.400801829195302,13.9765894126942,-0.0588019249646729,-6.49585487036105,42.722335578889,-99.3495204288813,-9.92284677648977,17.8380527831529,-4.48465000868706,-15.1982852219194,-57.7865906462241,-185.811882685224,164.76617904087,0.278519576700612,-0.0325938009835551
81.605,-43.4517855550259,67.8790189692197,60.5539745910293,0.429056229630114,4.82829464432247,2.55286182058909,2.43990970465526,-52.8927613926824,87.1894814029309,71.9587716798907,0.764451967667623,10.0238460540056,7.37155137592325,7.2077809639314,5.75826997434656,10.0309277986392,-0.309264044317203,-22.1587756815323,22.3199714319418,-111.033170090565,-6.4001988139941,9.21086849834553,-0.750463899319627,3.97080873675845,-3.09446369942584,33.5388262126622,-2.35412972016056,9.29481764653804,0.969046467724252,13.2872429581811,0.384768040827144,14.6197943296619,971.331356656876,0.20082955136488,0.0171698791711711,-18.3102603692488,-68.5109292786374,-66.9585215560045,-0.0227272611711945,0.637734410019956,-0.791759213987717,-0.657169359420698,-29.866915608136,-134.729354122037,-116.392110361778,0.0164910915921218,-2.03890901376574,-3.40513681006324,-3.03091385773166,0.983578651894281,9.78344610923149,-0.818409488046987,-39.3133184801462,-19.3349136647026,135.58484148721,-0.180756868795763,14.1965608618061,-0.0125776108859542,-5.9599487207027,42.7117304376044,-102.440052059595,-10.5786617125579,18.8288007954547,-4.85119865715989,-15.6648744746589,-59.6787730692913,-178.690706610489,140.191489757222,0.275019556110823,-0.0362917512831364
81.61,-42.8723515398935,70.1167755065259,62.2200771376744,0.428214634419203,4.89431645981077,2.78249222035966,2.68863810428302,-52.2195950764575,87.6090604748279,74.0198645617619,0.755462939906493,9.91204244413222,7.633741263515,7.48327116644501,5.41324599397701,10.0582178309848,0.00652061568205409,-22.1082385845959,20.8375499218096,-113.461357271934,-6.40604667806817,9.53055173439416,-0.764108915492433,3.8384496733538,2.479056134123,34.8624168467088,-2.34899427154434,9.28734786929653,0.941501838426105,12.9120049762492,0.37794553343786,14.3196039812961,981.07779678031,0.198152443163113,0.0161558575380435,-18.8002232508247,-68.231208410184,-67.5265588228147,-0.0160125283817233,0.581571453656869,-0.678657665088217,-0.548728723360521,-30.9874394511294,-140.603464102973,-120.531339921223,0.00838959980471124,-1.83898499666491,-3.36229531756873,-3.01692503549604,1.08884020522736,9.8848090865152,-0.771626575454503,-36.5458107907761,-20.4707950815571,139.714444265435,-1.37956900397813,14.3895403762501,0.205742647878965,-2.96622735933191,36.4114390195428,-110.299773897406,-11.3494446809644,20.0720444788573,-4.81851861410151,-13.1610140013718,-72.1434945400689,-147.2389453732,116.410175856043,0.221052677694391,-0.0291702485190668
81.615,-42.2929451536956,72.3544253417274,63.8861002401775,0.42737307933776,4.96033512720564,3.01211167075011,2.93726496673543,-51.5464608585692,88.0286195400936,76.0808591653152,0.746474340765797,9.80024416534838,7.8959186492048,7.75981002687657,5.06823846525634,10.0855065620701,0.322290218239961,-22.057703897401,19.3551990974256,-115.889428670966,-6.41189426330073,9.8502197271071,-0.777753281035057,3.70609692117666,8.05231020761874,36.1859443684802,-2.34385906779979,9.27987844823359,0.913958522528172,12.536784886649,0.371123351363634,14.0194279467939,990.8237721679,0.195475462612891,0.0151418842561287,-19.2901627696845,-67.9515008795557,-68.0945690041173,-0.00929811576833391,0.525411175290939,-0.565561509167399,-0.439946569001417,-32.1079098646051,-146.477293990928,-124.670372111339,0.000288494317691115,-1.6390705124659,-3.31945586786902,-3.00610150990957,1.19409673941332,9.98616723054615,-0.724845893594071,-33.7784350634359,-21.6066223366046,143.843850133362,-2.57832397665167,14.5825106889244,0.424052496560975,0.0273512535474922,30.1114480159107,-118.159120963052,-12.120190896416,21.3152288811382,-4.78584012931336,-10.6572729187233,-84.6076216602138,-115.788683838431,92.6299959103246,0.167088372560355,-0.022049085326939
81.62,-41.7135111385631,74.5921818790336,65.5522027868226,0.426531484126848,5.02635694269394,3.24174207052068,3.18559306112192,-50.8732945423443,88.4481986119906,78.1419520471863,0.737485313004667,9.68844055547499,8.15810853679654,8.03718820062457,4.72321448488678,10.1127965944157,0.638074878239218,-22.0071668004647,17.8727775872934,-118.317615852335,-6.41774212737479,10.1699029631557,-0.791398297207863,3.57373785777201,13.6258300411676,37.5095350025268,-2.33872361918358,9.27240867099208,0.886413893230024,12.1615469047171,0.36430084397435,13.7192375984281,1000.57021229133,0.192798354411123,0.0141278626230011,-19.7801256512605,-67.6717800111023,-68.6626062709275,-0.00258338297886265,0.469248218927853,-0.452459960267899,-0.330893862431941,-33.2284337075985,-152.351403971864,-128.809601670784,-0.00781299746971941,-1.43914649536507,-3.27661437537451,-2.99804493336576,1.2993582927464,10.0875302078299,-0.678062981001586,-31.0109273740658,-22.7425037534591,147.973452911587,-3.77713611183404,14.7754902033684,0.642372755325894,3.02107261491828,23.8111565978491,-126.018842800863,-12.8909738648225,22.5584725645407,-4.75316008625498,-8.15341244543619,-97.0723431309914,-84.3369226011418,68.848682009146,0.113121494143923,-0.0149275825628695
81.625,-41.1341047523653,76.8298317142351,67.2182258893256,0.425689929045406,5.09237561008881,3.47136152091113,3.43339738309328,-50.2001603244561,88.8677576772563,80.2029466507396,0.728496713863972,9.57664227669114,8.42028592248634,8.31513450100602,4.37820695616611,10.140085325501,0.953844480797125,-21.9566321132698,16.3904267629094,-120.745687251366,-6.42358971260736,10.4895709558687,-0.805042662750487,3.44138510559487,19.1990841146633,38.8330625242982,-2.33358841543903,9.26493924992915,0.858870577332091,11.786326815117,0.357478661900123,13.419061563926,1010.31618767892,0.190121373860901,0.0131138893410862,-20.2700651701203,-67.392072480474,-69.2306164522301,0.00413102963452671,0.413087940561922,-0.33936380434708,-0.221712105294289,-34.3489041210743,-158.225233859819,-132.9486338609,-0.0159141029567395,-1.23923201116606,-3.2337749256748,-2.99230444587717,1.40461482693236,10.1888883518608,-0.631282299141154,-28.2435516467255,-23.8783310085066,152.102858779514,-4.97589108450758,14.9684605160427,0.860682604007904,6.01465122779768,17.511165594217,-133.87818986651,-13.6617200802741,23.8016569668216,-4.72048160146682,-5.6496713627877,-109.536470251136,-52.8866610663724,45.0685020634272,0.0591571890098874,-0.00780641937074172
81.63,-40.5546707372328,79.0675882515413,68.8843284359707,0.424848333834494,5.15839742557711,3.7009919206817,3.68051372008711,-49.5269940082312,89.2873367491533,82.2640395326108,0.719507686102841,9.46483866681776,8.68247581007809,8.59342063449664,4.03318297579656,10.1673753578466,1.26962914079638,-21.9060950163334,14.9080052527773,-123.173874432735,-6.42943757668142,10.8092541919173,-0.818687678923293,3.30902604219022,24.7726039482122,40.1566531583448,-2.32845296682281,9.25746947268764,0.831325948033944,11.411088833185,0.350656154510839,13.1188712155601,1020.06262780236,0.187444265659134,0.0120998677079586,-20.7600280516962,-67.1123516120206,-69.7986537190403,0.010845762423998,0.356924984198836,-0.226262255447581,-0.112561205351243,-35.4694279640677,-164.099343840755,-137.087863420345,-0.0240155947441501,-1.03930799406523,-3.19093343318029,-2.9883661822424,1.50987638026544,10.2902513291445,-0.58449938654867,-25.4760439573554,-25.0142124253611,156.232461557739,-6.17470321968995,15.1614400304867,1.07900286277282,9.00837258916847,11.2108741761553,-141.737911704321,-14.4325030486805,25.0449006502241,-4.68780155840844,-3.14581088950059,-122.001191721914,-21.4348998290835,21.2871881622486,0.00519031059345526,-0.000684916606672151
81.635,-39.5892546251494,76.1757678078948,70.1996457505128,0.432975237457342,5.27344606653847,3.95149447147016,3.94763500141147,-48.3790386480298,88.9824638186096,84.0362762195148,0.698071530256604,9.25378933883436,8.9932142675305,8.92032704090699,3.4202051151869,10.0954205749826,1.34089839436442,-20.7993243057955,12.8408017757344,-122.647059625469,-5.96327714666498,10.99878200165,-1.01486882020689,3.04383707182465,31.329051951827,39.6928990211679,-2.32795906066895,9.25675106048584,0.828676819801331,11.375,0.349999994039536,13.0900001525879,1021,0.187186792492867,0.0120023433119059,-21.5485729012232,-66.9128360657989,-69.5624265897851,0.0177930714218204,0.197192911958794,-0.0377264264481862,0.0717884312462899,-37.5280304070909,-165.009517687738,-142.019299949363,-0.0327456937393127,-0.789159122987925,-3.10644394253961,-2.94402786327288,1.64028939518942,10.6127524274926,-0.397160119312038,-22.7892380968051,-23.1364541881053,157.63352631047,-6.74228812591231,14.6603498127816,1.14570997017201,10.9744076119021,3.78556910234685,-147.352924704443,-14.0197524924429,21.4877965651741,-4.14419138810277,6.11309641959242,-125.776597408414,1.61337276569378,15.6318969346957,0,0
81.64,-38.5827130880548,72.7379281286768,71.4777034630797,0.442056957427732,5.39371799311869,4.20423135966254,4.21597379771778,-47.1804977936287,88.6004818576843,85.7778676226496,0.675309675692233,9.03216759010834,9.30913544123628,9.25223480763824,2.77868045947831,10.012900805991,1.38615117090819,-19.5800955405279,10.7112593501458,-121.805758914126,-5.44686310845974,11.1744692517611,-1.23048499079773,2.76449894501133,37.9904446935988,39.0389191713344,-2.32795906066895,9.25675106048584,0.828676819801331,11.375,0.349999994039536,13.0900001525879,1021,0.187186792492867,0.0120023433119059,-22.3689331129011,-66.7218450853363,-69.2406007734985,0.0247654966759075,0.0264310497643327,0.158846728645462,0.263725051718118,-39.686567594163,-165.391499648663,-147.035299783972,-0.0415431468991388,-0.533652349655603,-3.01751800039785,-2.89590902241275,1.77338579678871,10.9588030716507,-0.194853588881121,-20.1108784103009,-20.9378988135393,158.744306155916,-7.24273059592564,14.0853733578727,1.19628660277974,12.8311845724847,-3.75984665251657,-152.729362062873,-13.4810338097008,17.4196732465557,-3.5461816358182,16.0913341272889,-128.627524117854,23.7685996540581,11.9051976899156,0,0
81.645,-37.5762195455023,69.300252374677,72.7557002345007,0.451138244357879,5.51398418481781,4.45695619669679,4.48315354293189,-45.9820140888011,88.2185181106613,87.5193759821356,0.652548906472824,8.81055640888893,9.62504155099139,9.58370063104248,2.13718639334897,9.9303849717586,1.4314017896808,-18.3609249112877,8.58181846672886,-120.964498318208,-4.93047369423114,11.350148124643,-1.4460908802437,2.485174137773,44.6515198026822,38.3849705049764,-2.32795906066895,9.25675106048584,0.828676819801331,11.375,0.349999994039536,13.0900001525879,1021,0.187186792492867,0.0120023433119059,-23.189254207651,-66.5308632118248,-68.9187903027114,0.0317375894664597,-0.144322670056383,0.355410510615179,0.454985759856169,-41.8450018565171,-165.773463395686,-152.051060442544,-0.0503401805733098,-0.278157759556799,-2.92859629847839,-2.84783588428491,1.90647585200227,11.304837215206,0.00744329504348162,-17.4326464350158,-18.7394482718635,159.855033036464,-7.74314920352861,13.5104243193501,1.24686082376089,14.6878729970689,-11.3049026221542,-158.10554305866,-12.9423408144795,13.3517439067337,-2.94820039820806,26.069096046424,-131.478314887626,45.922770123059,8.17867614393603,0,0
81.65,-36.6308135560088,65.901770960512,73.6871822296379,0.460158148325402,5.63188161799611,4.68227141086372,4.72166655914877,-44.8402632233112,87.5362116205809,88.9752551035122,0.630398835323032,8.59431638169965,9.90156155578087,9.87512035577294,1.56553897632914,9.86726186640229,1.48414152930973,-17.1530068590506,7.13300805246109,-119.792516091917,-4.45330846449375,11.5049686454331,-1.62541355806171,2.1501830661165,50.1629932572304,37.834710192491,-2.33180368171481,9.27963568136319,0.824282971408261,11.1395626530001,0.308530914528631,12.8251331189882,1020.57957615566,0.186973033411631,0.0119025575221674,-23.9900587729826,-66.5599176979609,-68.6113767411353,0.0373973286202472,-0.316815831041621,0.527780994236994,0.621183467936048,-43.9091656809637,-165.386281856585,-156.614923643007,-0.058304333318052,-0.0414883408508199,-2.82754697299148,-2.78705477490611,2.02535084892798,11.5984711860206,0.186497459412574,-14.8942895305766,-16.0091941571844,160.723669155999,-8.13865931342175,12.8996058991201,1.3026127153303,16.3329462399153,-18.3697250106719,-162.100594104246,-12.4828424453735,9.88185119628906,-2.43812990188599,34.5800018310547,-133.910003662109,64.8199996948242,5,0,0
81.655,-36.0400377724525,62.7317288564563,72.6084865982641,0.468819090444875,5.73600140855003,4.74853064284358,4.79977675876213,-44.0279477602015,85.1120605516026,88.7739384757249,0.61179815364809,8.40930055792092,9.94954227210421,9.93712463874476,1.39920560168544,9.91664208699964,1.5803030115256,-16.0107483449079,9.63250069998118,-116.702642639335,-4.20380840252819,11.5387551121576,-1.59422605031602,1.49242184308489,49.0046917864285,37.8860476538008,-2.35794685549978,9.43524961924225,0.794405087280161,9.53860396171151,0.026543863159246,11.0240544673604,1017.72072127897,0.185519485521684,0.0112240206231388,-24.6774027407782,-67.8652307271869,-68.3875686677327,0.0354432410575618,-0.499342270363435,0.559768179761889,0.645952149676078,-45.4258671976563,-160.537983684325,-158.556184510833,-0.0614349782098873,0.0859134594071815,-2.65618705053669,-2.65476979440146,2.0617362746313,11.5880753501054,0.23067976205231,-13.1680673940351,-10.1952266638514,160.187834403578,-7.92554467715952,12.0809338207956,1.38837836163095,16.7500631130573,-22.6467772560432,-158.083437756755,-12.4828424453735,9.88185119628906,-2.43812990188599,34.5800018310547,-133.910003662109,64.8199996948242,5,0,0
81.66,-35.4492338178131,59.5615355892657,71.5297395293989,0.477480445560491,5.84012616404555,4.81479303438818,4.8764737328813,-43.2155935619116,82.6877938872274,88.5726122481748,0.593196585001535,8.22427591168148,9.99752527638312,9.99805982129616,1.23286429545171,9.96602466228778,1.67646907919197,-14.8684353622843,12.1321125355537,-113.612621846451,-3.95429644317758,11.5725431899864,-1.56303705539719,0.834629254776332,47.8463350821388,37.9373875631322,-2.38409127591932,9.59087097755609,0.764525778428198,7.93756892887068,-0.255456634733975,9.22288993148057,1014.86173007808,0.184065868319455,0.0105454513681472,-25.364779484501,-69.1706060001318,-68.1637499220649,0.0334890603144099,-0.681877413439925,0.59175689059247,0.669540881498542,-46.9426410381063,-155.68945432146,-160.497537947485,-0.0645657723862055,0.213321334807058,-2.48481895680143,-2.52069578177352,2.09812343536994,11.5776790184657,0.27486417152065,-11.4417629427668,-4.38098193207046,159.651974099931,-7.71241987854755,11.2622227041765,1.47414809765771,17.1671998763749,-26.9240334522154,-154.066089851573,-12.4828424453735,9.88185119628906,-2.43812990188599,34.5800018310547,-133.910003662109,64.8199996948242,5,0,0
81.665,-34.8584580342568,56.39149348521,70.4510438980251,0.486141387679964,5.94424595459947,4.88105226636805,4.95170096540082,-42.4032780988019,80.2636428182491,88.3712956203876,0.574595903326592,8.03926008790275,10.0455059927064,10.057750218929,1.06653092080802,10.0154048828851,1.77263056140784,-13.7261768481416,14.6316051830738,-110.522748393868,-3.70479638121203,11.6063296567109,-1.5318495476515,0.176868031744726,46.6880336113368,37.988725024442,-2.41023444970429,9.74648491543515,0.734647894300098,6.33661023758205,-0.53744368610336,7.42181127985284,1012.00287520139,0.182612320429508,0.00986691446911854,-26.0521234522966,-70.4759190293578,-67.9399418486623,0.0315349727517246,-0.864403852761738,0.623744076117365,0.691862727442104,-48.459342554799,-150.8411561492,-162.43879881531,-0.0676964172780408,0.340723135065059,-2.31345903434664,-2.38430264754296,2.13450886107326,11.5672831825505,0.319046474160387,-9.71554080622532,1.43298556126251,159.11613934751,-7.49930524228531,10.443550625852,1.55991374395837,17.5843167495169,-31.2010856975867,-150.048933504083,-12.4828424453735,9.88185119628906,-2.43812990188599,34.5800018310547,-133.910003662109,64.8199996948242,5,0,0
81.67,-34.3074922367426,53.5882829929332,68.8703213213004,0.493444851396676,6.03001514762537,4.95082354440551,5.02894136440741,-41.6309855964821,78.1947470629516,87.7669605968928,0.553941358366444,7.86675444941274,10.0363105906588,10.0588773687046,1.04370381248898,10.0197491628973,1.8318839217529,-12.9095298082551,17.0504023967573,-107.64843715438,-3.52926217470478,11.5643335487282,-1.46794395817423,-0.519872532659152,45.5048978760037,37.8771262989869,-2.42855000495911,9.85550594329834,0.713715851306915,5.21500015258789,-0.735000014305115,6.15999984741211,1010,0.181593984365463,0.0093915406614542,-26.7352499953954,-71.5492186834002,-67.9210544886729,0.0277521015444021,-1.01190971354508,0.624748824790916,0.68191419165441,-49.8896096744581,-146.121045422583,-163.0693388433,-0.06902366696567,0.420439278811147,-2.12011053494517,-2.22310280312724,2.18951301180758,11.4958091993186,0.34926217470483,-8.74756012743834,6.81604046232295,158.296223772775,-7.29982787992718,9.77334488633026,1.66058039123539,17.8683451510411,-32.4659186590691,-144.656733845204,-12.3518998744323,9.55811734466472,-2.38670711820417,34.915712284074,-133.279900792468,60.835374179713,5,0,0
81.675,-33.8497492546311,51.6437179227501,66.1153632097795,0.497571344387739,6.07283963554387,5.02880011056401,5.11287180980113,-40.9524494050582,76.9572971618505,86.2198641188263,0.528485108813734,7.72354373893231,9.89335367018668,9.92473925480232,1.35661187804735,9.91873159842566,1.80478164835809,-12.8547777407908,19.2800282551639,-105.278889345787,-3.52679833166889,11.3450515185337,-1.32750490512835,-1.30769394783963,44.26385101348,37.3843576918084,-2.42855000495911,9.85550594329834,0.713715851306915,5.21500015258789,-0.735000014305115,6.15999984741211,1010,0.181593984365463,0.0093915406614542,-27.4084011355977,-72.0795543553007,-68.3815801874139,0.0196914108409329,-1.07746177723479,0.553270298469461,0.598239902772891,-51.1174365985225,-141.701579610317,-160.633359584842,-0.0661316794574578,0.388582591089593,-1.87535075783653,-2.00725082438844,2.28806673324328,11.2814548551959,0.346798331668926,-9.55363223177357,11.1901222964138,156.811834388188,-7.13228655348648,9.45058144862833,1.79609175820949,17.840969117309,-26.6834919785359,-136.048492127209,-11.9146392605458,8.47706279014019,-2.21498941174057,36.0367606774289,-131.175778614244,47.5293898361785,5,0,0
81.68,-33.391984445092,49.6990601261795,63.3602737283615,0.501698034150201,6.11566616554371,5.10678039502714,5.19528806649878,-40.2738808577051,75.719788253077,84.6726938676217,0.503027645382357,7.58032619946373,9.75038993282841,9.78900287498861,1.66953486459497,9.81770921694178,1.77767808259414,-12.8000230624797,21.5097604330525,-102.909228545548,-3.5243343711449,11.125759031898,-1.18705915526052,-2.09555293020408,43.022744971763,36.891565587009,-2.42855000495911,9.85550594329834,0.713715851306915,5.21500015258789,-0.735000014305115,6.15999984741211,1010,0.181593984365463,0.0093915406614542,-28.0815843749437,-72.6099153162036,-68.842127846276,0.0116303357642481,-1.14301696676798,0.481788363701755,0.513436818170179,-52.3453220713887,-137.281903056273,-158.197264166961,-0.0632395540451157,0.356724384285129,-1.63057930938283,-1.78780201340726,2.38662515420315,11.0670902896082,0.344334371144917,-10.359742773575,15.5644127081516,155.327374220644,-6.96473723785469,9.12780261998473,1.93160958702932,17.8135917781534,-20.9007895635752,-127.439839926084,-11.4773577959314,7.39595668563928,-2.04326351693561,37.1578625278622,-129.071556101169,34.2227709981352,5,0,0
