time,hip_angle_l,hip_angle_l_velocity,hip_angle_l_velocity_filt,hip_angle_l_torque_estimated,hip_angle_l_torque_desired,hip_angle_l_torque_measured,hip_angle_l_torque_interaction,knee_angle_l,knee_angle_l_velocity,knee_angle_l_velocity_filt,knee_angle_l_torque_estimated,knee_angle_l_torque_desired,knee_angle_l_torque_measured,knee_angle_l_torque_interaction,thigh_imu_l_accel_x,thigh_imu_l_accel_y,thigh_imu_l_accel_z,thigh_imu_l_gyro_x,thigh_imu_l_gyro_y,thigh_imu_l_gyro_z,shank_imu_l_accel_x,shank_imu_l_accel_y,shank_imu_l_accel_z,shank_imu_l_gyro_x,shank_imu_l_gyro_y,shank_imu_l_gyro_z,foot_imu_l_accel_x,foot_imu_l_accel_y,foot_imu_l_accel_z,foot_imu_l_gyro_x,foot_imu_l_gyro_y,foot_imu_l_gyro_z,insole_l_force_y,insole_l_cop_x,insole_l_cop_z,hip_angle_r,hip_angle_r_velocity,hip_angle_r_velocity_filt,hip_angle_r_torque_estimated,hip_angle_r_torque_desired,hip_angle_r_torque_measured,hip_angle_r_torque_interaction,knee_angle_r,knee_angle_r_velocity,knee_angle_r_velocity_filt,knee_angle_r_torque_estimated,knee_angle_r_torque_desired,knee_angle_r_torque_measured,knee_angle_r_torque_interaction,thigh_imu_r_accel_x,thigh_imu_r_accel_y,thigh_imu_r_accel_z,thigh_imu_r_gyro_x,thigh_imu_r_gyro_y,thigh_imu_r_gyro_z,shank_imu_r_accel_x,shank_imu_r_accel_y,shank_imu_r_accel_z,shank_imu_r_gyro_x,shank_imu_r_gyro_y,shank_imu_r_gyro_z,foot_imu_r_accel_x,foot_imu_r_accel_y,foot_imu_r_accel_z,foot_imu_r_gyro_x,foot_imu_r_gyro_y,foot_imu_r_gyro_z,insole_r_force_y,insole_r_cop_x,insole_r_cop_z
64.01,-11.2802994808648,33.9401510490759,34.8679676776531,0.143228932063738,4.19681184418607,5.4889930763038,5.48505537490259,-3.06706312703195,44.9558665214272,51.5966644330969,-0.23194438485731,0.154578403324493,2.92489826345955,2.92403402104182,1.43676218080422,8.18196091380492,2.04921827609822,-22.7388105582672,22.7411597219957,-94.0748060456504,0.991856594266715,9.33980456902454,-0.156762180804221,3.62695932243108,-0.845762959580898,2.60507521430703,-2.38001612337027,9.17316091989027,1.32712329866957,0.687983607863662,2.26400960261499,-19.5704949249226,742,-0.0406955161123308,-0.130892170364799,-61.42675384446,-41.8750965421231,-63.5379761601147,0.16864135909661,-2.3980356714391,-4.22607732755414,-4.22401801493674,-74.4639516945994,99.562340118241,81.6181037610536,-0.0695418518769512,0.455477690474866,0.872142400469738,0.813576816332088,2.34792816260642,5.41441700909892,0.623328930633013,9.75515354492868,28.7630536440951,94.4424442052854,-6.38538755992566,-1.92646903434105,-1.68832562860775,7.83389982618694,-3.39719241793401,255.977687096646,-0.641267538265946,5.74607657517324,-6.12669312464096,45.212175517385,201.899808127334,301.319784420645,1.19609138049115,0,0
64.015,-10.6692552636171,34.3081978252169,34.3695099007381,0.138355223753629,4.02317245655253,5.34243202203058,5.35106191830877,-2.27663020366396,40.9073500270748,49.9626155622343,-0.245864749492641,-0.104252793331851,2.47168657703241,2.48688013785962,1.53679006457294,8.17683127873986,1.94662557479698,-22.4854952464123,20.5278171846634,-93.8468222649809,1.23551425985716,9.31415639369923,-0.256790064572929,3.92460481386062,-2.31499176833944,1.97495337606791,-2.3597448933394,9.14121835336283,1.30132358749165,0.948312576102812,2.65899149284077,-19.3730043467098,742,-0.0350098732157329,-0.131727334340819,-62.0882507378289,-28.9934539959839,-60.3690754707944,0.181337701496518,-2.2436581616069,-4.01412752250288,-4.02071676781706,-72.597184577709,105.635113881369,85.4436758871087,-0.0939144588143256,0.422639048849288,0.763912728722024,0.72562937763769,2.86345648664516,5.20666678896391,0.797736522845113,9.3783470185445,22.2940138676001,87.3749470045332,-6.56748960473536,-1.9880246551218,-1.99353891497894,9.3664574629092,-5.29705725684591,262.446726873141,-1.06573421730139,5.67604880079389,-5.277145503202,56.1280392880613,205.418738095054,301.948167846996,0.683127873984933,0,0
64.02,-10.0582401825614,34.6762270519218,33.8710758915981,0.133481747834724,3.8495413485007,5.19587795617307,5.22932963500575,-1.4862349702122,36.859026576614,48.3286446071103,-0.259784450368454,-0.363071648237449,2.01849650092793,2.06723081141784,1.63681317874965,8.17170188826926,1.84403776538499,-22.2321920132963,18.314580185312,-93.6188493551765,1.47916030721065,9.28850944134622,-0.356813178749621,4.22223611277196,-3.78415052041245,1.34486158369177,-2.33947462989397,9.10927730994079,1.27552510651167,1.20862913117354,3.05395454929342,-19.1755231853661,742,-0.02932450142551,-0.132562458494028,-62.7497160892899,-16.1124256803686,-57.2003258829755,0.1940334385015,-2.08928801289953,-3.80218782377458,-3.82921295105585,-70.730506473174,111.707598078707,89.2690655998448,-0.118285903601836,0.389801973056326,0.655688217649102,0.67082094607375,3.37896022894043,4.99892647490462,0.972135798845491,9.0015584592844,15.8252825518993,80.3077868005957,-6.74958296644164,-2.049577340769,-2.29873764797963,10.8989420232612,-7.19683150521618,268.915458188841,-1.49018065665158,5.60602436552261,-4.42763839042323,67.0433825617048,208.937500270959,302.576521310376,0.170188826924959,0,0
64.025,-9.66957947317649,33.2724542060247,33.4520333437989,0.131635469946929,3.67309963892605,5.01637934583748,5.0736877951823,-1.06517187601548,32.2097500084037,45.9035607558548,-0.273246563090489,-0.587343469833695,1.6655899868907,1.74879320420239,1.60265482137213,8.16822775845718,1.87557293708505,-21.7565046467059,15.8933355191001,-92.7599228736588,1.96938779639583,9.23392171988616,-0.351010686057532,4.20502617065377,-6.47924903299336,-0.443899251765205,-2.33274912834167,9.0986795425415,1.26696538925171,1.29499995708466,3.18499994277954,-19.1100006103516,742,-0.0274381432682276,-0.132839545607567,-62.9730583194657,-9.42263005075747,-51.2396165089038,0.209382748625177,-1.95378882703531,-3.54023225125504,-3.59075017167282,-69.348063790119,114.358180661824,93.4024139898056,-0.140404953885984,0.366627916427672,0.591735977056167,0.672025795917555,3.87254796079672,4.81125981662979,1.22849105279795,9.32726142941341,11.7908093191727,72.3311731712744,-6.73911033828644,-1.83606411634524,-2.3964555169143,13.1446417098941,-9.5140718883073,269.748956881848,-3.81440665978327,5.81369456777533,-3.15340254070259,63.2960205939236,188.171735366884,303.076535448864,0,0,0
64.03,-9.39134622053447,30.9890756052881,33.0724388358568,0.131292338211435,3.49527504625691,4.82053646249859,4.90012825472278,-0.827513526219414,27.26242987542,43.0858596327689,-0.286480521075355,-0.794446565185609,1.36249979448741,1.4787865257136,1.50187733164719,8.16557571925389,1.97369838760671,-21.170436724004,13.3689870922667,-91.5877870282549,2.58200885235536,9.16496870060067,-0.292665823585203,4.03149767957442,-9.78283860844721,-2.80781567741205,-2.33274912834167,9.0986795425415,1.26696538925171,1.29499995708466,3.18499994277954,-19.1100006103516,742,-0.0274381432682276,-0.132839545607567,-62.9788549509449,-5.80728046259396,-43.893114678476,0.226048471796503,-1.82766880904955,-3.25346231493737,-3.32705160256566,-68.2061443342184,115.309587990601,97.6883699955607,-0.161404104069897,0.348253236237,0.549769637008426,0.692559031754438,4.35521909579514,4.63357319000948,1.52551944356621,10.0017306588916,8.96524162480532,63.9035819252702,-6.63302877015493,-1.48599494151122,-2.39115143850773,15.744294953611,-12.0384203151407,267.784483397931,-7.08171400862557,6.15922630975188,-1.66837831394528,52.2688416068855,155.3500996438,303.512792984187,0,0,0
64.035,-9.11309970036813,28.7055881218755,32.6928262269892,0.130949190113739,3.31744197404018,4.62468424041174,4.72447193810495,-0.58984384370913,22.3148738299794,40.2680241478918,-0.299715110120159,-1.00155953622754,1.05939514925915,1.20663410131962,1.40109503635791,8.16292355358839,2.07182851723048,-20.5843408547129,10.8445182921355,-90.4155952896726,3.19465912108758,9.09601239329748,-0.234318178944048,3.85796091380665,-13.0865857152336,-5.17184482617299,-2.33274912834167,9.0986795425415,1.26696538925171,1.29499995708466,3.18499994277954,-19.1100006103516,742,-0.0274381432682276,-0.132839545607567,-62.984651858836,-2.19175847685341,-36.5462625308564,0.242714989671143,-1.70154277704356,-2.96667870402449,-3.06242538100244,-67.0641704260048,116.261040687139,101.974530376691,-0.182404255596149,0.329877679851574,0.507801295800033,0.709615966040229,4.83791324691749,4.45587809042048,1.82256199810304,10.6762320503663,6.13953919353014,55.4755888104355,-6.52694214353464,-1.13590907366424,-2.38584710717672,18.3440721615282,-14.5628891152719,265.819916238295,-10.3491771586862,6.50477452837437,-0.183283273958911,41.24113678994,122.526898824358,303.949071322407,0,0,0
64.04,-8.83486644772612,26.422209521139,32.313231719047,0.130606058378245,3.13961738137104,4.42884135707285,4.54628346829245,-0.35218549391306,17.3675536969957,37.4503230248059,-0.312949068105025,-1.20866263157945,0.756304956855858,0.931704001061739,1.30031754663296,8.1602715143851,2.16995396775214,-19.998272932011,8.32016986530212,-89.2434594442688,3.80728017704711,9.027059374012,-0.175973316471719,3.68443242272731,-16.3901752906875,-7.53576125181984,-2.33274912834167,9.0986795425415,1.26696538925171,1.29499995708466,3.18499994277954,-19.1100006103516,742,-0.0274381432682276,-0.132839545607567,-62.9904484903153,1.4235911113101,-29.1997607004286,0.259380712842469,-1.57542275905779,-2.67990876770683,-2.7964593345916,-65.9222509701042,117.212448015916,106.260486382446,-0.203403405780062,0.311502999660902,0.465834955752292,0.722501157137822,5.32058438191591,4.27819146380018,2.1195903888713,11.3507012798445,3.31397149916279,47.0479975644313,-6.42086057540312,-0.785839898830224,-2.38054302877015,20.9437254052451,-17.0872375421053,263.855442754378,-13.6164845075285,6.85030627035092,1.3017409527984,30.2139578029019,89.7052631012744,304.385328857731,0,0,0
64.045,-8.62169796437839,24.5836518971833,31.2161412290942,0.130181780926705,3.00946108462972,4.28207413500503,4.41424789619379,-0.262671994395608,13.1165471933253,33.1574289724921,-0.323438773478953,-1.39881492787915,0.491503834640821,0.691715029737484,1.13840393932595,8.27928870348125,2.15266300545222,-19.3952134640901,7.15049524346896,-85.567499811349,4.27508455557169,9.03491108793514,-0.162544456032431,3.39360353369781,-22.4074946024631,-11.3091897558359,-2.33274912834167,9.0986795425415,1.26696538925171,1.29499995708466,3.18499994277954,-19.1100006103516,742,-0.0274381432682276,-0.132839545607567,-62.9475872506806,2.86358657574616,-22.0177334448591,0.275060091089392,-1.40139280063153,-2.50635428429216,-2.64198132830192,-64.7787228010436,116.41830479769,109.130385358952,-0.21090497567607,0.24023164469362,0.452799365195704,0.759570118983616,5.48183315951366,4.30473326380546,1.88408559848973,10.9656705731681,3.56468137378338,38.5547580875044,-6.42242590661264,-0.0914269495306925,-2.02213388955629,22.311333450354,-14.8175439385664,259.619736494912,-13.9509897232056,6.88568162918091,1.45377695560455,29.0850009918213,86.3450012207031,304.429992675781,0,0,0
64.05,-8.41596147190228,22.7959239781292,30.0372782672748,0.129748271306512,2.88474829320865,4.1409118113155,4.28459609299815,-0.190059238944435,8.94518139980847,28.6965165230999,-0.333614938344989,-1.58702387661649,0.231083665138474,0.452323197328765,0.969526330380612,8.41217600232347,2.12220966613421,-18.7902481375706,6.13538393286859,-81.6061731817671,4.72634767455676,9.05152200029042,-0.154238999854784,3.08941192883776,-28.7339964069118,-15.2431733198124,-2.33274912834167,9.0986795425415,1.26696538925171,1.29499995708466,3.18499994277954,-19.1100006103516,742,-0.0274381432682276,-0.132839545607567,-62.8991788350542,4.05540539746735,-14.8548461063932,0.290626143337327,-1.22190793584843,-2.34572129526614,-2.49839764742338,-63.6350719026876,115.425122913797,111.838629921605,-0.216866741776698,0.162931185376249,0.443064032527461,0.794749328537937,5.60641500217825,4.35456600087129,1.58785766148726,10.4598238594683,4.1662288171021,30.0544825674266,-6.43626833357536,0.642221679494107,-1.62347199302961,23.5383535193962,-12.0012081812106,255.125220086025,-13.9509897232056,6.88568162918091,1.45377695560455,29.0850009918213,86.3450012207031,304.429992675781,0,0,0
64.055,-8.21021516890247,21.0081108114514,28.8583590914951,0.129314741014456,2.76002955487083,3.99974275631493,4.151508204914,-0.117443020961411,4.77361669513841,24.2353913555517,-0.343791588460411,-1.77524180007839,-0.0293489224731424,0.208828765562201,0.800640668523686,8.545069637883,2.09175487465181,-18.1852539633412,5.12022421678873,-77.6446576567282,5.17763231197772,9.06813370473536,-0.145933147632304,2.785205818632,-35.060799889955,-19.1773444753946,-2.33274912834167,9.0986795425415,1.26696538925171,1.29499995708466,3.18499994277954,-19.1100006103516,742,-0.0274381432682276,-0.132839545607567,-62.8507681110775,5.24728105094771,-7.69161720637387,0.306192937850879,-1.04241451234783,-2.18508064647239,-2.35255798538813,-62.491366469455,114.431893670127,114.547003626624,-0.222828792163535,0.0856270399943448,0.43332823563087,0.824424632814404,5.73100278551532,4.40440111420612,1.29161559888578,9.95395302451942,4.76780494514941,21.5538017125761,-6.4501114206128,1.37590529247909,-1.22479108635097,24.7654320987654,-9.18473812717083,250.63048935658,-13.9509897232056,6.88568162918091,1.45377695560455,29.0850009918213,86.3450012207031,304.429992675781,0,0,0
64.06,-8.02712177843448,19.1663665186605,27.4694831318829,0.126828605198264,2.65449115652454,3.84078573291631,3.99708921701764,-0.0862119369813559,0.777359455949977,19.7252774381915,-0.353860842651435,-1.95937412187815,-0.285261298667947,-0.0344083005132082,0.651668812570624,8.68879260057281,2.03143810599889,-17.3110188518392,4.69333588960287,-73.4584932218307,5.41972830228342,9.13272748771578,-0.171479097143747,2.65922947936769,-41.3815508056953,-22.7435412832668,-2.33896906417796,9.1015067519889,1.26809628241217,1.49331827697079,3.36679172428162,-18.9089278533292,742.393488714297,-0.024333073740116,-0.133201132149,-62.7800647792279,6.88918708671764,-1.56655692617742,0.318655651882732,-0.835319369701464,-2.03642910200351,-2.21631707755654,-61.3940046635537,112.084913163622,116.253284761101,-0.229206318921293,-0.0232408653149427,0.435367660326749,0.860183129539992,5.79402974485639,4.43291720314265,0.976118979425583,10.4417509538162,5.56478699754136,13.9765085964296,-6.44819533857107,2.13766718343535,-0.876254828283887,25.3466158786512,-6.40432204195333,244.956805208042,-13.9509897232056,6.88568162918091,1.45377695560455,29.0850009918213,86.3450012207031,304.429992675781,0,0,0
64.065,-7.90065279351721,17.1894329195939,25.5552730396237,0.119208484491772,2.59690520141946,3.6373144337924,3.79459493430443,-0.158479928362654,-2.78112067419986,15.0918896352134,-0.363663180466964,-2.13331908705378,-0.529911341831187,-0.27068576580707,0.552476548335394,8.85962372231126,1.89642641301205,-15.7632657576338,5.73764402129746,-68.7097826294996,5.13868355361695,9.31733531282023,-0.281692724071785,2.97898506366506,-47.6882194576881,-25.3900289916003,-2.36074610831129,9.11140528897234,1.27205573005177,2.1876641542082,4.0032754040248,-18.2049382272401,743.771159050897,-0.0134617017628947,-0.13446710759924,-62.6535957943107,9.65689396774894,1.96306445029836,0.323357136034399,-0.559157707912295,-1.9177375108479,-2.10757983651047,-60.4123651480104,106.3518066723,115.453615558654,-0.236624017471956,-0.211067961839162,0.4668572743551,0.919627673774269,5.70310350264077,4.40811913708385,0.612414010563089,13.4147975567513,6.85061264503504,8.70734476582721,-6.40686522847307,2.96978006674198,-0.653072233754628,24.3125127124129,-3.71361281664249,236.33360939747,-13.9509897232056,6.88568162918091,1.45377695560455,29.0850009918213,86.3450012207031,304.429992675781,0,0,0
64.07,-7.77418983897305,15.2125935859098,23.6411542219254,0.111588727132633,2.53932199216385,3.43385283671403,3.58862608614296,-0.230744473816458,-6.33943112667803,10.4587227643259,-0.373465050881301,-2.30725575807696,-0.774549719438297,-0.511166992974507,0.453289013847648,9.03044669837348,1.76142115773707,-14.215586464358,6.7819023576396,-63.9612984681522,4.85765220590168,9.50193433533909,-0.391901095724842,3.29872540117699,-53.9945873911679,-28.0363905084543,-2.38252211405801,9.12130335396756,1.27601498889451,2.88197692321191,4.63972873455572,-17.5009821692239,745.14876369656,-0.00259084816122062,-0.135733022684447,-62.5271328397665,12.4244688772524,5.49251752516359,0.328058396006964,-0.283009214235932,-1.79905157921885,-1.99639606776419,-59.4307724396155,100.618973550542,114.653984486533,-0.244041362327284,-0.398886102274476,0.498345386876011,0.973339569198011,5.61218159602701,4.38332225346193,0.248726384108037,16.3877023970218,8.13637698098726,3.43843218278495,-6.36553708910318,3.8018532727225,-0.429900281157208,23.2784588549275,-1.02303189140915,227.710824763505,-13.9509897232056,6.88568162918091,1.45377695560455,29.0850009918213,86.3450012207031,304.429992675781,0,0,0
64.075,-7.64772085405578,13.2356599868432,21.7269441296662,0.10396860642614,2.48173603705877,3.23038153759012,3.3793309529938,-0.303012465197756,-9.89791125682786,5.82533496134779,-0.38326738869683,-2.48120072325259,-1.01919976260154,-0.755670433353983,0.354096749612418,9.20127782011193,1.62640946475023,-12.6678333701527,7.8262104893342,-59.2125878758211,4.57660745723522,9.68654216044354,-0.50211472265288,3.61848098547436,-60.3012560431607,-30.6828782167879,-2.40429915819134,9.131201890951,1.2799744365341,3.57632280044931,5.2762124142989,-16.7969925431348,746.526434033161,0.00828052381600071,-0.136998998134687,-62.4006638548492,15.1921757582837,9.02213890163937,0.332759880158631,-0.00684755244676234,-1.68035998806323,-1.88282013350591,-58.4491329240723,94.8858670592198,113.854315284087,-0.251459060877947,-0.586713198798696,0.529835000904362,1.02144619407941,5.5212553538114,4.35852418740313,-0.114978584754457,19.3607489999569,9.42220262848094,-1.83073164781742,-6.32420697900518,4.63396615602913,-0.206717686627948,22.2443556886892,1.66767733390169,219.087628952932,-13.9509897232056,6.88568162918091,1.45377695560455,29.0850009918213,86.3450012207031,304.429992675781,0,0,0
64.08,-7.55370519822675,11.6627162320184,19.7913095996894,0.0952817081369154,2.42761081243086,3.08068733782744,3.22074908455692,-0.452266503127307,-13.546018721502,1.61721803429954,-0.392358709349816,-2.63990570785702,-1.23465324477067,-0.974678298572173,0.348460574102075,9.3560544375945,1.53553035296549,-12.1994873957531,8.50580585022399,-55.1470435104088,4.31813048479445,9.78379693174622,-0.527548498830363,3.84258872324908,-59.6845672869264,-35.593762809721,-2.42967782005408,9.1797630019715,1.27068490574107,3.1426189839071,5.3206788657911,-16.7978045372709,759.629379757797,0.02328570186035,-0.137192541180631,-62.2405544261359,17.0369430306966,11.3190324807324,0.33633128745214,0.292180396374121,-1.52696918559321,-1.73227557769624,-57.6412662072366,88.3205959009511,110.693076708,-0.26164180569453,-0.816338740671365,0.515639079303405,1.0184608410688,5.66787858813799,4.26639706357517,-0.126157703591704,21.3050494693574,8.64320376537386,-6.41995572832772,-6.19437891771032,5.36469647034497,-0.188699934085526,21.0368284913885,3.17014899605296,207.853200457684,-13.9509897232056,6.88568162918091,1.45377695560455,29.0850009918213,86.3450012207031,304.429992675781,0,0,0
64.085,-7.47669212846858,10.3014455260748,17.8445458729324,0.0860364772118778,2.37530079788838,2.95916714529055,3.08760749514587,-0.641836460349143,-17.2408964073093,-2.36795381085781,-0.401077186542057,-2.79062086957564,-1.43480415012554,-1.18168567394627,0.391826606180455,9.50241479585902,1.46777092784303,-12.2965255848174,8.9943429399958,-51.4395154592639,4.07148617734869,9.83529409483928,-0.508575859796076,4.01658823467466,-55.4416561237028,-41.6904379985171,-2.45694169366417,9.24857212125222,1.25445639108161,2.11809646058701,5.05506191414142,-17.167770936404,778.873056492575,0.0404553309494715,-0.136824366318117,-62.0628327527915,18.3982136073994,12.9701498265477,0.33931062329534,0.60317077810847,-1.3554112667176,-1.5614518186157,-56.9244551134385,81.3197743151558,106.295068004942,-0.273272315211823,-1.06784613471435,0.477515089253494,0.986400801240691,5.93891628862782,4.13900934434494,0.047306424721787,22.710430138564,6.78274745090043,-10.6528284581998,-6.01820441239193,6.04229072156956,-0.278142375247168,19.7385244445976,4.05018498653229,195.251620457131,-13.9509897232056,6.88568162918091,1.45377695560455,29.0850009918213,86.3450012207031,304.429992675781,0,0,0
64.09,-7.39967538635002,8.9401099080762,15.8976893149453,0.0767908054289448,2.32298828894818,2.83764115807566,2.95212464859132,-0.83141545719509,-20.9359502829828,-6.35331568852888,-0.409796079473995,-2.94134321813141,-1.63496459965597,-1.39153339647775,0.43519470616366,9.64878213330232,1.40000827161928,-12.3935684011378,9.48290332560899,-47.7318106150214,3.82483010869425,9.88679371356933,-0.489602316053429,4.19059604324922,-51.1985426376924,-47.7874039066488,-2.48420686734929,9.31738452168878,1.23822710256709,1.0935250830147,4.78943229657445,-17.5377549773471,798.117650860119,0.0576257787706082,-0.136456173899222,-61.8851026048071,19.759549096151,14.6213459057255,0.342290101207866,0.91417598938751,-1.1838451671201,-1.38869380012832,-56.2076098385764,74.3186188958959,101.896849583286,-0.284903379328778,-1.31936552186181,0.439389281265,0.949494819216012,6.20996691352281,4.01161555064428,0.220778824654576,24.1158778232047,4.92220242075704,-14.8859030321771,-5.8420215062102,6.71991728380703,-0.36758908146251,18.4401584883105,4.93026294143824,182.64943955152,-13.9509897232056,6.88568162918091,1.45377695560455,29.0850009918213,86.3450012207031,304.429992675781,0,0,0
64.095,-7.32266231659185,7.57883920213259,13.9509255881882,0.0675455745039072,2.2706782744057,2.71612096553877,2.81476821189755,-1.02098541441693,-24.6308279687901,-10.3384875336862,-0.418514556666236,-3.09205837985003,-1.83511550501084,-1.60367645048968,0.47856073824204,9.79514249156684,1.33224884649682,-12.4906065902021,9.9714404153808,-44.0242825638765,3.57818580124849,9.9382908766624,-0.470629677019142,4.36459555467479,-46.9556314744688,-53.8840790954448,-2.51147074095937,9.3861936409695,1.22199858790763,0.0690025596946119,4.52381534492478,-17.9077213764801,817.361327594897,0.0747954078597298,-0.136087999036709,-61.7073809314627,21.1208196728538,16.2724632515408,0.345269437051066,1.22516637112186,-1.01228724824449,-1.21422127393824,-55.4907987447784,67.3177973101006,97.4988408802283,-0.29653388884607,-1.57087291590479,0.401265291215089,0.908075186947717,6.48100461401265,3.88422783141406,0.394242952968067,25.5212584924112,3.06174610628361,-19.1187757620492,-5.66584700089181,7.39751153503162,-0.457031522624151,17.1418544415197,5.81029893191757,170.047859550968,-13.9509897232056,6.88568162918091,1.45377695560455,29.0850009918213,86.3450012207031,304.429992675781,0,0,0
64.1,-7.32010635375977,7.53366041183472,12.6398037858666,0.0603097548278167,2.20054134043106,2.71208786964417,2.79352221504491,-1.02727699279785,-24.7534561157227,-13.0977990776103,-0.425633670534984,-3.20962934789435,-1.84175825119019,-1.62405343854176,0.480000000000018,9.80000000000001,1.32999999999998,-12.4938271604938,9.98765432098764,-43.9012345679012,3.76228070175438,9.93759649122807,-0.378666666666681,4.37037037037038,-46.8148148148148,-54.0864197530864,-2.51237559318542,9.38847732543945,1.22145998477936,0.0350000001490116,4.5149998664856,-17.9200000762939,818,0.0753652453422546,-0.136075779795647,-61.7014825820923,21.1659984588623,17.257945881344,0.344883416163269,1.46879124048845,-1.00659346580505,-1.20410040385305,-55.4670087242126,67.08544921875,92.4342081563819,-0.30634011901185,-1.76735088242713,0.400000005960464,0.899338108132727,6.49000000000001,3.88,0.399999999999977,25.6895603205545,3.03264024258176,-20.680593458956,-5.34994736842107,7.75889473684211,-0.0465964912280569,15.2768464370804,7.71186917912063,154.63885640026,-17.6529632016232,4.24404641117966,1.31274390806232,28.8662812718174,69.7559835668196,251.03724970232,0,0,0
64.105,-7.32010635375977,7.53366041183472,11.350565880823,0.0531432676654834,2.12979593343457,2.71208786964417,2.77547037389522,-1.02727699279785,-24.7534561157227,-15.8148952890624,-0.432697533072748,-3.32605679997076,-1.84175825119019,-1.63894733801377,0.480000000000018,9.80000000000001,1.32999999999998,-12.4938271604938,9.98765432098764,-43.9012345679012,3.96115220483641,9.93511059743955,-0.284202702702704,4.37037037037038,-46.8148148148148,-54.0864197530864,-2.51237559318542,9.38847732543945,1.22145998477936,0.0350000001490116,4.5149998664856,-17.9200000762939,818,0.0753652453422546,-0.136075779795647,-61.7014825820923,21.1659984588623,18.2205311327207,0.344381894078791,1.71009168583267,-1.00659346580505,-1.19836841726784,-55.4670087242126,67.08544921875,87.3469424829526,-0.316083244785303,-1.96193020229722,0.400000005960464,0.888026348305072,6.49000000000001,3.88,0.399999999999977,25.8153895123193,3.06639929403087,-22.1506466993309,-5.0292670697013,8.10940576102418,0.380977240398299,13.3924775652846,9.64841113042866,139.134244771087,-21.4818291424348,1.51186392169928,1.16687667389343,28.6400645008467,52.5983445246223,195.814364868207,0,0,0
64.11,-7.32010635375977,7.53366041183472,10.0612664986012,0.0459764387699395,2.05904715295056,2.71208786964417,2.7571404203992,-1.02727699279785,-24.7534561157227,-18.5321210649708,-0.439761732450078,-3.44248980387836,-1.84175825119019,-1.65441492096282,0.480000000000018,9.80000000000001,1.32999999999998,-12.4938271604938,9.98765432098764,-43.9012345679012,4.16003319108582,9.93262458511143,-0.189734234234223,4.37037037037038,-46.8148148148148,-54.0864197530864,-2.51237559318542,9.38847732543945,1.22145998477936,0.0350000001490116,4.5149998664856,-17.9200000762939,818,0.0753652453422546,-0.136075779795647,-61.7014825820923,21.1659984588623,19.1831622848771,0.343880348079284,1.95140363756407,-1.00659346580505,-1.19152842286993,-55.4670087242126,67.08544921875,82.2594342237775,-0.325826835158716,-2.15651880066237,0.400000005960464,0.873196283499803,6.49000000000001,3.88,0.399999999999977,25.9412247042364,3.10015995527691,-23.6207700390449,-4.70857147937412,8.45993349928876,0.808571360834517,11.508018837551,11.5850454255425,123.628893806087,-25.310877662329,-1.22044885162495,1.02100248406034,28.4138369427523,35.4398873221541,140.588846736454,0,0,0
64.115,-7.32010635375977,7.53366041183472,8.77202859355759,0.0388099516076063,1.98830174595407,2.71208786964417,2.73910444663885,-1.02727699279785,-24.7534561157227,-21.2492172764229,-0.446825594987842,-3.55891725595477,-1.84175825119019,-1.66988133022108,0.480000000000018,9.80000000000001,1.32999999999998,-12.4938271604938,9.98765432098764,-43.9012345679012,4.35890469416786,9.93013869132291,-0.095270270270246,4.37037037037038,-46.8148148148148,-54.0864197530864,-2.51237559318542,9.38847732543945,1.22145998477936,0.0350000001490116,4.5149998664856,-17.9200000762939,818,0.0753652453422546,-0.136075779795647,-61.7014825820923,21.1659984588623,20.1457475362538,0.343378825994806,2.1927040829083,-1.00659346580505,-1.18376009989433,-55.4670087242126,67.08544921875,77.1721685503482,-0.335569960932169,-2.35109812053246,0.400000005960464,0.855146691022348,6.49000000000001,3.88,0.399999999999977,26.0670538960013,3.13391900672602,-25.0908232794198,-4.38789118065434,8.81044452347082,1.23614509246087,9.62364996575524,13.5215873768505,108.124282176914,-29.1397436031407,-3.95263134110533,0.875135249891457,28.1876201717816,18.2822482799568,85.3659619023417,0,0,0
64.12,-7.19017236826082,7.53366041183472,8.1945278242508,0.0303720203950824,1.912580268233,2.59620337469587,2.60604969437047,-1.65435104506547,-27.7206318110289,-23.1585866570458,-0.446287222131797,-3.66526234667948,-2.13942234605738,-1.98245984652968,0.467076605797987,10.048129168679,1.15682651769281,-8.66467332285578,11.739492201707,-39.2264759244515,3.72124561105818,10.2789316434548,-0.0874153211595717,6.56575190394952,-47.7370026973793,-58.8569072424771,-2.54394638322544,9.3420496531536,1.25241176630326,-0.752034704328089,4.27979413144775,-19.5393012120518,844.363724172138,0.0913793561519676,-0.137562070390389,-60.9557726051864,27.8421450057722,21.7820656937777,0.335729858059073,2.39172674280403,-0.463526849423804,-0.632154421784088,-54.9246746885422,45.3879752829876,70.077513005061,-0.335657497481066,-2.47602263022828,0.0273517876120103,0.46150040448521,6.99918173155992,3.89550807304243,0.402584678840395,27.104754648705,2.32210727863771,-27.7734731542354,-4.56126623419003,8.40869734901386,1.21606045971309,8.29957121353709,18.738359041345,89.3611560298328,-29.3533611297607,-4.10506343841553,0.866997122764587,28.1749992370605,17.3250007629395,82.2850036621094,0,0,0
64.125,-7.05256780256553,7.53366041183472,7.65910916531576,0.0218593921010763,1.83656860359797,2.47347770337172,2.46757961065429,-2.31844406345271,-30.8629730647541,-25.0201351225363,-0.44529969883449,-3.77100635125773,-2.45465887436058,-2.31154302532536,0.453390286243861,10.3109065041181,0.973429835667582,-4.60946752904165,13.594748852377,-34.2757455178367,3.03419236944123,10.6484622714161,-0.0846780572487496,8.89073655906962,-48.7136314260562,-63.9090177939372,-2.57738093720632,9.29288114918902,1.28519076894631,-1.58553156260449,4.03070315733005,-21.2541968851141,872.283816062548,0.108338851040892,-0.139136103319504,-60.1660400566714,34.912414131883,23.4581086862695,0.32765896998002,2.58824137161023,0.111599401062569,-0.0478507313361712,-54.3503242662593,22.4096031030627,62.8646092275484,-0.335174529690538,-2.59682528089907,-0.367295509983456,0.0431488112488667,7.53842272199234,3.91193165650738,0.405321942751233,28.1962808748733,1.46037604745221,-30.5276337558675,-4.76382376359104,7.96252333154946,1.16952697322907,7.00866403583959,24.1486794379254,70.4064482819133,-29.3533611297607,-4.10506343841553,0.866997122764587,28.1749992370605,17.3250007629395,82.2850036621094,0,0,0
64.13,-6.91495667521053,7.53366041183472,7.12366497499648,0.0133463578832567,1.76055331435446,2.35074617988643,2.33106723322789,-2.98256874904792,-34.005464160702,-26.8817723557759,-0.444312128447234,-3.87675539822808,-2.76991043468553,-2.63910158491513,0.439703314058981,10.5736963700677,0.790024408390238,-0.554068363152089,15.4500939707715,-29.3247790361466,2.34710636576039,11.0180105204077,-0.0819406628117767,11.2158320808463,-49.6903067251746,-68.9613692547746,-2.61081708551049,9.24371030062934,1.31797133465277,-2.41906816609372,3.78160030533461,-22.9691743328019,900.205239319698,0.125299154641605,-0.140710211306219,-59.3762698498402,41.9830204030574,25.1342316007008,0.319587697041491,2.7847653711965,0.686753076385646,0.537012915040576,-53.775946456135,-0.569864798200248,55.6513615034535,-0.33469153886974,-2.71763369203196,-0.761961626295131,-0.377711776314601,8.0776894260765,3.92835602312923,0.408059337188221,29.2878591503585,0.598603724700679,-33.2819256893674,-4.96639095192723,7.51632803832247,1.12299126780048,5.71769530136475,29.559257825083,51.4508366806845,-29.3533611297607,-4.10506343841553,0.866997122764587,28.1749992370605,17.3250007629395,82.2850036621094,0,0,0
64.135,-6.81739791870117,7.53366041183472,6.75317343141563,0.00125779116787816,1.69834859988964,2.26373624801636,2.23274497156311,-3.45339679718018,-36.2333183288574,-28.5437182881415,-0.445316551491717,-3.97423052846709,-2.99340653419495,-2.87294366639772,0.424019988895063,10.7845844900981,0.703188969091269,2.75410780019333,17.1526152594695,-25.2931019118323,1.75036646307608,11.2946178049232,-0.114551175272983,12.8855254168352,-50.0176810779563,-72.6933253816467,-2.62831518143917,9.21999037056174,1.33309502246842,-2.98674439805847,3.69802242037589,-24.6268559434161,923.122894688136,0.138361165984326,-0.141493313495768,-58.8163660049438,46.9956932067871,27.0829205334441,0.309460152318058,2.96947443557378,1.09450554847717,0.954927850573159,-53.3687440299988,-16.8610496520996,47.9632002696675,-0.332630101449652,-2.82201515114724,-1.0417582988739,-0.685997371508124,8.33774199518784,4.00312233944105,0.293722006292825,30.19871904726,0.492961157838687,-35.1755060631611,-5.21963353692394,7.22524893577641,1.04946881362204,4.75243063410132,33.888884318954,35.832799793439,-29.2254157199609,-3.41170769172003,0.821006804461967,27.3494255324326,16.4040789963823,71.3130118514617,0,0,0
64.14,-6.81739791870117,7.53366041183472,6.78447534353908,-0.0195433932339533,1.66977872420822,2.26373624801636,2.22436352162803,-3.45339679718018,-36.2333183288574,-29.7194527973603,-0.451173991538679,-4.05156488878453,-2.99340653419495,-2.88096206317093,0.403470620896885,10.8690652252017,0.851601071300276,4.24245708730365,18.483109319159,-23.5003175432676,1.37362804977627,11.3448495933631,-0.233280857040202,12.958815343852,-48.7632957886303,-73.209173714111,-2.60698819714126,9.2582695452312,1.30520587449959,-2.90683021095158,4.01767927767789,-26.1452262605682,933.854231309403,0.14192838013215,-0.140349512344327,-58.8163660049438,46.9956932067871,29.695948356765,0.29432150216407,3.12543046904446,1.09450554847717,0.965485794586436,-53.3687440299988,-16.8610496520996,39.1168050160023,-0.326722947910331,-2.88639471920261,-1.0417582988739,-0.716596947660246,7.91762158278079,4.22003233497729,-0.105849038116054,30.6694658861755,2.2293686594674,-34.9725493421915,-5.59637195022374,7.31201293399091,0.910189763856669,4.58048118994652,35.5858280137275,28.3431330209917,-28.7857514344747,-1.02909967603957,0.662968306109919,24.5124712913287,13.2394761308674,33.6094869861652,0,0,0
64.145,-6.81739791870117,7.53366041183472,6.81577576310521,-0.0403435857807208,1.64121021081346,2.26373624801636,2.21932329968981,-3.45339679718018,-36.2333183288574,-30.8951312444722,-0.457031152287528,-4.12889556159671,-2.99340653419495,-2.88634313971354,0.382922232746504,10.9535419320421,1.00000609683075,5.73073540601385,19.8135399374,-21.7076186593666,0.996907600352741,11.3950789866196,-0.352004877464594,13.0321017762127,-47.5089703116871,-73.7249974495731,-2.58566222976994,9.29654689464915,1.27731805635853,-2.82691983436287,4.33732089290201,-27.6635241778386,944.585056232376,0.145495424185841,-0.139205765732326,-58.8163660049438,46.9956932067871,32.3088515840616,0.279183573860652,3.28137906612216,1.09450554847717,0.976400424242387,-53.3687440299988,-16.8610496520996,30.2708315816797,-0.320816076039594,-2.95077121747122,-1.0417582988739,-0.749125312183919,7.4975212028176,4.43693198767568,-0.505401029928881,31.1401902786464,3.96569336462933,-34.769602298731,-5.97309239964726,7.39877279507026,0.770917355281922,4.4085399447925,37.2826907937721,20.8538233755125,-28.3461081133355,1.35339473063767,0.504937343448237,21.6756523236485,10.0750241619225,-4.09224007611459,0,0,0
64.15,-6.81739791870117,7.53366041183472,6.84707767522866,-0.0611447701825523,1.61264033513205,2.26373624801636,2.21797373128734,-3.45339679718018,-36.2333183288574,-32.0708657536911,-0.46288859233449,-4.20622992191415,-2.99340653419495,-2.88883405866304,0.362372864748325,11.0380226671457,1.14841819903976,7.21908469312417,21.1440339970895,-19.9148342908019,0.620169187052932,11.4453107750596,-0.470734559231812,13.1053917032295,-46.2545850223611,-74.2408457820375,-2.56433524547203,9.33482606931861,1.2494289083897,-2.74700564725599,4.65697775020401,-29.1818944949906,955.316392853643,0.149062638333665,-0.138061964580885,-58.8163660049438,46.9956932067871,34.9218794073826,0.264044923706664,3.43733509959284,1.09450554847717,0.987644583917673,-53.3687440299988,-16.8610496520996,21.4244363280146,-0.314908922500273,-3.01515078552659,-1.0417582988739,-0.783391981148973,7.07740079041055,4.65384198321193,-0.904972074337761,31.610937117562,5.70210086625804,-34.5666455777614,-6.34983081294705,7.48553679328476,0.631638305516551,4.2365905006377,38.9796344885456,13.3641566030653,-27.9064438278493,3.73600274631814,0.346898845096188,18.8386980825446,6.9104212964076,-41.795764941411,0,0,0
64.155,-6.81739791870117,7.53366041183472,6.87837809479479,-0.0819449627293197,1.58407182173729,2.26373624801636,2.22059494758834,-3.45339679718018,-36.2333183288574,-33.2465442008029,-0.468745753083339,-4.28356059472633,-2.99340653419495,-2.88823746700472,0.341824476597944,11.1224993739861,1.29682322457023,8.70736301183437,22.4744646153305,-18.122135406901,0.243448737629402,11.4955401683161,-0.589458579656204,13.1786781355902,-45.0002595454178,-74.7566695174996,-2.5430092781007,9.37310341873657,1.22154109024864,-2.66709527066728,4.97661936542812,-30.7001924122611,966.047217776617,0.152629682387356,-0.136918217968884,-58.8163660049438,46.9956932067871,37.5347826346792,0.248906995403246,3.59328369667054,1.09450554847717,0.999194910420922,-53.3687440299988,-16.8610496520996,12.578462893692,-0.309002050629536,-3.07952728379519,-1.0417582988739,-0.819187767566073,6.65730041044736,4.87074163591032,-1.30452406615059,32.0816615100328,7.43842557141997,-34.3636985343009,-6.72655126237057,7.57229665436412,0.492365896941803,4.06464925548367,40.6764972685902,5.87484695758603,-27.4668005067101,6.11849715299538,0.188867882434506,16.0018791148644,3.74596932746269,-79.4974920036908,0,0,0
64.16,-6.78216632554321,7.01964387151466,6.87820688217974,-0.0999196847358059,1.56852878105674,2.21177700126098,2.17543081997005,-3.75873727121588,-36.4903264709137,-33.9642150744572,-0.470671639414349,-4.33920411161449,-3.10204859559255,-2.99305132533436,0.159107020684332,11.1819395683184,1.48193788132972,8.94564066748747,22.5505810217945,-16.9259405048401,0.360445646163492,11.5501485487212,-0.664476705498661,13.7645026351387,-37.731443906066,-76.9671705995602,-2.60545866454485,9.3855099479214,1.32201361401009,-3.69431396298653,5.18678857964246,-36.1444783280515,987.417623407905,0.162640282520873,-0.13396288730088,-58.4170747866252,45.4536436712294,39.1136139541107,0.249545319251023,3.72979340700849,1.3464291691093,1.26294703128003,-53.5644748753587,-19.3026280264643,6.20049298919156,-0.293693848979243,-3.13526959828239,-1.25746789904016,-1.07198569876585,6.56985145127883,5.3180536837271,-1.07313808001948,33.5032052205471,6.28138935662906,-37.2599553445547,-6.79761141154087,7.70358035220572,0.191645844853295,7.63142191041857,34.1627986840563,-15.3979045009389,-23.8558756963066,7.02536933445484,-0.143017521139912,-25.1712149912677,-6.50829291601103,-75.617341718251,0,0,0
64.165,-6.74350375410858,6.45557056606977,6.87496921179865,-0.117618163892056,1.55425570234556,2.15475777762378,2.12949981302242,-4.09381289031598,-36.7723629830573,-34.6372220144301,-0.472214377715408,-4.39273160925369,-3.22127060865216,-3.10512036212818,-0.0394019625301296,11.2389371971621,1.67061968715733,9.06211091799834,22.5044782143006,-15.7879290988068,0.525542226262656,11.6051807420875,-0.735232382684005,14.4002360858439,-29.8769813872392,-79.3426784172715,-2.67606750988058,9.39539508130282,1.43498778529111,-4.82935301677172,5.38628025435422,-41.9710115158111,1009.82358784993,0.173278192482777,-0.130831197962985,-57.9788991644713,43.761423848614,40.5916069311159,0.251720782982719,3.86440192860652,1.62288601098666,1.55146972282917,-53.7792666889663,-21.9819760164592,0.0633289738817515,-0.277470421381912,-3.19016771640563,-1.49418406989765,-1.34681229246416,6.51481925791244,5.78779276281875,-0.78028819389122,35.0173184771884,4.84249647010936,-40.458034306499,-6.83888555656567,7.83919540014432,-0.124789267003426,11.5622928651604,26.8494375373946,-38.012544808466,-19.9361431827007,7.78841548475067,-0.491825221081464,-70.0774839385139,-17.4528205948029,-67.6858269392912,0,0,0
64.17,-6.70483933905317,5.89147036284674,6.87173138702959,-0.135317486998483,1.53998194302407,2.0977358350307,2.08788854447409,-4.42890448746285,-37.0544129440832,-35.3102610466705,-0.473757189581787,-4.44626165934617,-3.34049830680133,-3.21382640346872,-0.237920411625246,11.295937543932,1.85931049025763,9.17858672238125,22.458373208399,-14.6498634268154,0.690646678975433,11.6602155596585,-0.805991433846613,15.0359998514339,-22.0221443291669,-81.7182995108312,-2.7466797221919,9.40528068605583,1.54796734373398,-5.96444619477864,5.58578144180617,-47.7978225412125,1032.23062071809,0.183916609712336,-0.127699359290803,-57.5407026479574,42.0691233326687,42.0696703860658,0.253896350451181,3.9990168689982,1.89935603568037,1.84018209930139,-53.9940687448997,-24.6614517708902,-6.07412769146932,-0.261246220172088,-3.24506845234003,-1.73091152854164,-1.62236422631089,6.45978444034151,6.25755424137056,-0.487424343245956,36.5315039341662,3.40353497012885,-43.656265768513,-6.88016166974387,7.97481691487266,-0.441239468036241,15.4933512630835,19.5357276538512,-60.6282634928139,-16.0162237570488,8.55149802082449,-0.840649553882677,-114.985894236623,-28.3978701622828,-59.7539339468566,0,0,0
64.175,-6.66617676761854,5.32739705740185,6.8684937166485,-0.153015966154733,1.52570886431289,2.04071661139349,2.0505372788361,-4.76398010656294,-37.3364494562267,-35.9832679866434,-0.475299927882847,-4.49978915698537,-3.45972031986094,-3.31916295300949,-0.436429394839707,11.3529351727758,2.04799229608524,9.29505697289213,22.4122704009051,-13.5118520207822,0.855743259074597,11.7152477530248,-0.876747111031958,15.6717333021391,-14.1676818103401,-84.0938073285424,-2.81728856752763,9.41516581943725,1.66094151501499,-7.09948524856383,5.78527311651792,-53.624355728972,1054.63658516012,0.194554519674241,-0.124567669952908,-57.1025270258035,40.3769035100532,43.5476633630711,0.256071814182876,4.13362539059623,2.17581287755773,2.12897142442454,-54.2088605585074,-27.3407997608851,-12.2112917067791,-0.245022792574758,-3.29996657046327,-1.96762769939913,-1.89827275958634,6.40475224697512,6.72729332046221,-0.194574457117698,38.0456171908075,1.96464208360914,-46.8543447304573,-6.92143581476867,8.11043196281125,-0.757674579892962,19.4242222178254,12.2223665071895,-83.2429038003411,-12.0964912434429,9.31454417112031,-1.18945725382423,-159.892163183869,-39.3423978410747,-51.8224191678967,0,0,0
64.18,-6.62751235256314,4.76329685417882,6.86525589187944,-0.17071528926116,1.51143510499141,1.98369466880041,2.01727761340198,-5.09907170370982,-37.6184994172527,-36.6563070188837,-0.476842739749225,-4.55331920707785,-3.5789480180101,-3.42119615166464,-0.634947843934824,11.4099355195457,2.23668309918554,9.41153277727504,22.3661653950035,-12.3737863487908,1.02084771178737,11.7702825705958,-0.947506162194566,16.3074970677291,-6.3128447522678,-86.4694284221022,-2.88790077983896,9.42505142419025,1.77392107345786,-8.23457842657075,5.98477430396988,-59.4511667543734,1077.04361802829,0.205192936903799,-0.121435831280725,-56.6643305092897,38.6846029941079,45.025726818021,0.258247381651338,4.26824033098791,2.45228290225145,2.41774886982073,-54.4236626144408,-30.0202755153161,-18.3487483721302,-0.228798591364934,-3.35486730639767,-2.20435515804312,-2.17417894623335,6.34971742940419,7.19705479901402,0.0982893935275659,39.5598026477853,0.525680583628633,-50.0525761924713,-6.96271192794687,8.2460534775396,-1.07412478092578,23.3552806157485,4.90865662364612,-105.858622484689,-8.17657181779107,10.0776267071941,-1.53828158662544,-204.800573481978,-50.2874474085546,-43.8905261754621,0,0,0
64.185,-6.61160815494425,3.17376671219762,6.37972407489093,-0.178568614420838,1.44716398361897,1.89695269509055,1.95812989102968,-5.94798366317811,-41.6911059750285,-37.7240737802531,-0.466156732619957,-4.59657777500954,-3.69858035048547,-3.52043243864272,-0.512179999037971,11.6318110539228,2.35098657944104,9.08343859436584,23.5783352900899,-10.2295717880242,1.34695079128386,11.9938876328828,-0.972459473760142,16.8837787552653,-1.04708152281388,-86.6453395046882,-2.93717222131401,9.51283769173117,1.75656888005457,-12.0617454069518,5.89644357637327,-67.2537998880416,1080.37702631199,0.211656498130716,-0.119300026136752,-56.0150741570772,37.4918385855741,44.7651659200799,0.283332436375232,4.38506015424101,2.70921314580942,2.6868166520765,-55.0153196473498,-25.2786403542284,-21.0434956976072,-0.210483384294669,-3.39516426782155,-2.52363953091972,-2.53221750187731,6.19879263071815,7.6288652652845,0.189455000240489,39.3580074695248,1.0048167686021,-51.7042833074709,-6.1663639424696,8.64378421280483,-0.81643657703593,24.0622011046915,-3.01751401055522,-115.735492238595,-7.48443651199341,10.212363243103,-1.59987306594849,-212.729995727539,-52.2200012207031,-42.4900016784668,0,0,0
64.19,-6.60058380333937,1.36424834961395,5.79073961804804,-0.184310990016487,1.37216756094955,1.80383244843657,1.89607444722712,-6.90712991229406,-46.5768063296728,-38.8765489356303,-0.452847723246769,-4.63763620164673,-3.81830638189773,-3.61672544144905,-0.320507479917284,11.8890557506374,2.44934484583193,8.65999053393027,25.0604035016144,-7.86947156883183,1.70759776805043,12.2536543364279,-0.987591514743354,17.4473383062861,3.66377814953182,-86.3495485801192,-2.9818701393373,9.61733428707909,1.71126696292648,-16.4664301344473,5.74638422287022,-75.4805858998687,1079.62042426283,0.217225165437285,-0.1173776896255,-55.3205199227738,36.4061270749634,44.131754284378,0.31333172067763,4.49807070607062,2.96196810101309,2.95136658877265,-55.6878248176674,-18.9453260551209,-23.0001345022232,-0.191718715219061,-3.43233188710674,-2.86064613785795,-2.90712225052707,6.02729616624176,8.05256241281445,0.23737313002066,38.7882207411445,1.89530313098867,-53.0244449076524,-5.19034729905241,9.0977454423012,-0.43561354562509,24.0777690480899,-11.0754815135497,-122.881178258445,-7.48443651199341,10.212363243103,-1.59987306594849,-212.729995727539,-52.2200012207031,-42.4900016784668,0,0,0
64.195,-6.5895599774045,-0.445183730385189,5.20178324552981,-0.190053091800598,1.2971747143064,1.71071664200034,1.83703589282707,-7.86623042679962,-51.4622737213018,-40.0289691379674,-0.439539348482077,-4.67869267051037,-3.9380267044586,-3.71020280039228,-0.128844100245344,12.1462881812497,2.54769842224254,8.23656266460953,26.542401044237,-5.50948388541188,2.06822754822263,12.5134086536149,-1.00272283419114,18.0108709853086,8.37441319572493,-86.0537717596379,-3.02656592604654,9.7218258997551,1.6659672059127,-20.8709048350151,5.59633202459098,-83.7069796369478,1078.86385829044,0.222793567215182,-0.115455444776297,-54.6259988066392,35.3204673339269,43.4983728514052,0.343329574535421,4.61107586926054,3.21471100419715,3.2153655824037,-56.3602979211735,-12.6123137450607,-24.9566800091659,-0.172954940892121,-3.46949773414229,-3.1976366754367,-3.28071385592822,5.85580787916688,8.47623935735242,0.285288974938645,38.2184611816909,2.78574703264845,-54.344543559064,-4.21437719467028,9.55168502573475,-0.0548086728558391,24.0933362491678,-19.1330647915059,-130.026523553232,-7.48443651199341,10.212363243103,-1.59987306594849,-212.729995727539,-52.2200012207031,-42.4900016784668,0,0,0
64.2,-6.57853562579962,-2.25470209296885,4.61279878868691,-0.195795467396247,1.22217829163699,1.61759639534635,1.78045523440132,-8.82537667591556,-56.347974075946,-41.1814442933446,-0.426230339108889,-4.71975109714756,-4.05775273587087,-3.80117120217085,0.0628284188753421,12.4035328779643,2.64605668863344,7.81311460417395,28.0244692557615,-3.14938366621952,2.4288745249892,12.77317535716,-1.01785487517435,18.5744305363295,13.0852728680706,-85.7579808350689,-3.07126384406982,9.82632249510302,1.62066528878461,-25.2755895625106,5.44627267108793,-91.9337656487748,1078.10725624128,0.228362234521752,-0.113533108265044,-53.9314445723358,34.2347558233162,42.8649612157033,0.373328858837818,4.72408642109015,3.46746595940082,3.47862403222258,-57.0328030914911,-6.2789994459532,-26.9133188137819,-0.154190271816513,-3.50666535342747,-3.53464328237493,-3.65258640321677,5.68431141469048,8.89993650488237,0.333207104718817,37.6486744533107,3.67623339503502,-55.6647051592455,-3.23836055125309,10.0056462552311,0.326014358555001,24.1089041925662,-27.1910322945005,-137.172209573083,-7.48443651199341,10.212363243103,-1.59987306594849,-212.729995727539,-52.2200012207031,-42.4900016784668,0,0,0
64.205,-6.63652821038947,-4.46622782202116,3.21873088895883,-0.19629255850223,1.10421261930406,1.62036504389125,1.82159075882566,-9.51223313695951,-60.2989195078565,-43.9030793740205,-0.412724150427533,-4.75425643933271,-4.15057987666199,-3.8630946790797,0.337501009234478,12.678418403391,2.5169489579654,9.13790348354105,25.6695727324775,-0.558179720990292,2.6389456022607,13.0938314326084,-1.27885426653882,18.6403046206119,14.1315283298976,-87.6727342218335,-3.2048554004529,9.71986274526261,1.67352024624421,-29.0073860214608,6.04488793560936,-103.693724319986,1078.90826058435,0.232541614321832,-0.110763399769688,-53.4706890416698,36.6875214696309,41.8842318793838,0.408905924454246,4.76908712644299,3.67696401177739,3.69764980348262,-57.1033223939124,-3.26326106214172,-24.6871906700837,-0.135485107971825,-3.47140423898794,-3.53850159432974,-3.68915356538866,6.42066823939044,9.37325856587776,0.576147751930141,38.0696871746854,0.46096723289707,-56.4265229005898,-2.13724378059244,10.394703158904,0.911332441842865,17.1113374101423,-22.5389671980099,-128.351302068245,-7.48443651199341,10.212363243103,-1.59987306594849,-212.729995727539,-52.2200012207031,-42.4900016784668,0,0,0
64.21,-6.70591741678639,-6.74404683919537,1.69175546645198,-0.195923272929666,0.979155428269904,1.63897133430571,1.87968079329092,-10.154083296131,-64.0952849780093,-46.8837596348853,-0.399186038051219,-4.78767777657552,-4.23895975613068,-3.91887041859354,0.62586945551798,12.9562045213705,2.35027728717768,10.7513819348271,22.6810448318161,2.07107160144954,2.82413634758037,13.4245291921078,-1.5804506232023,18.6239738670564,14.5724586758968,-89.952507418185,-3.35312296837462,9.5785648410241,1.74258505487175,-32.6278649511711,6.76713172125096,-116.036689191014,1079.96649341474,0.236491329044971,-0.107853864633322,-53.0485715376234,39.7246132402275,40.8461835482693,0.445402564463296,4.80285263795978,3.87930742003467,3.90832143780364,-57.074409551774,-0.795623746229636,-21.7703095603756,-0.116790664396461,-3.42418189918306,-3.48733429568997,-3.66814500146187,7.30693823484888,9.85475450370891,0.851288287833663,38.6543281519733,-3.43228441474054,-57.0960837963664,-1.01551698037041,10.7730213957713,1.53039864762579,8.95575908451216,-15.7878336781551,-116.893645373688,-7.48443651199341,10.212363243103,-1.59987306594849,-212.729995727539,-52.2200012207031,-42.4900016784668,0,0,0
64.215,-6.77530993200055,-9.02197447393751,0.164707230277563,-0.195553969747757,0.854092273896326,1.65757851195924,1.93811486763615,-10.795964061862,-67.8918314774631,-49.864582029185,-0.385647280111394,-4.82110070751139,-4.32734384998493,-3.97347343901175,0.914251652621486,13.2340038855528,2.1835976686683,12.3649373246689,19.692374423506,4.70044829947101,3.00933592370188,13.7552427208962,-1.88206136145735,18.6076423347706,15.0134100476147,-92.2323893252893,-3.50139760642021,9.43726019900941,1.81165315684766,-36.2485165230506,7.48940994701394,-128.380242635066,1081.02477670687,0.240441232109855,-0.104944190756069,-52.6264339049469,42.761849834236,39.8080857179258,0.481900944810909,4.83661975958156,4.08166047701677,4.11758836876146,-57.0454953309297,1.67213123871663,-18.8532893594888,-0.0980953293784583,-3.3769573075857,-3.43616455714277,-3.64423163340571,8.19325049200182,10.3362734016248,1.12644194378563,39.2389970078066,-7.32572171168661,-57.7656766200861,0.106263309279895,11.1513576727053,2.14949437351771,0.799791860959873,-9.03637823118573,-105.435442321937,-7.48443651199341,10.212363243103,-1.59987306594849,-212.729995727539,-52.2200012207031,-42.4900016784668,0,0,0
64.22,-6.85574721113696,-11.5161563743154,-1.45041560831127,-0.194648439392824,0.728682696445382,1.66880938167114,1.98869330837809,-11.4436253714821,-71.6976561533617,-52.9364094943127,-0.371999276649811,-4.85326675945312,-4.4107630408919,-4.02253393829818,1.15430611511238,13.4946901535906,2.02469808724538,14.0029034972818,16.6610918355744,7.43940648181433,3.21364675401952,14.0730508621651,-2.17162342411586,18.6142433284376,15.2427709085244,-94.6140376410906,-3.62978100231675,9.30260158675434,1.86455578869865,-39.8740553516898,8.29631610607628,-140.794893402167,1080.69491378349,0.244338537939325,-0.102096167992433,-52.2062285676567,45.4729207350781,38.8741800475383,0.516803155722235,4.86267944027974,4.28050137290855,4.32173208631083,-57.0152848364767,3.97546512704744,-15.8532220088883,-0.0791157463436458,-3.32208962354844,-3.3924170376255,-3.62453693159586,9.05363882036469,10.7887685480172,1.36980401393348,39.6546706867524,-11.0583380737839,-58.4703260037321,1.0790280033222,11.5813639688108,2.70531778006424,-6.81498821047264,-1.60917093154179,-93.939267749984,-7.37152033903214,10.1876017932452,-1.5726696471823,-208.135072726147,-51.8181773724828,-40.7992012903866,1.93723735263856,0.000985310297020146,0.00609252492092215
64.225,-7.06599090051083,-16.5524805966241,-4.10124962568397,-0.187442585708886,0.599126990136918,1.59338779155921,1.95128558079482,-12.1595921233576,-75.6147974630898,-57.079261777853,-0.357059524278217,-4.8706861382102,-4.4359036329123,-4.01340729802163,0.826736416715228,13.5544846223456,1.95710433995708,15.9286512832732,13.12734464828,11.4674289341799,3.64260707334912,14.2394354708748,-2.3198097162479,18.890267177763,12.986436419271,-98.1927189433914,-3.52455360041586,9.24594085445191,1.72757333057861,-43.5592152520414,10.097949526599,-154.052365759549,1064.05645291252,0.247620283364053,-0.0999707114287866,-51.8084690269008,44.3537380704298,39.1637903513998,0.532974261275038,4.79820541665646,4.43820112330749,4.48295378902443,-56.9698269291014,4.34852620121282,-11.8756657326235,-0.0567851865575232,-3.17739502633316,-3.43584158950812,-3.6885690157315,9.60998735573763,10.900558206994,1.23981603837905,38.0851862411693,-12.9038463686924,-59.5872597196071,0.301699909506734,12.6186680137351,2.51813509526586,-8.07635301029707,13.7615059803137,-81.9900027379067,-5.93195925736419,9.8719196495256,-1.22585499772058,-149.554692674353,-46.6953507798527,-19.243295066181,26.6349527079795,0.0135469683815834,0.0837657362531892
64.23,-7.27622456491381,-21.5885646737763,-6.75195724433375,-0.180237075618962,0.469577461384542,1.51796979774664,1.91168041500906,-12.8755247360593,-79.5317519932398,-61.2219165193238,-0.342120484273225,-4.88810468636559,-4.4610430261633,-4.00509968965314,0.499182337700987,13.6142762399435,1.88951381571605,17.8543072445563,9.59376595932563,15.4952593198635,4.07154693872491,14.4058121459297,-2.46798894246863,19.1662778655469,10.7302095179677,-101.771229604776,-3.41933121603365,9.18928282388189,1.59059740414168,-47.2441994342975,11.8994970405119,-167.309205965855,1047.41878540703,0.250901872306546,-0.0978453562124873,-51.4107284523637,43.2346087713482,39.4533868458819,0.549144595747088,4.73373446732383,4.59589335416846,4.64225191503844,-56.9243711892785,4.72156948684711,-7.89829911668083,-0.0344556915510968,-3.03270732853602,-3.47926407079414,-3.74897783884352,10.1663093629523,11.0123425355465,1.10983426099245,36.5157766327237,-14.749266664922,-60.7041401771513,-0.475591119265164,13.6559225972802,2.33096133582914,-9.33765766493745,29.1314499779544,-70.0413074981455,-4.49246681774667,9.55625255835912,-0.879056885291553,-90.9771058888219,-41.5727684570391,2.31158331584336,51.3314904114344,0.0261080274933217,0.16143524392289
64.235,-7.48646825428768,-26.624888896085,-9.40279126170645,-0.173031221935023,0.340021755076078,1.44254820763471,1.86901109929831,-13.5914914879348,-83.4488933029679,-65.3647688028642,-0.32718073190163,-4.90552406512268,-4.48618361818371,-3.99838786614987,0.171612639303836,13.6740707086985,1.82192006842775,19.7800550305478,6.06001877203123,19.5232817722291,4.50050725805451,14.5721967546393,-2.61617523460067,19.4423017148724,8.47387502871437,-105.349910907077,-3.31410381413276,9.13262209157945,1.45361494602164,-50.9293593346491,13.7011304610346,-180.566678323237,1030.78032453607,0.254183617731274,-0.0957198996488409,-51.0129689116079,42.1154261067,39.7429971497433,0.56531570129989,4.66926044370055,4.7535931045674,4.7995473957168,-56.8789132819033,5.09463056101249,-3.92074284041602,-0.0121251317649742,-2.88801273132074,-3.52268862267677,-3.80566182451415,10.7226578983252,11.1241321945233,0.97984628543802,34.9462921871406,-16.5947749598305,-61.8210738930263,-1.25291921308063,14.6932266422046,2.14377865103076,-10.5990224647619,44.5021268898099,-58.0920424860683,-3.05290573607872,9.24057041463954,-0.532242235829839,-32.3967258370284,-36.449941864409,23.8674895400489,76.0292057667753,0.0386696855778849,0.239108455255158
64.24,-7.74729265187428,-31.7214589355301,-12.3848709282183,-0.166597367622016,0.199136557795906,1.36074745328011,1.81607248333317,-14.3800941476408,-88.2363117791817,-69.6615377601864,-0.31241265536781,-4.90746843591012,-4.50601344929561,-3.98876193334909,-0.147284314796592,13.6987523216432,1.80246173082291,21.7707774419235,3.44259057686753,24.3376463854752,4.91026900712576,14.7295106643845,-2.77721706301518,19.7942233965881,6.90833216810939,-108.549804969234,-3.23327660560608,9.0890998840332,1.34839606285095,-53.7600021362305,15.085000038147,-190.75,1018,0.256704390048981,-0.0940872952342033,-50.6223004069849,41.0016762814394,40.0339147179975,0.578288221180348,4.57923736330998,4.87680081697054,4.92029256533313,-56.8259358944427,5.55057521707286,-0.392039151072864,0.019492456911139,-2.72895462445015,-3.54774196260186,-3.84021461237183,11.0219237165714,11.2159021328769,0.842816562875556,33.5338017608595,-16.8253611782145,-62.7496922085258,-2.0937580878158,15.3099849472547,1.96930890904015,-11.8156450837215,55.3045507278566,-48.9893607184194,-1.91421471015215,9.04685707154338,-0.353347308607681,11.7860962318538,-30.8334817746735,38.4728688274284,113.768782548527,0.0458203658537951,0.292318823556012
64.245,-8.17575700277152,-37.0186864077782,-16.4650621211904,-0.162720013517157,0.0206849978541736,1.25779413670015,1.73731453119971,-15.4095196049407,-95.9081568891669,-74.469154201447,-0.298210345595438,-4.85814070488508,-4.50825150384561,-3.96474952239463,-0.43751192687279,13.607101496777,1.94248382436844,23.9771861887015,3.86061388644228,31.7583458885278,5.25650545662016,14.8568034766986,-2.98088556271775,20.3976856179291,7.63122962075746,-110.495342026579,-3.23327660560608,9.0890998840332,1.34839606285095,-53.7600021362305,15.085000038147,-190.75,1018,0.256704390048981,-0.0940872952342033,-50.2550458950725,39.9056977148936,40.3292234091788,0.580665709370979,4.40454546791635,4.88575327796232,4.9247253288444,-56.7480337266283,6.28122731151299,1.65023146154641,0.0818867559898717,-2.52227396818745,-3.51193211863474,-3.8101844863594,10.4694729111281,11.2413606953397,0.68242761935977,32.6411805584593,-11.7053613940245,-63.0545663515991,-3.1451967175304,14.5334987921386,1.83692438423347,-12.8842761006795,50.9734520767738,-49.3162360883124,-1.7721458637632,9.25721647544426,-0.730774864032538,8.27536035654624,-23.580337508681,30.0524494628038,194.727011180305,0.0350446185609446,0.264488729490613
64.25,-8.60420092336403,-42.3156612943182,-20.5450587599381,-0.158842844294717,-0.157758053048843,1.15484572920453,1.65319431605843,-16.4388959765332,-103.579636185443,-79.2765414029383,-0.284008713026469,-4.80881532593572,-4.5104894516793,-3.94473385113412,-0.727725700134755,13.5154550420627,2.08249924129307,26.1834897281199,4.27861726356856,39.1786915531529,5.60272539665197,14.9840902193573,-3.18454435097174,21.0011190646077,8.35409260375777,-112.44078631561,-3.23327660560608,9.0890998840332,1.34839606285095,-53.7600021362305,15.085000038147,-190.75,1018,0.256704390048981,-0.0940872952342033,-49.8878088948191,38.8097714074822,40.6245180192666,0.583043084196734,4.22986190229077,4.89470531207726,4.92715230036377,-56.6701352733936,7.01184456654369,3.69240469334303,0.144278079944674,-2.31560316700088,-3.47612398217496,-3.77654901688652,9.91704844798912,11.2668180438715,0.522046323609743,31.7486019185806,-6.58560574486135,-63.3594259574731,-4.19658521189169,13.7570496619202,1.70454617186837,-13.9528561625061,46.6425599438415,-49.64309587193,-1.63008379158971,9.46756584885668,-1.10818442272101,4.76479188233897,-16.3275390916427,21.6324316058735,275.681379511271,0.0242693850840054,0.236659962437137
64.255,-9.03266527426127,-47.6128887665663,-24.6252499529101,-0.154965490189858,-0.336209612990576,1.05189241262457,1.56310077433467,-17.4683214338331,-111.251481295428,-84.0841578441989,-0.269806403254096,-4.75948759491068,-4.5127275062293,-3.9294642068602,-1.01795331221095,13.4238042171966,2.2225213348386,28.3898984748979,4.69664057314331,46.5993910562054,5.94896184614637,15.1113830316715,-3.38821285067432,21.6045812859487,9.07699005640584,-114.386323372954,-3.23327660560608,9.0890998840332,1.34839606285095,-53.7600021362305,15.085000038147,-190.75,1018,0.256704390048981,-0.0940872952342033,-49.5205543829067,37.7137928409364,40.9198267104479,0.585420572387365,4.05517000689715,4.90365777306904,4.92767643354039,-56.5922331055792,7.74249666098382,5.7346753059623,0.206672379023406,-2.10892251073818,-3.44031413820784,-3.73948750963156,9.36459764254587,11.2922766063343,0.361657380093957,30.8559807161804,-1.46560596067132,-63.6643001005465,-5.24802384160629,12.9805635068041,1.57216164706169,-15.0214871794641,42.3114612927587,-49.969971241823,-1.48801494520076,9.67792525275756,-1.48561197814587,1.25405600703142,-9.07439482565019,13.212012241249,356.63960814305,0.0134936377911549,0.208829868371738
64.26,-9.52548738006423,-53.2392784932991,-29.1407233057791,-0.152528124107486,-0.539493882521821,0.941794909905515,1.459414328851,-18.5827373967909,-119.158206989517,-89.4362353755089,-0.255482620463185,-4.68441152960622,-4.51218968141738,-3.9168451002039,-1.16198717708843,13.3615893924086,2.24053037957315,30.1594292550814,5.74114405540517,54.9177270423637,6.29172111414637,15.3692702915092,-3.53397348102132,21.5939856374397,12.8738211823819,-117.20749484615,-3.37678638617608,9.28685409449447,1.45840756312554,-52.6668974223765,15.4326797033026,-195.342152307392,1010.6093253003,0.257315616628543,-0.0934654322634382,-49.1676142544927,36.7227344813903,40.9296625415086,0.588281372702572,3.87232821706794,4.8784516266347,4.89228897823129,-56.4650477932845,10.474884172384,7.71174289880518,0.268898885727676,-1.89559997522379,-3.38045283181668,-3.67519921966884,8.65894273347555,11.2368879492073,0.296887076051839,29.6164708534702,2.83753857014097,-64.7497279281469,-6.07139006349089,11.9774868091157,1.52211889882625,-14.974660320197,36.7169675049113,-50.5801623699564,-1.45363371444103,9.7727906462375,-1.74189306461604,-1.55158684532025,-3.9359941106369,6.63238923445177,424.046277239332,0.00978854510720198,0.185813600805119
64.265,-10.1658712569752,-59.6208707479245,-34.6544127954943,-0.153390300916691,-0.799717540575496,0.815308266528243,1.33255055123961,-19.8920954094375,-127.604434057583,-96.0368585028404,-0.240878217698415,-4.55031792285696,-4.50529047275536,-3.90387715696524,-0.971021092941183,13.3668213399194,1.97893300402898,30.9280733955691,8.2214747272313,65.2944229389489,6.6265657548429,15.9264727014182,-3.54705334979853,20.1761924539349,23.7155790799344,-122.035742703416,-3.84919057988414,9.93781961039366,1.82054242166558,-49.0686252423504,16.577168470787,-210.45855761121,986.280769374696,0.25932764673788,-0.0914183893780377,-48.8474220555951,35.9719592742278,40.285300613673,0.592250196533571,3.67078115325516,4.77496249878961,4.77706023820279,-56.2249035899641,17.7949454359624,9.53969935977829,0.330750640876387,-1.66702320024771,-3.26546498128844,-3.5529193063973,7.60208933627713,10.9962183637067,0.451229527622888,27.5818245992378,5.26942528353299,-67.6240694619037,-6.37222704536667,10.4549900834487,1.66076550786464,-12.3716049536712,28.2263563900273,-51.8397052892431,-1.66602768489865,9.60300093270878,-1.72059101411368,-2.74185495394193,-3.64300501759521,4.27016494077234,460.408312439971,0.0222862231338472,0.173825248889832
64.27,-10.8062245987023,-66.0021587114829,-40.1678393780243,-0.154252436615042,-1.05992879048221,0.688827654366085,1.19872311097098,-21.2013909884578,-136.050258387377,-102.637166895138,-0.226274511309897,-4.4162307100428,-4.49839159306571,-3.89738945703562,-0.780064114558013,13.3720530379573,1.71734810213423,31.696680885087,10.7016871303815,75.6706240474405,6.96139442926819,16.4836485424541,-3.56013259489327,18.75846687453,34.5568200140167,-126.863760337152,-4.32157224812045,10.5887540865486,2.18266001266516,-45.4705246373853,17.7216026660433,-225.57424212515,961.953373498485,0.26133958090834,-0.0893714441010143,-48.5272451243019,35.2212198659976,39.6409694107052,0.596218831120635,3.46924369973532,4.67147830557774,4.66051190251614,-55.9847708373497,25.1146576598086,11.36756865899,0.392599446771085,-1.43845732441216,-3.1504826136827,-3.42814494416418,6.54528633262234,10.7555602539635,0.605564619740782,25.5472753622787,7.70119603818414,-70.4982739395127,-6.67304968254563,8.93256595442129,1.79940550586885,-9.76867370765678,19.7361501297644,-53.0991881502179,-1.87841152785435,9.4332193151992,-1.699289979349,-3.93206630745639,-3.35002989504241,1.90805328414678,496.76861380334,0.0347833052384046,0.161837468610627
64.275,-11.4466084756133,-72.3837509661083,-45.6815288677395,-0.155114613424247,-1.32015244853589,0.562341010988812,1.05790999277104,-22.5107490011044,-144.496485455443,-109.23779002247,-0.211670108545127,-4.28213710329354,-4.49149238440369,-3.89770802078501,-0.589098030410769,13.3772849854682,1.45575072659007,32.4653250255748,13.1820178022076,86.0473199440256,7.29623906996472,17.0408509523631,-3.57321246367048,17.3406736910253,45.3985779115692,-131.692008194418,-4.79397644182851,11.2397196024478,2.5447948712052,-41.8722524573592,18.8660914335277,-240.690647428968,937.624817572877,0.263351611017677,-0.0873244012156138,-48.2070529254043,34.4704446588352,38.9966074828696,0.600187654951634,3.26769663592254,4.56798917773265,4.54290037265304,-55.7446266340294,32.4347189233871,13.1955251199631,0.454451201919796,-1.20988054943609,-3.03549476315446,-3.30127765682696,5.48843293542392,10.5148906684629,0.759907071311832,23.5126291080463,10.1330827515762,-73.3726154732695,-6.97388666442141,7.41006922875426,1.93805211490725,-7.16561834113092,11.2455390148804,-54.3587310695046,-2.09080549831197,9.26342960167048,-1.67798792884665,-5.12233441607807,-3.05704080200072,-0.454171009532653,533.130649003979,0.0472809832650499,0.149849116695339
64.28,-12.2011115269036,-78.9563060557413,-51.5918083155666,-0.154615991320071,-1.57618796862456,0.427891013764563,0.902324675983295,-23.9683652953762,-153.227427271141,-116.656308062556,-0.19188785363732,-4.12760064941611,-4.46571466871619,-3.88612224556992,-0.449600530623493,13.2638515255425,1.14830225514979,34.6784329611986,16.0682814652896,97.6120330276964,7.49272470152431,17.562296948915,-3.33760318374088,15.5700135931324,52.8763337044484,-137.282042820067,-5.70977170146386,12.6297631734567,3.08709193411015,-38.4496212948476,22.3719190628995,-259.608244642747,886.368007408705,0.266004285248332,-0.0838489184095033,-47.8780908458606,34.2620090150154,38.2798467113359,0.60738315187537,3.15894593764367,4.4343745308585,4.39439618884642,-55.4075344980103,37.9543785827734,15.9976297539315,0.505092797378222,-0.967348861118175,-2.87038594837455,-3.12265302703259,4.66351613145446,10.2132523214777,0.754151127574882,22.70928680706,10.6141923550295,-77.0618538511146,-7.21711135584311,6.19201812129253,1.76002828323279,-6.42579444427451,9.94116296524959,-52.1195441681012,-2.20102310180664,9.17532062530518,-1.66693365573883,-5.74000024795532,-2.90499997138977,-1.6800000667572,552,0.0537664033472538,0.143628001213074
64.285,-13.0788018777403,-85.7355246156834,-57.930517461409,-0.15264928107192,-1.82773067844826,0.284836770910471,0.731681915900122,-25.5860680780718,-162.266386685997,-124.957911833565,-0.16651773719823,-3.95099500028197,-4.41956814160184,-3.86113635800789,-0.365613846269378,13.0223898080244,0.791358846644795,38.4500572122862,19.39275438764,110.459533161341,7.53996721147349,18.0452203839511,-2.8336830776162,13.4185028519622,56.7257234040121,-143.69445209232,-7.10399090695034,14.8172667481659,3.82380291128613,-35.2161335267105,28.4255219362789,-282.628467664747,806.055740495082,0.269348353476464,-0.0788320808115717,-47.539635152801,34.6386321571012,37.4849105455975,0.618060317986771,3.15029378173269,4.26824703324683,4.21291959573325,-54.9658208866051,41.5323004349867,19.8509295377157,0.543645819649307,-0.709738479938694,-2.65118994458138,-2.88878455399323,4.08873226040598,9.84581057742847,0.575679423322398,23.2342035842733,8.99083861809229,-81.6305739490815,-7.39820764398167,5.30228418391611,1.24036067379169,-7.69596343604972,16.3892147347207,-46.105682819288,-2.20102310180664,9.17532062530518,-1.66693365573883,-5.74000024795532,-2.90499997138977,-1.6800000667572,552,0.0537664033472538,0.143628001213074
64.29,-13.9564503779975,-92.5144199246928,-64.2689243609637,-0.150682664601675,-2.07926139405539,0.141789349258116,0.555131611978722,-27.2036937244532,-171.304915099545,-133.259119762319,-0.141148830472876,-3.77439777216868,-4.37342381487501,-3.84293422851739,-0.281631166620793,12.7809396040347,0.434432458138297,42.2215016224311,22.7170687903966,123.306420692462,7.58720746877581,18.5281207919305,-2.32978699972469,11.2670947004706,60.5749295545723,-150.106555604069,-8.49814363240605,17.0046660169637,4.56047876014926,-31.9827999397562,34.4788361579859,-305.647593022097,725.74730308112,0.272692262250646,-0.0738154824296232,-47.201195598197,35.0152373408071,36.6900122845018,0.62873697498287,3.14164203837922,4.10212745703025,4.03130654509595,-54.5241283372641,45.1100516824959,23.7040455860534,0.582197003611109,-0.452140382298273,-2.43200439262894,-2.65426729961523,3.51397579656096,9.47838635396591,0.397216229069164,23.7590953320769,7.36756228692169,-86.1990761984838,-7.57929529697394,4.41259267138889,0.720717843466052,-8.96607186283391,22.8369590441608,-40.0921082271669,-2.20102310180664,9.17532062530518,-1.66693365573883,-5.74000024795532,-2.90499997138977,-1.6800000667572,552,0.0537664033472538,0.143628001213074
64.295,-14.8341407288341,-99.2936384846349,-70.6076335068061,-0.148715954353524,-2.33080410387909,-0.00126489359597619,0.373374250724947,-28.8213965071488,-180.3438745144,-141.560723533328,-0.115778714033786,-3.59779212303453,-4.32727728776065,-3.83114000611859,-0.197644482266679,12.5394778865166,0.0774890496332998,45.9931258735187,26.041541712747,136.153920826106,7.63444997872498,19.0110442269667,-1.8258668936,9.11558395930031,64.4243192541359,-156.518964876322,-9.89236283789253,19.192169591673,5.29718973732525,-28.749312171619,40.5324390313654,-328.667816044097,645.435036167497,0.276036330478778,-0.0687986448316915,-46.8627399051374,35.3918604828928,35.8950761187634,0.639414141094271,3.13298988246824,3.93599995941858,3.84985500697491,-54.0824147258589,48.6879735347091,27.5573453698377,0.620750025882193,-0.194530001118791,-2.21280838883577,-2.4195836153069,2.93919192551248,9.11094460991666,0.21874452481668,24.2840121092902,5.7442085499845,-90.7677962964508,-7.7603915851125,3.52285873401248,0.201050234024954,-10.2362408546091,29.2850108136319,-34.0782468783537,-2.20102310180664,9.17532062530518,-1.66693365573883,-5.74000024795532,-2.90499997138977,-1.6800000667572,552,0.0537664033472538,0.143628001213074
64.3,-15.9842058152022,-108.872593513072,-77.6743093495982,-0.145601099094205,-2.50536920078033,-0.216199308002053,0.115411512202179,-30.7347762182483,-187.92686337246,-150.061221681682,-0.0974154989521867,-3.4220586452752,-4.25563012918384,-3.79970333120284,-0.256784863851171,12.3194085205611,0.104062873992905,50.5795351227569,28.8136431702581,149.097630648954,7.19524731341992,19.5240822445127,-0.925800051819247,7.83098448454416,57.3621539311249,-160.766037265669,-10.7910881655978,21.5774990407056,5.65233595364098,-28.8270882609813,46.2732400074874,-339.19134230432,588.9724371075,0.277607189982567,-0.0656737726013478,-46.4857769499172,36.2630363021753,35.5933581734613,0.652905563286975,3.34507131533397,3.74398868292306,3.64299280381109,-53.5386847307329,51.2355406472035,31.8001592354066,0.650169815156902,0.157066876084954,-1.95450104201145,-2.14612914164136,2.65280095248671,9.15662693859422,0.0263513096692389,25.7103492679735,4.99773576490705,-94.8237227863389,-7.84429976187831,3.75244488038397,-0.0984415984997291,-9.78861518528725,32.3459696386866,-28.475229511795,-2.27002977953956,9.13499743193842,-1.63035181070942,-5.76429998665959,-2.14563241269216,1.80701574788461,584.804678535737,0.0569319144727205,0.138710800873676
64.305,-17.2680036897748,-119.82602677559,-85.0986921006137,-0.141922641342183,-2.64217470876296,-0.466419744489288,-0.181147447344648,-32.7933770849124,-194.795963848044,-158.659919175,-0.0824891815714455,-3.24674063990162,-4.1714650216346,-3.76088501363863,-0.386160195432521,12.1098204833993,0.318825924417956,55.5660756807442,31.3148995808309,162.089469501827,6.51732057593365,20.0519335973646,0.168715253358979,6.97167672663348,44.9453165519469,-163.950906539413,-11.4467444349439,24.0600688465696,5.82027813256676,-30.5296676048507,51.8609608943437,-343.583636390795,544.208572380353,0.278308068752448,-0.063477043110571,-46.0898921441391,37.3769451543343,35.5336350858309,0.667778866425901,3.66547916593913,3.53926289570024,3.42417450521167,-52.9448578613661,53.2777060536155,36.2344046136586,0.675110127065624,0.554806799843483,-1.67698386377606,-1.85428220995658,2.50790058111559,9.40502757523041,-0.17288670096605,27.5791040574819,4.68148495437486,-98.6283158706201,-7.88052485472109,4.5312843765037,-0.289917089240115,-8.49805632210539,33.7451398913441,-23.0734101116947,-2.37290211714368,9.07488526167345,-1.57581708978556,-5.80052504495542,-1.01359826135535,7.00531654861451,633.708553873487,0.0616509292099459,0.131380439378236
64.31,-18.5517403494954,-130.778937749663,-92.5227208375748,-0.13824435898868,-2.77897369349993,-0.716628249809421,-0.479876881698284,-34.8518797920845,-201.664736786888,-167.258206659855,-0.0675635759166903,-3.07143099415064,-4.08730392729858,-3.72633240893935,-0.515529358058522,11.9002424399452,0.533578734377128,60.5523784673908,33.8160367249336,175.080688869727,5.8394261637734,20.5797597808787,1.26317836917495,6.1124099427719,32.5290712401626,-167.13562395023,-12.1023694408784,26.5425202769899,5.98821230356869,-32.2321657652687,57.4484153440033,-347.975721041161,499.446842111757,0.279008914102589,-0.0612804183656216,-45.6940262151875,38.4908008923959,35.4739148459541,0.682651460366699,3.98587173865708,3.33454687034024,3.20638387933586,-52.3510593072228,55.3197740842214,40.6684385554535,0.70004924975482,0.952527758318599,-1.39947991828807,-1.56370988602618,2.36300711897447,9.65341636747233,-0.372115211410102,29.4477697398574,4.3652492235113,-102.432727541918,-7.91674822025637,5.31008673551222,-0.481383449926584,-7.20755899615714,35.144243427892,-17.6718482845202,-2.47576954952476,9.01477595771452,-1.52128496922031,-5.83674837594541,0.11838191162216,12.2033694807195,682.610097346115,0.0663697189321639,0.12405042741367
64.315,-19.835538224068,-141.732371012182,-99.9471035885903,-0.134565901236658,-2.91577920148257,-0.966848686296656,-0.779592948992796,-36.9104806587487,-208.533837262471,-175.856904153173,-0.0526372585359491,-2.89611298877705,-4.00313881974934,-3.69503373090452,-0.644904689639872,11.6906544027834,0.74834178480218,65.5389190253782,36.3172931355064,188.0725277226,5.16149942628713,21.1076111337306,2.35769367435318,5.25310218486121,20.1122338609846,-170.320493223974,-12.7580257102245,29.0250900828539,6.15615448249447,-33.9347451091382,63.0361362308596,-352.368015127637,454.68297738461,0.279709792872469,-0.0590836888748449,-45.2981414094095,39.6047097445549,35.4141917583237,0.697524763505625,4.30627958926225,3.12982108311742,2.98982875363647,-51.757232437856,57.3619394906335,45.1026839337055,0.724989561663541,1.35026768207713,-1.12196274005269,-1.27478401791067,2.21810674760336,9.90181700410851,-0.571353222045391,31.3165245293658,4.04899841297911,-106.237320626199,-7.95297331309914,6.08892623163194,-0.672858940666969,-5.91700013297528,36.5434136805496,-12.2700288844198,-2.57864188712888,8.95466378744955,-1.46675024829645,-5.87297343424125,1.25041606295897,17.4016702814494,731.513972683866,0.0710887336693893,0.11672006591823
64.32,-21.303638172061,-145.622553802922,-107.631146874609,-0.133540296442513,-2.93629735819143,-1.32364519088338,-1.18560983104835,-39.0039536055161,-212.073150025384,-183.147329684999,-0.039841768161442,-2.72206462760277,-3.86242724581699,-3.60934298980472,-0.766376484574988,11.4716009753612,0.675168443910685,65.2733031786705,35.0683506190213,200.678327148587,4.00061712219915,21.0767133723963,2.18449406170008,4.65099145398225,8.83058632951674,-171.062318038985,-13.4480219572351,27.8506050869045,7.45236698817076,-41.2410172981708,70.0625348981099,-348.94252876013,410.525251422402,0.27983789764781,-0.0559973716711436,-44.8717619779848,40.7035345918908,36.0369462008299,0.710932439702002,4.7845612158032,3.09010982513428,2.93972361329862,-51.1893735613247,57.3166859206073,48.0803781981491,0.748439444356853,1.89601842017938,-0.868032968793596,-1.01144561334785,2.25151690504786,10.2165732552074,-0.739185500600515,31.8283743785112,3.84082384803391,-107.172770312499,-7.59294913321443,7.31859640183912,-0.63207858693936,-4.1932988173723,34.855387468846,-9.16406404099141,-2.5985963344574,8.94300365447998,-1.45617198944092,-5.88000011444092,1.47000002861023,18.4099998474121,741,0.0720040947198868,0.115298174321651
64.325,-22.8161804636985,-147.813073058409,-115.378136566571,-0.133153086029711,-2.92883016160058,-1.70611218245663,-1.61577098523229,-41.1059429750964,-214.811301035804,-190.123328197134,-0.0275583412532419,-2.54831153142534,-3.70809845974357,-3.51102047466172,-0.885953342795795,11.250256578229,0.532693889434819,63.7436491215773,32.9167838241366,213.191965266573,2.72343450886194,20.9113411216654,1.70618662881682,4.11074402519371,-2.1785255187616,-171.216225736722,-14.1463235361623,25.7959169661387,9.02019399433377,-49.8963475695742,77.4355920052413,-343.635355332743,366.510790843251,0.279828162009909,-0.0526967771714959,-44.4380182611338,41.7987942196342,36.82398753602,0.723988180577661,5.30086619927094,3.09010982513428,2.9309147339615,-50.6277307373272,56.7690561067356,50.7077043482517,0.77153201674042,2.47742281405211,-0.619764893198491,-0.756040118666917,2.32784255923136,10.5473177566692,-0.899469374385862,32.0136918104794,3.65864738948893,-107.417766239508,-7.13753939658623,8.65683953852313,-0.535399424973596,-2.36525228507614,32.4242740392975,-6.61045264793854,-2.5985963344574,8.94300365447998,-1.45617198944092,-5.88000011444092,1.47000002861023,18.4099998474121,741,0.0720040947198868,0.115298174321651
64.33,-24.328722755336,-150.003592313896,-123.125126258534,-0.132765875616909,-2.92136296500973,-2.08857917402988,-2.04319731986626,-43.2079323446768,-217.549452046224,-197.09932670927,-0.0152749143450418,-2.37455843524792,-3.55376967367015,-3.4124872836549,-1.0055302010166,11.0289121810969,0.390219334958954,62.2139950644842,30.765217029252,225.705603384559,1.44625189552473,20.7459688709345,1.22787919593357,3.57049659640516,-13.1876373670399,-171.370133434458,-14.8446251150894,23.7412288453728,10.5880210004968,-58.5516778409775,84.8086491123727,-338.328181905356,322.4963302641,0.279818426372009,-0.0493961826718482,-44.0042745442828,42.8940538473775,37.6110288712102,0.737043921453321,5.81717118273868,3.09010982513428,2.9237979396039,-50.0660879133297,56.221426292864,53.3350304983542,0.794624589123987,3.05882720792484,-0.371496817603386,-0.503097879592459,2.40416821341486,10.878062258131,-1.05975324817121,32.1990092424476,3.47647093094395,-107.662762166517,-6.68212965995803,9.99508267520715,-0.438720263007832,-0.537205752779985,29.993160609749,-4.05684125488566,-2.5985963344574,8.94300365447998,-1.45617198944092,-5.88000011444092,1.47000002861023,18.4099998474121,741,0.0720040947198868,0.115298174321651
64.335,-25.8411929249874,-152.194007119675,-130.871746553696,-0.132378683667316,-2.91389612447442,-2.4710279285732,-2.46674815772258,-45.3098214858874,-220.287472494418,-204.074992587488,-0.00299207314287388,-2.20081362407412,-3.39944824639829,-3.31256850057975,-1.12510135749899,10.8075783382465,0.247751574043764,60.6844139453109,28.6137528267188,238.218644819438,0.169130181606425,20.5806045055865,0.749594570004001,3.03027492803187,-24.1962242719725,-171.524033793471,-15.5428933971647,21.686638697529,12.1557732485534,-67.2065954035181,92.181354652791,-333.021261537926,278.483968409943,0.279808691198329,-0.0460957455532085,-43.5705515094705,43.9892612502674,38.3980326782039,0.750099039796991,6.33345154742978,3.09010982513428,2.91843779569226,-49.504471869936,55.6738225914191,55.9622313706506,0.817716060393098,3.6402038789102,-0.123240580081692,-0.252735452978155,2.48049022819086,11.208790988827,-1.2200294792008,32.3843178379942,3.29430315905063,-107.907746411477,-6.22674163846127,11.3332620009462,-0.34204571095824,1.29075361345989,27.5621631020692,-1.50335162472584,-2.5985963344574,8.94300365447998,-1.45617198944092,-5.88000011444092,1.47000002861023,18.4099998474121,741,0.0720040947198868,0.115298174321651
64.34,-27.2130182820645,-149.57050953521,-136.013723862788,-0.135293797699872,-2.8103563191599,-2.67316289694834,-2.70513411456995,-47.4090558849006,-224.888078781719,-209.311033638015,-0.00117480795052551,-2.00018298705989,-3.2173877315163,-3.18239155925095,-0.327875518994214,11.0245871974959,0.303613622547326,56.5683536204363,29.9082461496501,247.552502070707,-2.47861536869609,20.11119436576,0.302934823380284,-0.57553334984468,-30.4461596144452,-170.754597193739,-15.6298980712891,21.4306354522705,12.3511161804199,-68.2850036621094,93.0999984741211,-332.360015869141,273,0.279807478189468,-0.0456845089793205,-43.0649601446668,48.2147941672742,40.152295555841,0.762101123782852,6.79187176453851,3.37819715036714,3.20294541762627,-48.8895208459817,61.2280605312659,57.7975145797592,0.833491363718426,4.27530455754888,0.20621760762004,0.0762497488272477,3.03379095365592,11.2998672926933,-1.3231121544889,31.9559339756159,-0.941169876562375,-106.941512080204,-5.94203523340189,11.7825813252622,0.0784368734882968,0.72697419005285,26.8429655753995,-0.167904140823722,-2.52693641876996,9.18186988912966,-1.53636280972832,-8.55621137122278,0.447720512544426,22.2580930350563,832.898296534865,0.0754864922571353,0.108265382067581
64.345,-28.5647512201312,-146.262000262846,-140.784707430395,-0.138678763598941,-2.69314827934662,-2.84962315220045,-2.91216824175438,-49.507798096117,-229.753532620156,-214.299192139611,-0.000847186386852482,-1.79573667205209,-3.03138908408841,-3.04472958495391,0.59979279034573,11.3039726824725,0.38770051608399,52.0843890467369,31.6931252518023,256.43336394483,-5.32129486632263,19.59853556323,-0.13919948779636,-4.61746407460581,-36.018465104091,-169.853785789463,-15.6298980712891,21.4306354522705,12.3511161804199,-68.2850036621094,93.0999984741211,-332.360015869141,273,0.279807478189468,-0.0456845089793205,-42.5491674423773,52.8856299349521,42.0441309422592,0.773952677736524,7.24203189199911,3.70727168043188,3.53020717896869,-48.2670122560826,67.6504589357761,59.5199857546002,0.848224512125708,4.91801707405017,0.547215162260752,0.414281358650603,3.65494897365255,11.3568293818633,-1.41804896977222,31.4402278185212,-5.75331109568559,-105.80294004506,-5.6816371114819,12.1053664972256,0.544983508594933,-0.177185955502673,26.3674443136629,0.994109083279103,-2.44508119289268,9.4547204695991,-1.62796266223919,-11.6131766888312,-0.720002333548279,26.6536680793444,937.87128943386,0.079464342834707,0.100232009533123
64.35,-29.9165486154454,-142.953333224554,-145.555918501868,-0.142063890909764,-2.5759346504799,-3.02609182194186,-3.11290960255099,-51.6066403856421,-234.619218467264,-219.287588501038,-0.00051954920057855,-1.59128060804257,-2.84538156733395,-2.90262263420535,1.52750533545456,11.5833714899176,0.471791419295611,47.6002106556434,33.4780894657328,265.314649301948,-8.1641099168316,19.0858523146172,-0.581354882102621,-8.65958753842206,-41.5910363085568,-168.952931430087,-15.6298980712891,21.4306354522705,12.3511161804199,-68.2850036621094,93.0999984741211,-332.360015869141,273,0.279807478189468,-0.0456845089793205,-42.0333501445652,57.556688430958,43.9360565406552,0.78580479683034,7.69221348529956,4.03636190238208,3.85920582890003,-47.6444739819248,74.0731635917004,61.2425390653038,0.862958363081671,5.56076023823238,0.888228977335141,0.750021233033647,4.27613661350612,11.4137941872647,-1.51299031210791,30.924497070031,-10.5656817812729,-104.664313717224,-5.42122657250397,12.4281670611669,1.01155239093037,-1.08138921584269,25.8919003767434,2.15617771786422,-2.36322206375727,9.72758406092068,-1.7195668826797,-14.6702877775195,-1.88778086238602,31.049452726181,1042.84928795933,0.0834423830956785,0.0921982539281132
64.355,-31.271910004151,-138.956557058171,-149.165681676722,-0.145221732582349,-2.45794751705454,-3.16699624909964,-3.27139079616721,-53.7979436115549,-238.27413583978,-223.873635692859,-0.000284813140985005,-1.38690101620891,-2.66545759739569,-2.76144936068452,2.41623445141908,11.8842172757731,0.436299148919802,43.6265816014343,34.8719542895613,272.610144784905,-10.6890934647822,18.6445831247353,-0.981683675434202,-12.3832238163633,-45.3435842358321,-168.731814881851,-15.5586755740591,21.4254003190497,12.1057943074618,-70.814999255318,95.5250230240419,-328.668214736934,265.425771171102,0.279762070178848,-0.044931732640907,-41.4371844754036,63.1691591012564,46.2904961979123,0.793904061488661,8.08786183893386,4.40205928755701,4.22646125146059,-46.9484110724856,80.0487348728619,63.2339541927305,0.877573217896062,6.16731128147092,1.30247736169068,1.15696988537612,4.87455077598488,11.4991419879077,-1.53204952439633,30.3963468352757,-14.7653522253078,-103.748899243912,-5.2399919128124,12.4475230099742,1.40728347518002,-2.16312014251709,25.3066033003903,4.22024582958334,-2.30242414918326,9.98202707924767,-1.77560756000569,-17.1322077864534,-2.86880448030995,34.0065216225755,1133.84588131089,0.0867500868443921,0.0845323002430914
64.36,-32.6429235274453,-132.002856357913,-147.78711646617,-0.147404019166449,-2.33660783989675,-3.15516268985265,-3.27029171117066,-56.386985295073,-236.728869473931,-226.732466804634,-0.000449093831366328,-1.18279831543375,-2.51162132718481,-2.64070713295612,3.13772660171241,12.2772689695896,-0.112896368467657,41.8451195019446,34.5861226840461,273.095393789617,-11.8494036020077,18.5099763802775,-1.20243873634484,-14.7396727502032,-41.2787929155413,-171.430597017646,-15.1814841064057,21.3976752650326,10.8065795802704,-84.2137536949065,108.367855059632,-309.116585104452,225.312961322704,0.279521591189269,-0.0409450595678747,-40.4957151924293,72.8270779956855,50.6323553235898,0.785884208081942,8.24935128054612,4.92510267045951,4.75262214907633,-45.9363320939351,84.1050611371518,66.380823809906,0.891680590763616,6.61854474432329,2.03142461130532,1.87696644313496,5.37528786536756,11.7064363743726,-1.22514614703275,29.8147127542856,-16.3341024323211,-103.792106347071,-5.3988278712725,11.1633746678477,1.49881606141127,-4.0077310850857,24.2496910846483,10.1595607023223,-2.33208368990954,10.1574049652028,-1.67889182540143,-17.0379829626362,-3.04783144016902,30.7840358316282,1164.80543253617,0.0871790565763704,0.0784443800194903
64.365,-34.0138716772167,-125.049487228355,-146.408616989225,-0.149586201693397,-2.21527394853322,-3.14332969486082,-3.26246238403974,-58.9759035262888,-235.183676790437,-229.591161599838,-0.000613366688413187,-0.978705346811029,-2.35779239229102,-2.51404022742984,3.85918434936648,12.6703019216698,-0.662065698771509,40.0637423472432,34.3003047077321,273.580619656382,-13.0096584126006,18.3753760542227,-1.42318327107482,-17.0960093223735,-37.2141954151684,-174.129250468425,-14.8043106242314,21.3699515330189,9.50742680304693,-97.611869246719,121.210074715286,-289.565887744983,185.202064158355,0.279281123666359,-0.0369585765898773,-39.5542908011813,82.4845363751949,54.9740074180291,0.77786473708288,8.41083302191798,5.4481211132808,5.28021660452662,-44.9243013739666,88.1611939851599,69.5275433760793,0.905787290954609,7.06975669117991,2.76033710280202,2.59573673818889,5.87600107829166,11.9137208764971,-0.918257403627664,29.233106407135,-17.9027778372074,-103.835311390003,-5.55765625601725,9.87928755728425,1.59034428312859,-5.85225407176347,23.1928292652545,16.0985923729406,-2.36174181639108,10.33277448868,-1.58218070245723,-16.9437626317059,-3.2268498635528,27.5617036972607,1195.76350752879,0.087608005853946,0.072356750083903
64.37,-35.384885200511,-118.095786528098,-145.030051778673,-0.151768488277496,-2.09393427137543,-3.13149613561383,-3.24826997764765,-61.5649452098069,-233.638410424588,-232.449992711613,-0.000777647378794511,-0.774602646035874,-2.20395612208014,-2.38140564872649,4.5806764996598,13.0633536154863,-1.21126121615897,38.2822802477535,34.014473102217,274.065868661094,-14.169968549826,18.240769309765,-1.64393833198546,-19.4524582562134,-33.1494040948776,-176.828032604219,-14.427119156578,21.3422264790018,8.20821207585554,-111.010623686308,134.052906750877,-270.014258112501,145.089254309958,0.27904064467678,-0.0329719035168449,-38.6128215182071,92.1424552696241,59.3158665437066,0.769844883676161,8.57232246353024,5.9711644961833,5.80919011155326,-43.9122223954162,92.2175202494498,72.6744129932548,0.919894663822163,7.52099015403227,3.48928435241666,3.31388270572487,6.37673816767434,12.121015262962,-0.611354026264091,28.6514723261449,-19.4715280442207,-103.878518493162,-5.71649221447736,8.59513921515771,1.68187686935984,-7.69686501433207,22.1359170495125,22.0379072456795,-2.39140135711737,10.508152374635,-1.48546496785297,-16.8495378078887,-3.40587682341188,24.3392179063134,1226.72305875406,0.0880369755859244,0.0662688298603019
64.375,-36.5772689672913,-112.740835607199,-141.665649576645,-0.15215551896875,-2.00416677703551,-3.04894207399869,-3.15760752527544,-63.8980341332329,-229.23910049522,-233.647154646951,-0.0058915558510553,-0.588654213177025,-2.0825975150265,-2.27551229248092,5.04551273910626,13.4199761885864,-1.38028216525121,36.0317225842929,29.5552650171138,272.459684729045,-14.9418164140011,17.7069156282245,-1.65870029367409,-23.5385343144028,-22.800524047078,-181.090841522794,-14.5785546914028,23.5678982390649,7.85472971532579,-107.441553901856,139.128957525417,-235.096162082222,112.686006825939,0.24222080034248,-0.0268139400912613,-37.6491459171378,98.3527947035335,64.7556421060771,0.754810936391509,8.64679011670454,6.47746469270749,6.3226732035411,-42.9315519607551,95.766005335521,76.4361445603468,0.922270736478788,7.88120474777741,4.16050944587372,3.9742372828603,6.67683625684577,12.2523648702278,-0.563139931740605,27.6732711492878,-21.022301887569,-107.130091649445,-6.19467418049053,8.17785379792048,1.73526232240655,-8.33046273513772,20.8266303714091,28.1619666071871,-2.33231985976804,10.5458475374137,-1.42516427100561,-15.9942062440226,-3.09019664133605,21.1116911762243,1244.71025478213,0.0879568168471371,0.061852944425837
64.38,-37.5717262070171,-109.157876653747,-136.099215894453,-0.150552192249865,-1.94939426713557,-2.88797204323596,-2.98361392590692,-65.9475833840744,-221.675076273114,-233.002147936994,-0.0164936201635851,-0.422814680228919,-1.99723461992505,-2.20034784021702,5.22584186575654,13.7362457337884,-1.12782138794083,33.2608533827722,20.4685950645374,268.534572114777,-15.2830546075085,16.7303640500569,-1.44507963594994,-29.5426550934704,-5.48344780123318,-187.088112192587,-15.3160930683453,28.2921299733671,8.54974324141753,-85.0599352019639,135.594505119107,-183.137786856555,88.8270762229807,0.164841790383722,-0.0182480525439425,-36.6607533186911,100.741434711374,71.4132222342133,0.731998966678968,8.62478438911826,6.96525266471576,6.81880327530242,-41.9856055014071,98.7518048161668,80.8799504955984,0.911640580874672,8.14054313878926,4.76780560331269,4.57122148108649,6.7545164960182,12.2995278725825,-0.801729237770188,26.2552985294737,-22.5533013104117,-113.939100268262,-7.02696245733789,8.72161547212743,1.74635949943118,-7.62147642523069,19.2374050197334,34.4914675767918,-2.17484542452842,10.4308979530248,-1.40523078437551,-14.2949512767032,-2.22600397789709,17.8782510301766,1248.31683731513,0.0873121804132871,0.059290396316619
64.385,-38.5661360284118,-105.575088545182,-130.533047634428,-0.148948941981806,-1.89462436893265,-2.72700968794675,-2.80573459988161,-67.9970349070288,-214.111412723534,-232.35717198265,-0.0270951789418638,-0.256983054944983,-1.91187579515047,-2.12061713346365,5.40616239384078,14.0525001984285,-0.875372648622889,30.4901163035671,11.3823583882319,264.60964666018,-15.6242765298833,15.7538590364315,-1.23146916421939,-35.5464895803018,11.8328027209684,-193.085096896775,-16.0535962775223,33.0161364439017,9.24472362744031,-62.679383716391,132.060221244763,-131.181889142581,64.9692832764505,0.0874664700592366,-0.00968257344062271,-35.6724078493976,103.12996082259,78.0704849114565,0.709188084701011,8.60277971082284,7.45301737771336,7.31598584474435,-41.0397041472689,101.737461926057,85.3235445385205,0.901010932144273,8.39986916386601,5.37507280327704,5.16937767953768,6.83219303119296,12.3466886260814,-1.04030716723549,24.8373935223156,-24.0842277311839,-120.747784215678,-7.85921104849592,9.26535121835066,1.75745614731327,-6.91252392165162,17.6482554464934,40.8206667391788,-2.01737849808315,10.3159538497337,-1.38529824822637,-12.5957773343203,-1.36185252143236,14.644965063041,1251.92324787682,0.0866675747173941,0.0567279703964202
64.39,-39.5605932681376,-101.992129591731,-124.966613952237,-0.147345615262922,-1.83985185903271,-2.56603965718402,-2.6251197639176,-70.0465841578703,-206.547388501428,-231.712165272694,-0.0376972432543936,-0.0911435219968771,-1.82651290004902,-2.03720407908116,5.58649152049106,14.3687697436305,-0.622911871312514,27.7192471020464,2.29568843565543,260.684534045912,-15.9655147233907,14.7773074582639,-1.01784850649523,-41.5506103593694,29.1498789668133,-199.082367566568,-16.7911346544648,37.7403681782038,9.93973715353205,-40.297765016499,128.525768838452,-79.2235139169135,41.1103526734926,0.0100874601004789,-0.00111668589330391,-34.6840152509509,105.51860083043,84.7280650395927,0.686376114988469,8.58077398323657,7.94080534972163,7.81419360643768,-40.093757687921,104.723261406703,89.7673504737721,0.890380776540157,8.65920755487786,5.98236896071601,5.76939406349863,6.90987327036539,12.3938516284361,-1.27889647326508,23.4194209025016,-25.6152271540266,-127.556792834496,-8.69149932534329,9.80911289255761,1.76855332433789,-6.20353761174459,16.0590300948178,47.1501677087834,-1.85990406284352,10.2010042653449,-1.36536476159628,-10.8965223670009,-0.497659857993398,11.4115249169934,1255.52983040982,0.0860229382835441,0.0541654222872023
64.395,-39.6902349853516,-101.525039672852,-120.612370470645,-0.139880965309982,-1.82470725144794,-2.54505491256714,-2.58302019005396,-70.3137722015381,-205.561309814453,-228.800032819976,-0.0297219843933133,-0.00872667949925485,-1.81538462638855,-2.02539217934325,5.18983392114258,14.1869734557724,-0.44065186770468,27.5596139398883,-0.80398674992652,257.077707019592,-15.4086248539576,13.3914930718583,-0.866538877302564,-44.1378029482263,35.3728154303261,-194.394245360378,-14.3352721989361,32.1324035618175,9.16949738765051,-19.691207914441,120.997847727335,-48.8161533257787,33.2208597665506,0,0,-34.5551641464233,105.82999420166,89.1954512926695,0.666971797090987,8.58282887228551,8.00439548492432,7.88913776686635,-39.9704400444031,105.112503051758,92.750117864673,0.862771127222258,8.80133487088534,6.06153869628906,5.84370406345717,6.59541672581158,12.6449309369643,-1.05909513774391,21.8504856216914,-25.2887160442602,-132.203346407893,-8.98917430090738,10.568992716989,1.56489523164778,-5.43504960689371,-0.825970855823556,46.2003398927209,-1.94143642225218,10.1402343234212,-1.31125854370176,-9.74804607450942,-0.691661481180024,8.8503389089612,1254.20782241246,0.0856289370740725,0.0527206776032583
64.4,-39.6902349853516,-101.525039672852,-116.439613733856,-0.131537205724325,-1.81550263072077,-2.54505491256714,-2.5617282410424,-70.3137722015381,-205.561309814453,-225.547864510858,-0.01896126866896,0.0611883689067337,-1.81538462638855,-2.02322021632295,4.70665560202222,13.9304996560497,-0.268906019676116,27.791435496075,-3.0062915337002,253.518398004482,-14.7170615725626,11.9442480591376,-0.72456230959895,-46.2128885853121,39.9329150660475,-188.103965329702,-11.4005363684866,24.9751801425909,8.17955192784887,0.650370745363503,112.870832940719,-21.637945920487,27.7249926296365,0,0,-34.5551641464233,105.82999420166,93.3347395763346,0.648077273334234,8.58849092154555,8.00439548492432,7.90135817992268,-39.9704400444031,105.112503051758,95.5140172063958,0.832614483033337,8.92589828100117,6.06153869628906,5.84178105265573,6.2221557494295,12.9265941277311,-0.770562113055923,20.2588327420192,-24.6837183244559,-136.525970303131,-9.20671904174356,11.3613135625607,1.32903093368856,-4.65759926602367,-20.0049639920504,44.1591793614185,-2.05880395789201,10.0875833907951,-1.2520263536904,-8.68207679636718,-1.04431294706323,6.38979344637657,1252.14687223611,0.0852724882417595,0.0514434292081785
64.405,-39.6902349853516,-101.525039672852,-112.26705596506,-0.123193843991022,-1.80629844889408,-2.54505491256714,-2.54152731430619,-70.3137722015381,-205.561309814453,-222.295851273661,-0.00820106604377333,0.131100083579726,-1.81538462638855,-2.02074613207598,4.22350032211219,13.6740380856709,-0.0971683609403242,28.0232459984015,-5.20849130580195,249.959258706566,-14.0255312667198,10.4970720548573,-0.582592511710695,-48.2878752768688,44.4927972642505,-181.813985236087,-8.46594047394354,17.8182979985607,7.18965367124482,20.9909794653121,104.744205671497,5.53896555654769,22.2293875500912,0,0,-34.5551641464233,105.82999420166,97.4738304878711,0.629183650517961,8.59415270082422,8.00439548492432,7.91436858371457,-39.9704400444031,105.112503051758,98.2777847581442,0.802459276792357,9.05045575160669,6.06153869628906,5.84320903276256,5.84891257111038,13.2082438880578,-0.482042846379795,18.6672557565336,-24.0787494525306,-140.848388084316,-9.42425340947556,12.1535966281952,1.09317788235808,-3.88018599602626,-39.1830426235501,42.1181161580071,-2.17616589713971,10.0349349687035,-1.19279698802531,-7.61615834643771,-1.39694759759903,3.92936530905719,1250.08602033128,0.0849160564058624,0.0501662417156542
64.41,-39.6902349853516,-101.525039672852,-108.09429922827,-0.114850084405365,-1.79709382816691,-2.54505491256714,-2.52360153318361,-70.3137722015381,-205.561309814453,-219.043682964543,0.00255964968058004,0.201015131985714,-1.81538462638855,-2.01913487770598,3.74032200299182,13.4175642859483,0.0745774870882401,28.2550675545882,-7.41079608957564,246.399949691456,-13.3339679853248,9.04982704213663,-0.440615944007081,-50.3629609139547,49.0528968999719,-175.523705205411,-5.53120464349401,10.6610745793341,6.19970821144318,41.3325581251166,96.617190884881,32.7171729618394,16.7335204131771,0,0,-34.5551641464233,105.82999420166,101.613118771536,0.610289126761208,8.59981475008425,8.00439548492432,7.92807455578343,-39.9704400444031,105.112503051758,101.041684099867,0.772302632603436,9.17501916172252,6.06153869628906,5.84827196664859,5.4756515947283,13.4899070788247,-0.193509821691809,17.0756028768615,-23.4737517327263,-145.171011979554,-9.64179815031174,12.9459174737669,0.857313584398857,-3.10273565515623,-58.362035759777,40.0769556267047,-2.29353343277954,9.98228403607739,-1.13356479801395,-6.55018906829547,-1.74959906348223,1.46881984647256,1248.02507015494,0.0845596075735494,0.0488889933205743
64.415,-40.1895790961184,-101.757000396874,-105.289175309245,-0.106393291302822,-1.78761032374573,-2.48158053007384,-2.44552145356844,-71.1970465408352,-200.07158967091,-215.207558281945,0.0132866841911485,0.226612686146809,-1.73864694009068,-1.94273115460951,3.33080997075844,13.0507631433655,0.255910271353519,28.4741434479896,-7.95271642553678,243.238006050274,-12.8100335357749,7.70281148395802,-0.507938367789299,-50.1750628543327,46.9039797351421,-164.498994860827,-3.28356083846981,7.21195693469751,5.50291827342077,38.6788478448264,90.9456005049242,46.0200108475347,13.2456495511523,0,0,-34.0675965869826,103.510393538851,103.847732988197,0.58853083880094,8.65720567971627,8.10102817831509,8.03898710639315,-39.4098551741119,105.421782920885,102.960548497201,0.728977206767191,9.27007862985405,6.25764609113504,6.05320767423209,4.59491994356176,12.9952679794696,-0.220267672739923,13.9863082448677,-21.2769852035133,-147.17064973418,-9.1960912418461,13.2160709976893,0.80142567940618,-3.75511058298072,-73.4743810056844,39.2466573410755,-2.30803276820068,9.96383960140319,-1.09765159898752,-5.08837717865502,-1.61194451912764,-0.396197869044283,1240.64190335971,0.0837320146974305,0.0486214385154958
64.42,-41.1831506986801,-102.218545017765,-103.837274615853,-0.0978238312735479,-1.77784991995863,-2.35528216672948,-2.30879553575486,-72.9545445905259,-189.148400785674,-210.793152284692,0.0239814035492994,0.208353486520966,-1.58595787395795,-1.79326506217126,2.99416354824858,12.574740813447,0.446748052266753,28.6806262737801,-6.85147468798779,240.46901841211,-12.4519446659714,6.45486105146922,-0.782401693147655,-47.7475660434374,38.1152235604723,-148.787769590747,-1.71569020929062,7.43227024045022,5.0961860638368,13.2674039170593,87.7035035211231,45.592234253057,11.7446782405987,0,0,-33.0974574165281,98.8949604173663,104.197582444071,0.563936338061278,8.765795977668,8.29330340087593,8.245959527996,-38.2944295669253,106.037173567502,104.043298981771,0.672615074404467,9.33594829159373,6.64785143124034,6.45596717543111,3.21188209312313,11.7323078338752,-0.559058339979149,9.41456670461027,-17.5047028092649,-146.871514358356,-8.09394945095393,12.9694828538126,0.923647628979824,-5.82258605660033,-84.5635676369169,39.614620325497,-2.2207290963025,9.97924616632122,-1.08481282897101,-3.23467761421122,-0.989041431382656,-1.67202346767796,1227.99085945647,0.0824380716207598,0.0493531101129313
64.425,-42.1766749251403,-102.680067630998,-102.385443152897,-0.089254779858618,-1.7680899815732,-2.22898982562256,-2.17688770176981,-74.7119588380971,-178.225732746752,-206.378956777903,0.0346756129551636,0.190095157541682,-1.43327608844063,-1.64745347710574,2.65753317792365,12.0987411815226,0.637576733533748,28.8870992539275,-5.75028546053501,237.700162806543,-12.093872870785,5.20697012453222,-1.05685193137434,-45.320184981961,29.3268864567626,-133.077293473121,-0.147894340297833,7.65257304108631,4.68947324831203,-12.1428283263703,84.4615611290148,45.16447805609,10.2437785002965,0,0,-32.1273645048553,94.2797473718464,104.547415218204,0.539343010051959,8.87438109774934,8.48556945524954,8.45314401362263,-37.179057146159,106.652534870678,105.125997837957,0.616255629536134,9.40181481249507,7.03803816533095,6.86221667136254,1.82891018955892,10.4694079095352,-0.89783285279022,4.84304315698778,-13.7326002873413,-146.572393246091,-6.99186021307487,12.7229064679058,1.04586375069015,-7.88996294756337,-95.6522255066277,39.9825657644776,-2.13342958727251,9.9946519966138,-1.07197467114075,-1.38106643902759,-0.366168045291671,-2.94778823159876,1215.34041878821,0.0811441902426909,0.0500847468223449
64.43,-43.1702465277021,-103.14161225189,-100.933542459505,-0.0806853198293437,-1.7583295777861,-2.10269146227821,-2.0501711359401,-76.4694568877878,-167.302543861516,-201.96455078065,0.0453703323133146,0.171835957915839,-1.2805870223079,-1.5058194848745,2.32088675541378,11.6227188516042,0.828414514446981,29.0935820797179,-4.64904372298603,234.931175168379,-11.7357840009815,3.95901969204342,-1.3313152567327,-42.8926881710658,20.5381302820928,-117.366068203041,1.41997628888136,7.87288634683901,4.28274103872806,-37.5542722541374,81.2194641452137,44.7367014616123,8.74280718974296,0,0,-31.1572253344008,89.6643142503622,104.897264674077,0.514748509312297,8.98297139570107,8.67784467781038,8.66032234751345,-36.0636315389724,107.267925517295,106.208748322528,0.55989349717341,9.46768447423475,7.42824350543625,7.27160058174527,0.445872339120285,9.20644776394087,-1.23662352002945,0.271301616730342,-9.96031789309299,-146.273257870266,-5.8897184221827,12.4763183240292,1.16808570026379,-9.95743842118298,-106.74141213786,40.350528748899,-2.04612591537433,10.0100585615318,-1.05913590112425,0.472633125416217,0.256735042453317,-4.22361383023244,1202.68937488498,0.0798502471660202,0.0508164184197804
64.435,-44.1637707541622,-103.603134865122,-99.4817109965487,-0.0721162684144138,-1.74856963940067,-1.97639912117128,-1.92878397124918,-78.226871135359,-156.379875822594,-197.550355273861,0.0560645417191787,0.153577628936554,-1.12790523679057,-1.36867355125704,1.98425638508886,11.1467192196798,1.01924319571398,29.3000550598653,-3.54785449553324,232.162319562813,-11.3777122057951,2.71112876510643,-1.60576549495939,-40.4653071095893,11.7497931783831,-101.655592085416,2.98777215787414,8.0931891474751,3.87602822320329,-62.964504497567,77.9775217531054,44.3089452646453,7.24190744944073,0,0,-30.187132422728,85.0491012048422,105.247097448211,0.490155181302977,9.0915565157824,8.870110732184,8.86720265258751,-34.9482591182061,107.883286820471,107.291447178714,0.503534052305077,9.53355099513609,7.81843023952686,7.68352602231584,-0.937099564443922,7.94354783960085,-1.57539803284052,-4.30022193089214,-6.18821537116939,-145.974136758001,-4.78762918430364,12.2297419381224,1.29030182197411,-12.024815312146,-117.830070007571,40.7184741878796,-1.95882640634434,10.0254643918244,-1.04629774329399,2.32624430059984,0.879608428544302,-5.49937859415323,1190.03893421671,0.0785563657879512,0.051548055129194
64.44,-46.0575739746473,-102.620821343004,-99.3330020561218,-0.0649116513105323,-1.746761866102,-1.94124692124563,-1.90373132246735,-80.561098510728,-141.63712155911,-189.175363320772,0.0615407295730154,0.0896672143270123,-0.899837470296712,-1.16066984318758,2.06465304853255,10.4072545267539,0.770174133518325,27.7904338188979,-3.69505461162361,226.812018602827,-11.1769311359342,1.63896309230511,-1.69207907766641,-38.7415699479708,4.41888519466436,-84.6555269998792,3.24046158790588,8.12869644165039,3.81047630310059,-67.0599975585938,77.4550018310547,44.2400016784668,7,0,0,-29.0420789711465,76.4554869243722,101.643837273469,0.462241244144635,9.28637060068061,8.82896359744067,8.84007818998366,-33.1589792250077,103.906631660247,106.941540753777,0.47396700888854,9.50591434249124,8.15321408158258,8.04191307877602,-1.08636161408379,7.47910971846821,-1.66997512378309,-5.56432424483227,-6.04779222098492,-142.871296584216,-4.04193245150335,11.449408233071,1.12485205826776,-12.1450318290959,-112.549557387017,39.6920336750269,-1.94475591182709,10.0279474258423,-1.04422855377197,2.625,0.980000019073486,-5.70499992370605,1188,0.0783478245139122,0.0516659766435623
64.445,-48.1242426565117,-101.361155397968,-99.4346741317869,-0.0579695963137705,-1.74648206721025,-1.92360772890256,-1.90101988117897,-83.0060179134151,-126.161241517731,-180.039848573429,0.0660140531116117,0.0169891701690583,-0.657298549418236,-0.942529282787259,2.22516970842203,9.6172115913603,0.436600449685478,25.9511804243308,-4.08210288489109,220.966041483395,-11.0063821848016,0.600620948644961,-1.74224053388188,-37.153123834481,-2.63158615117618,-67.40865594308,3.24046158790588,8.12869644165039,3.81047630310059,-67.0599975585938,77.4550018310547,44.2400016784668,7,0,0,-27.8634749527483,67.0979798198998,97.2812631544897,0.433690895834261,9.49774102294785,8.74297247497108,8.7671980149926,-31.2403213203877,99.0479256251298,106.316403772692,0.449549344959865,9.46031423543908,8.4773341810894,8.39069747770136,-0.998579065706714,7.16810868993231,-1.71762850718779,-6.19289064061867,-6.6051417344901,-139.229946429315,-3.36475279259456,10.5665666036788,0.904141650919707,-11.8911281618324,-104.12429057453,38.3977442492205,-1.94475591182709,10.0279474258423,-1.04422855377197,2.625,0.980000019073486,-5.70499992370605,1188,0.0783478245139122,0.0516659766435623
64.45,-50.1910098872617,-100.101429385889,-99.5363510556745,-0.0510272102858228,-1.74620225497631,-1.9059676954364,-1.90256265881115,-85.451053901835,-110.684623510587,-170.903898199994,0.0704875899601856,-0.0556923396340323,-0.41474806309601,-0.728295640062489,2.38569402253211,8.82713098284977,0.103010859425478,24.1118393251529,-4.46916961451608,215.119785599139,-10.8358251010596,-0.437770708254598,-1.79240438204129,-35.5646019761001,-9.68239369802505,-50.1609624709903,3.24046158790588,8.12869644165039,3.81047630310059,-67.0599975585938,77.4550018310547,44.2400016784668,7,0,0,-26.6848147327375,57.7400265036538,92.9184810066078,0.405139186103435,9.70912152439216,8.65697725202357,8.69307932999425,-29.3215719247609,94.18898790311,105.691236982013,0.425130516677372,9.41471195395046,8.80146973623018,8.73968685841622,-0.91079233142776,6.85709283134404,-1.76528416293921,-6.82148700952966,-7.16251782515009,-135.588422637003,-2.68754084244267,9.6836828760734,0.683420719018352,-11.6372123871984,-95.6986220040533,37.1033931053545,-1.94475591182709,10.0279474258423,-1.04422855377197,2.625,0.980000019073486,-5.70499992370605,1188,0.0783478245139122,0.0516659766435623
64.455,-52.2577771180118,-98.8417033738109,-99.6380279795621,-0.0440848242578752,-1.74592244274238,-1.88832766197024,-1.9076204659139,-87.8960898902549,-95.2080055034434,-161.76794782656,0.0749611268087595,-0.128373849437123,-0.172197576773785,-0.517372031059314,2.54621833664218,8.03705037433924,-0.230578730834523,22.2724982259749,-4.85623634414107,209.273529714883,-10.6652680173177,-1.47616236515416,-1.84256823020071,-33.9760801177191,-16.7332012448739,-32.9132689989006,3.24046158790588,8.12869644165039,3.81047630310059,-67.0599975585938,77.4550018310547,44.2400016784668,7,0,0,-25.5061545127266,48.3820731874078,88.5556988587259,0.376587476372608,9.92050202583648,8.57098202907606,8.61741796510285,-27.402822529134,89.3300501810902,105.066070191334,0.400711688394878,9.36910967246184,9.12560529137096,9.08797090369353,-0.823005597148806,6.54607697275576,-1.81293981869064,-7.45008337844065,-7.71989391581008,-131.946898844691,-2.01032889229079,8.80079914846798,0.462699787116997,-11.3832966125644,-87.2729534335765,35.8090419614885,-1.94475591182709,10.0279474258423,-1.04422855377197,2.625,0.980000019073486,-5.70499992370605,1188,0.0783478245139122,0.0516659766435623
64.46,-53.3442724804696,-95.9764064591055,-99.2399168641196,-0.0340941008005526,-1.77595753965217,-1.88366298380375,-1.92830867688071,-88.9162234726364,-85.8836372014841,-148.672911661848,0.0752531876656738,-0.143594506422592,-0.152674212822904,-0.532020737045464,2.88267075066289,7.62599615982447,-0.00699643412268502,21.7148110897768,-6.69096971769855,203.562076629676,-9.8209893023681,-1.56699917710524,-1.91300082289478,-34.4839603249588,-14.0703219448762,-22.6348785468288,4.20391072005734,6.45942583277684,3.04988794879612,-49.1012636198469,51.1906584549334,68.576984268095,5.83331809454146,0,0,-24.8572342274012,50.176613076182,82.3498595944349,0.354305315720365,10.0947720834073,8.64849942796701,8.70345046736855,-26.3382570671562,91.1214508003625,103.381255459381,0.379953189305261,9.11051259957608,9.23311406589245,9.21805197211987,-0.557996708420962,6.61200146292402,-1.70333180945414,-6.16047576637011,-8.73581466016931,-130.321384991709,-2.38833958123801,8.66066654475634,-0.0436728536161654,-11.1411495918826,-78.4916711536443,36.2827247411381,-1.94475591182709,10.0279474258423,-1.04422855377197,2.625,0.980000019073486,-5.70499992370605,1188,0.0783478245139122,0.0516659766435623
64.465,-54.2603346700983,-92.8316998885909,-98.7548577219577,-0.0235726353416331,-1.81126684490312,-1.88125478594615,-1.95297900293021,-89.6885877064969,-77.6287782740046,-134.888557618181,0.0748180007703922,-0.148822124388393,-0.1719397956837,-0.587122484302679,3.24974033098657,7.28084118131117,0.313504617353943,21.3800046732295,-8.77759152587717,197.873749431367,-8.85948614793818,-1.49303739599525,-1.98696260400477,-35.356486137779,-9.71783852976137,-13.5680502360884,5.33498187990285,4.49973353489864,2.15697152657974,-28.0180477575878,20.3568133315559,97.1481440794297,4.46365548139343,0,0,-24.3004127473143,53.9109531736378,75.8231188355208,0.333112340403238,10.2625974545106,8.7544601337014,8.81588098389769,-25.4221961347567,94.06961321022,101.512046920426,0.359830151719404,8.81485588641134,9.30295199969465,9.30808607543999,-0.262149583980992,6.74348907378624,-1.56636554813934,-4.53717192856504,-9.83154475068774,-129.046415102433,-2.94990125262869,8.64970924385115,-0.599755874554273,-10.9010358992072,-69.6480471206021,37.0639397130818,-1.94475591182709,10.0279474258423,-1.04422855377197,2.625,0.980000019073486,-5.70499992370605,1188,0.0783478245139122,0.0516659766435623
64.47,-55.1763531794776,-89.6871432659386,-98.2698217086888,-0.0130516715737998,-1.84657446651373,-1.87884670291775,-1.97842706246877,-90.4609151120037,-69.3743129598632,-121.104860848691,0.0743828346259638,-0.154049493087649,-0.191204459910945,-0.642931213518431,3.6167924084693,6.93570266069308,0.633990386499297,21.0452142211308,-10.8641138384517,192.185693467428,-7.89802884050209,-1.41907914157709,-2.06092085842292,-36.2289703462786,-5.36556265247864,-4.50165425551727,6.46599910730703,2.54013468029232,1.26409768096179,-6.9358371983928,-10.4755615531642,125.717941542881,3.09405817735341,0,0,-23.743617817937,57.6451152079572,69.2966892887351,0.311920375622794,10.4304148232597,8.86041578695124,8.92609987294392,-24.5061788825465,97.0176350439564,99.6429275102394,0.339708073652792,8.51921327093461,9.37278660344088,9.39505555048222,0.0336834336916479,6.87497041497409,-1.42940581773533,-2.91394549414724,-10.9272225939198,-127.771506007067,-3.51143614728509,8.63875246541883,-1.15581237999453,-10.6609336557829,-60.8048447747634,37.8451174346453,-1.94475591182709,10.0279474258423,-1.04422855377197,2.625,0.980000019073486,-5.70499992370605,1188,0.0783478245139122,0.0516659766435623
64.475,-56.0634185984185,-86.3739282198002,-97.4372456299441,-0.00207562931871109,-1.88165258608034,-1.87826189525208,-2.00555756204367,-91.1732833653653,-61.3236143425573,-107.843594615076,0.0740876999557027,-0.139540064105711,-0.219981519867532,-0.707968715593733,3.93284346393045,6.63817180113318,0.914873994057559,20.7220008699641,-12.6248702219359,187.123062053926,-7.06857646365375,-1.36761448797682,-2.13066028316753,-36.5492751214764,-1.63444591616596,4.98873813767979,7.36947536468506,0.974772989749908,0.550854504108429,9.90499973297119,-35.1049995422363,148.539993286133,2,0,0,-23.1490539368882,61.5750060642173,63.741196526549,0.291802941617599,10.5506328023437,8.98834321794015,9.05600101680602,-23.5558710735823,100.319543417733,98.1900600937365,0.316034975795076,8.18685700318415,9.4080432416173,9.443853609246,0.397923398010353,7.05766777736346,-1.30680155417353,-0.853328325619028,-12.2938072900261,-126.979327585155,-4.0620341388892,8.68482431343301,-1.66396169900521,-10.5161388146716,-53.8416405402688,38.9260050810776,-1.95691381616182,9.99621530938646,-1.04933487129301,3.21486899612731,1.17366183285499,-5.93952614758234,1176.98437406022,0.0778586497710643,0.0525930907599996
64.48,-56.8353396485338,-82.3919803075018,-95.2252480818227,0.0107043225989958,-1.91581134631983,-1.88491502447842,-2.03893924775376,-91.6474648687293,-54.0837096598501,-96.6593467708466,0.0743485137190718,-0.0466855343355301,-0.286512815889994,-0.809486513365986,4.04636248812118,6.52969806690647,1.03848359817636,20.4448213595944,-13.0920267000871,184.544358294532,-6.76333642082978,-1.40545416270706,-2.18363582778987,-34.6775348323507,-0.370009048636779,16.1600067185348,7.36947536468506,0.974772989749908,0.550854504108429,9.90499973297119,-35.1049995422363,148.539993286133,2,0,0,-22.4047007396027,66.2809441560926,62.0413171549726,0.275955805475193,10.4818685080511,9.20346100278069,9.27080800254787,-22.4696663217426,105.025481509608,98.3899192804566,0.27827111716895,7.70883847320099,9.30602847319095,9.35143835434373,1.03362993347848,7.44363245961195,-1.2412127846411,2.9430966534895,-14.7354784824962,-128.103617509238,-4.5690857802745,8.95726997149077,-1.98181496673926,-10.7497170537472,-54.3430551601511,41.1963855648923,-2.01733168625748,9.83852473730228,-1.07471036530572,6.14618243636091,2.13605090792891,-7.1049881004045,1122.24297795046,0.0754277295027557,0.0572003206500011
64.485,-57.6072975076259,-78.4098425164226,-93.0131450548235,0.0234848839274087,-1.94997173541631,-1.89156847095855,-2.0705969335811,-92.12166898339,-46.8434597430252,-85.4745656068978,0.0746093399193186,0.0461734231934494,-0.353047284450533,-0.908776515239136,4.15988692545502,6.42121916012079,1.16209909660655,20.167628631948,-13.5592054545474,181.965531569911,-6.45808182266544,-1.44329564181834,-2.23661389854566,-32.8057052894799,0.894488113435698,27.3318080001949,7.36947536468506,0.974772989749908,0.550854504108429,9.90499973297119,-35.1049995422363,148.539993286133,2,0,0,-21.6603120479108,70.9871066501468,60.3413567248214,0.260107913663715,10.4131009347401,9.4185890454909,9.48343925789962,-21.3834097743399,109.731644003662,98.5897879974417,0.24050545777707,7.23079714895289,9.20400884020076,9.25493306208462,1.66936678254803,7.82961554654702,-1.17562088751488,6.73970266473666,-17.1772661058086,-129.227961044973,-5.07616160036569,9.229728621092,-2.29968339127403,-10.9833064309774,-54.8444936899384,43.4668743115692,-2.07775243737313,9.68082664575923,-1.10008706934629,9.07763565597748,3.0984858744279,-8.27050562816124,1067.49897150281,0.0729966933162615,0.0618077702352909
64.49,-58.3792185577412,-74.4278946041242,-90.8011475067021,0.0362648358451155,-1.9841304956558,-1.8982216001849,-2.09992800460722,-92.595850486754,-39.603555060318,-74.2903177626688,0.0748701536826876,0.13902795296363,-0.419578580472995,-1.00493561209307,4.27340594964576,6.31274542589409,1.28570870072535,19.8904491215783,-14.0263619326985,179.386827810517,-6.15284177984147,-1.48113531654858,-2.289589443168,-30.9339650003542,2.15892498096488,38.5030765810499,7.36947536468506,0.974772989749908,0.550854504108429,9.90499973297119,-35.1049995422363,148.539993286133,2,0,0,-20.9159588506253,75.6930447420221,58.641477353245,0.244260777521309,10.3443366404475,9.63370683033144,9.69406735060243,-20.2972050225002,114.437582095538,98.7896471841618,0.202741599150944,6.75277861896973,9.10199407177442,9.15442056485944,2.30507331801616,8.21558022879551,-1.11003211798246,10.5361276438452,-19.6189372982787,-130.352250969057,-5.58321324175099,9.50217427914976,-2.61753665900809,-11.2168846700529,-55.3459083098207,45.7372547953839,-2.13817030746879,9.52313607367506,-1.125462563359,12.0089490962111,4.06087494950183,-9.43596758098341,1012.75757539305,0.0705657730479529,0.0664150001252924
64.495,-59.1041213685962,-70.6021594346968,-88.2590864855012,0.0476294418344652,-2.00386392103643,-1.90544295801196,-2.1270524318561,-92.9962497806278,-32.3729824535114,-63.8033703161621,0.0750057122479223,0.236573267784519,-0.47408560958187,-1.08512789601281,4.36244135832762,6.20009336048682,1.3525347188144,19.1711495330839,-14.3834695550394,176.156124100186,-5.84859026891748,-1.58812346648346,-2.26286264599076,-28.8498694125473,3.16942063518026,49.4374164706795,7.31612056335812,0.889843846086019,0.573512020735941,6.08763087151481,-36.65800858976,148.539993286133,2,0,0,-20.1667287220254,79.8520940851213,58.1069138145528,0.232831183394022,10.2213572222915,9.84340980530534,9.89757164004165,-19.2151684684903,118.246300839877,99.617830460107,0.165441452155321,6.2701790131898,8.97373882266885,9.0239451628617,2.8437098832074,8.50938966041809,-1.04168981254294,14.3219889459584,-21.6412246806953,-132.190187402537,-5.91140740013743,9.77286497693589,-2.86305169790952,-11.8539466733066,-57.9391806583958,47.7878686952402,-2.1740255547156,9.38559831218334,-1.17683225819385,13.7835831651335,4.84199622293627,-9.50043104924916,960.807328982236,0.0677360909453415,0.0718704879685903
