time,hip_angle_l,hip_angle_l_velocity,hip_angle_l_velocity_filt,hip_angle_l_torque_estimated,hip_angle_l_torque_desired,hip_angle_l_torque_measured,hip_angle_l_torque_interaction,knee_angle_l,knee_angle_l_velocity,knee_angle_l_velocity_filt,knee_angle_l_torque_estimated,knee_angle_l_torque_desired,knee_angle_l_torque_measured,knee_angle_l_torque_interaction,thigh_imu_l_accel_x,thigh_imu_l_accel_y,thigh_imu_l_accel_z,thigh_imu_l_gyro_x,thigh_imu_l_gyro_y,thigh_imu_l_gyro_z,shank_imu_l_accel_x,shank_imu_l_accel_y,shank_imu_l_accel_z,shank_imu_l_gyro_x,shank_imu_l_gyro_y,shank_imu_l_gyro_z,foot_imu_l_accel_x,foot_imu_l_accel_y,foot_imu_l_accel_z,foot_imu_l_gyro_x,foot_imu_l_gyro_y,foot_imu_l_gyro_z,insole_l_force_y,insole_l_cop_x,insole_l_cop_z,hip_angle_r,hip_angle_r_velocity,hip_angle_r_velocity_filt,hip_angle_r_torque_estimated,hip_angle_r_torque_desired,hip_angle_r_torque_measured,hip_angle_r_torque_interaction,knee_angle_r,knee_angle_r_velocity,knee_angle_r_velocity_filt,knee_angle_r_torque_estimated,knee_angle_r_torque_desired,knee_angle_r_torque_measured,knee_angle_r_torque_interaction,thigh_imu_r_accel_x,thigh_imu_r_accel_y,thigh_imu_r_accel_z,thigh_imu_r_gyro_x,thigh_imu_r_gyro_y,thigh_imu_r_gyro_z,shank_imu_r_accel_x,shank_imu_r_accel_y,shank_imu_r_accel_z,shank_imu_r_gyro_x,shank_imu_r_gyro_y,shank_imu_r_gyro_z,foot_imu_r_accel_x,foot_imu_r_accel_y,foot_imu_r_accel_z,foot_imu_r_gyro_x,foot_imu_r_gyro_y,foot_imu_r_gyro_z,insole_r_force_y,insole_r_cop_x,insole_r_cop_z
91.62,-21.9849375696483,-1.11484875881846,-9.74317394176278,0.0775028744675292,1.12939241190146,2.30002179761453,2.29879808153364,-48.6911945879335,-69.681016575102,-72.9410497662527,0.737021349540221,5.29973608185992,3.29689143264008,3.33247484239423,2.11597703359093,8.99784741179334,1.40844297486769,17.4746310512648,-11.8287607629331,36.5258855473739,-6.73665628564471,6.89073666807643,-0.961133710125982,-5.49149162833314,4.41822971377273,-105.37806539585,-2.95887405202223,9.05147768492389,0.655692324818249,3.41403608727193,16.1941927502443,-57.6504678345959,1101.25496302562,0.164509219172284,0.00803768514643392,-22.6911176170599,25.1193227124926,15.764619520736,-0.00862676741046001,2.04730857937961,2.23606738271797,2.22010615346719,-8.82473593867578,-10.6637833314333,-16.2118280372419,0.00078042952627611,-0.662491921295982,-1.18348783845575,-1.1886878878369,2.27999999999997,9.06201148320454,0.262095172183983,3.55537533936893,-8.66831740896276,-19.9909942538093,-2.71878260089456,8.80872518487191,1.35798851679548,-5.53128348892207,27.5007123998072,-35.5399648776215,-5.41118175649422,8.5061019209733,-0.111413389935919,-22.4081949523459,-18.2334263353613,-114.272809447131,0,0,0
91.625,-22.0260587256592,0.23501210128251,-8.39545582768414,0.0716750334784444,0.991706724589777,2.30474735232179,2.30016505161808,-49.448992450676,-68.5239914245304,-72.6640251632638,0.757419810842548,5.45934031394563,3.57569916036844,3.60460366827053,2.05684852679199,9.07310187499199,1.61270508926398,18.3307003416196,-10.1697117506175,34.1103101854423,-6.55389544644802,6.914925602676,-1.07132774552398,-6.99127193546646,7.43106272013789,-105.540652199057,-3.01873812698149,8.94333626245049,0.60290894052376,3.27293394314297,16.2224130509125,-60.2561535408278,1102.3300267856,0.177338762827648,0.0111722877195849,-22.4326442691959,26.6620206918564,17.3988965834596,-0.0155630162507036,2.00814747105552,2.19353739035263,2.18170454669266,-8.91872645670239,-8.73541060091326,-15.4116208950682,0.00535352905373686,-0.648998116679493,-1.05826062269365,-1.06668875977079,2.27999999999997,9.09157573660401,0.0390194419880139,2.51349255963472,-10.0287375990616,-23.3887266310317,-2.86122854909197,8.80334986607201,1.32842426339601,-5.45496723435555,19.7994068846381,-37.0098823025331,-4.97539713248672,9.16331927440558,-0.283281208613788,-15.6541065931953,-20.7356373494946,-111.902293938395,0,0,0
91.63,-22.0908059144335,-0.279312353980821,-7.16655332048694,0.0665855439645507,0.901595471142552,2.23338822898929,2.22408152204578,-50.3494020532256,-67.6602510066232,-72.1881834268239,0.774921223782716,5.62278409295816,3.87358195795987,3.88441823688416,2.04784217016028,9.14287035406025,1.78176325524045,18.5131013815765,-9.09038093933284,32.1985997212056,-6.37834948035934,7.0145208737009,-1.06045094239914,-7.36981908806816,7.8551530216142,-105.096916951007,-3.07343014367601,8.91023698263822,0.587637903159282,2.73952523017194,16.1947562521941,-62.1653832060488,1106.57970759204,0.188470266994318,0.0131514391441719,-22.062921333145,28.3368679047975,19.2253705363575,-0.0219088591339808,1.95087781827633,2.16266212999684,2.16121696264737,-8.97512737172704,-6.67752386034007,-14.3011833844117,0.00967155397290419,-0.624452522463252,-0.954868984333705,-0.968584225633156,2.28795490576006,9.18855469438084,-0.121875990840252,1.90348101609919,-11.2791989335352,-26.8553150355452,-2.90823674475954,8.88551523692092,1.31497181610006,-5.37917240239475,12.59143131153,-38.1861790156077,-4.70381879806519,9.5728931427002,-0.390388190746307,-11.4449996948242,-22.2950000762939,-110.425003051758,0,0,0
91.635,-22.1946147095593,-3.87632990832561,-6.13428880757555,0.0627176924259557,0.890168310752147,2.03621874273404,2.02431263190437,-51.48553130881,-67.2816177520218,-71.3836228145984,0.787629643371248,5.79255655664834,4.2029710449658,4.19191764506061,2.12172274088426,9.20355796572638,1.89258411132642,17.5814504456393,-8.9698526713969,31.1203603512922,-6.21475678804197,7.23880117768439,-0.849363597473497,-5.89416218604169,3.99824844766422,-103.650577735775,-3.11956233227,9.0012372677656,0.634402059147416,1.55743612501011,16.0747003448985,-62.9226587741375,1116.07863811369,0.196792355802021,0.0132195985135892,-21.5092744258075,30.230035184347,21.3694447276122,-0.0272775589963195,1.86366974998012,2.151063924923,2.16191784016708,-8.96936013256371,-4.40572332618923,-12.6778659233324,0.0135672218022694,-0.581633956883614,-0.887599394905444,-0.90521621602211,2.30906364025264,9.3970034474949,-0.179925010694795,2.00772168025999,-12.3476657411835,-30.435330345318,-2.79741588867358,9.11243413271599,1.32816477515791,-5.30424942502916,6.2001755901703,-38.8767734156731,-4.70381879806519,9.5728931427002,-0.390388190746307,-11.4449996948242,-22.2950000762939,-110.425003051758,0,0,0
91.64,-22.2984284547969,-7.47351898608628,-5.10197507123596,0.0588496564492539,0.878740605458761,1.83903985447191,1.82482003146835,-52.6217147406024,-66.9029664423323,-70.579023836982,0.800338668959474,5.96233711592117,4.53237583885682,4.50130766523318,2.19560683459574,9.26424847127508,2.00341025189362,16.649755084022,-8.84931865608277,30.0420695656442,-6.05115629482372,7.46309217645133,-0.638266186869302,-4.41843491746608,0.141159957612305,-102.204169552006,-3.16569672067271,9.09224189223231,0.681168445079567,0.375290652049644,15.9546387127492,-63.6799704528346,1125.57802159088,0.205114841447682,0.0132877611331791,-20.9556011178737,32.1232927393855,23.5136211588265,-0.0326465148645645,1.77645752317606,2.13946516678994,2.162129178463,-8.96359261839015,-2.1338144614612,-11.0544710545253,0.0174630753961585,-0.538813349505036,-0.82032659773366,-0.841333882473363,2.33017338131307,9.60546214046654,-0.237976798610941,2.11196731512625,-13.4161834985627,-34.0155163677564,-2.68658974810637,9.3393638491155,1.34135836332068,-5.22932287496903,-0.191384897567744,-39.5674007466621,-4.70381879806519,9.5728931427002,-0.390388190746307,-11.4449996948242,-22.2950000762939,-110.425003051758,0,0,0
91.645,-22.4022372499227,-11.0705365404311,-4.06971055832457,0.054981804910659,0.867313445068356,1.64187036821666,1.62566620217786,-53.7578439961868,-66.524333187731,-69.7744632247565,0.813047088548005,6.13210957961136,4.86176492586275,4.81272372306656,2.26948740531972,9.32493608294121,2.11423110797959,15.7181041480848,-8.72879038814683,28.9638301957309,-5.88756360250635,7.68737248043481,-0.427178841943659,-2.94277801543962,-3.71574461633767,-100.757830336775,-3.21182890926671,9.18324217735969,0.727932601067701,-0.806798453112188,15.8345828054536,-64.4372460209234,1135.07695211253,0.213436930255386,0.0133559205025964,-20.4019542105362,34.016460018935,25.6576953500812,-0.0380152147269032,1.68924945487986,2.1278669617161,2.16175575376958,-8.95782537922681,0.13798607268965,-9.43115359344606,0.0213587432255237,-0.495994783925398,-0.753057008305398,-0.776800160978891,2.35128211580564,9.81391089358059,-0.296025818465484,2.21620797928705,-14.484650306211,-37.5955316775292,-2.57576889202041,9.56628274491056,1.35455132237853,-5.15439989760345,-6.5826406189274,-40.2579951467274,-4.70381879806519,9.5728931427002,-0.390388190746307,-11.4449996948242,-22.2950000762939,-110.425003051758,0,0,0
91.65,-22.445110168457,-12.5561008453369,-4.07106838023335,0.0524628673268709,0.916033072190047,1.5604395866394,1.54262635600325,-54.2270641326904,-66.3679580688477,-69.0804515187187,0.825115014041696,6.29938058558243,4.99780225753784,4.93294371919328,2.28047864990374,9.36673258579683,2.12932359270588,15.5622874394007,-9.60860044550154,28.6682854901566,-5.88135281458828,7.73677415335823,-0.242393249518608,-1.62237058291348,-7.53793195543867,-99.6199555617081,-3.28331273787828,9.21948942483005,0.762608179954673,-2.04657193379651,14.9553424949162,-65.594298434217,1141.23101143957,0.21988664563825,0.0137527548374796,-20.1732986450195,34.7983360290527,27.4302713978015,-0.0422841431050511,1.58014963005261,2.12307691574097,2.16751566331369,-8.95544351577759,1.07623720169067,-7.81205902494099,0.0206898576800695,-0.441152607861793,-0.725274741649628,-0.750984185325941,2.36418314644921,9.93207078944386,-0.318605617850261,2.5364142297619,-14.9913413848023,-39.9003746072497,-2.3292089704383,9.77991686487713,1.37533820364709,-5.19403662733219,-11.9851646300281,-41.2335151136336,-4.63936504649068,9.73920394808024,-0.407420012402445,-10.8984019479796,-22.2803591275515,-107.355270834225,0,0,0
91.655,-22.445110168457,-12.5561008453369,-4.79959716177625,0.0508931184929946,1.0070630402276,1.5604395866394,1.54143987988069,-54.2270641326904,-66.3679580688477,-68.4642692406881,0.836731360680629,6.46487818595597,4.99780225753784,4.91934663282532,2.24722528032621,9.39523547400614,2.07706829765547,15.9522960949396,-11.1920942349077,28.9234039340054,-5.98586340468909,7.66314169215086,-0.0761264016309681,-0.411291073608431,-11.3353846541071,-98.6991832471275,-3.37262607427669,9.21721402536717,0.788776420538336,-3.32682665913355,13.5420743331754,-67.0325067409317,1145.03139653415,0.22501859025124,0.0143807854229977,-20.1732986450195,34.7983360290527,28.9413481361888,-0.0457790165930232,1.4556574403898,2.12307691574097,2.17730725160804,-8.95544351577759,1.07623720169067,-6.19606684999888,0.0168097847498565,-0.377856069989596,-0.725274741649628,-0.752098757167751,2.37130886850153,9.98670132517837,-0.316230377166154,3.00852997067744,-15.102772429242,-41.3079246422773,-1.98717431192658,9.98418756371051,1.40146585117229,-5.31426485949081,-16.6916600596519,-42.409405872063,-4.52957220884395,10.0225037531022,-0.436432629732546,-9.96730769494744,-22.2554192090982,-102.126178613132,0,0,0
91.66,-22.445110168457,-12.5561008453369,-5.52816068313992,0.0493232948058051,1.09809734901991,1.5604395866394,1.54072328619459,-54.2270641326904,-66.3679580688477,-67.8480575800683,0.848348261243869,6.63038367806574,4.99780225753784,4.90799018497925,2.21397032506515,9.42373972137277,2.02481051081664,16.3423233480016,-12.7756635330539,29.1785345431512,-6.09037897836674,7.58950571978707,0.0901483746743866,0.799846185899719,-15.1330184339208,-97.7783670256129,-3.46194366957245,9.2149385174021,0.814945908951886,-4.60714243328683,12.1287387798861,-68.4707836284631,1148.8319628497,0.230150779580487,0.0150088459560904,-20.1732986450195,34.7983360290527,30.4524969301165,-0.0492740567336817,1.3311593143296,2.12307691574097,2.18626234387727,-8.95544351577759,1.07623720169067,-4.57999761663442,0.0129295267987608,-0.314556513828434,-0.725274741649628,-0.752314753538267,2.37843493034318,10.0413344659644,-0.313855023218936,3.48066822438402,-15.2142087872597,-42.7155417961851,-1.64512334352699,10.1884680031714,1.42759474459171,-5.43449882472043,-21.3983799180311,-43.5853527027235,-4.41977413573693,10.3058170672464,-0.46544663052635,-9.03616904278063,-22.2304781013875,-96.8968370433085,0,0,0
91.665,-22.445110168457,-12.5561008453369,-6.25668946468282,0.0477535459719289,1.18912731705746,1.5604395866394,1.54052185494561,-54.2270641326904,-66.3679580688477,-67.2318753020377,0.859964607882802,6.79588127843928,4.99780225753784,4.89885690260224,2.18071695548762,9.45224260958208,1.97255521576623,16.7323320035405,-14.3591573224601,29.4336529869999,-6.19488956846754,7.5158732585797,0.256415222562027,2.01092569520476,-18.9304711325892,-96.8575947110322,-3.55125700597086,9.21266311793922,0.841114149535549,-5.88739715862388,10.7154706181453,-69.9089919351778,1152.63234794427,0.235282724193477,0.0156368765416085,-20.1732986450195,34.7983360290527,31.9635736685038,-0.0527689302216538,1.20666712466678,2.12307691574097,2.19430822978778,-8.95544351577759,1.07623720169067,-2.96400544169231,0.00904945386854774,-0.251259975956237,-0.725274741649628,-0.751621005144074,2.38556065239551,10.0959650016989,-0.311479782534829,3.95278396529956,-15.3256398316994,-44.1230918312128,-1.30308868501527,10.3927387020047,1.45372239211691,-5.55472705687904,-26.1048753476548,-44.7612434611528,-4.3099812980902,10.5891168722683,-0.494459247856451,-8.10507478974848,-22.2055381829342,-91.6677448222154,0,0,0
91.67,-22.5390840809315,-11.5779750018763,-7.04257435461281,0.0476644455450429,1.28873391526159,1.47839059621857,1.45882733174217,-54.7358992100489,-65.6155539200595,-66.6192683476943,0.871148276889737,6.97920114272713,5.12502427793678,5.01912004307103,2.22711422925428,9.57696330287399,2.01969814723942,16.9545943736869,-14.8990276023781,29.1459411826251,-6.40786103632577,7.53501690959008,0.37153525815309,2.76154817346135,-21.5280371727722,-95.9848883688709,-3.60539257942676,9.22857532218411,0.866207506001763,-6.79143890173634,9.77994543696504,-71.0582517506351,1156.88758769778,0.240186509760009,0.0156987537474705,-19.9051288069522,34.1964125100062,33.0840367815513,-0.055031325434017,1.07080835444576,2.07513818341673,2.15343971041835,-8.8775138859172,2.20484397491693,-1.37522797960428,0.00537859908460655,-0.183931408897669,-0.701305372362259,-0.7260709738005,2.37741608201481,10.2621311388443,-0.204085356958134,4.97579689564325,-14.5859106233814,-46.0201777132012,-1.02288577074572,10.6227686635456,1.480486598321,-5.711192061015,-29.7244918158566,-45.3565951330835,-4.46109040758862,10.6895132722896,-0.729784212323206,-3.0545632691379,-22.8763484021662,-81.7043479977311,0,0,0
91.675,-22.7883223405119,-8.98378288562325,-7.92313126568705,0.0500218811669433,1.40249936847118,1.2607796972537,1.24216003637683,-56.0854351158646,-63.6200224410868,-66.0126464965413,0.881615603803455,7.19194614400448,5.46244339894174,5.35168067298855,2.40511505152454,9.86065211336722,2.23107412368536,16.8996558482949,-13.7144156486119,27.9613292288588,-6.80001909788995,7.70745520616438,0.402129149480795,2.75124719995035,-22.1426619255958,-95.1917134085231,-3.60139591456,9.27453749863561,0.889521622003714,-7.07373704367172,9.63392924354322,-71.7299269830527,1161.89386082413,0.244712680336338,0.0148251490028564,-19.1938869106439,32.5999867963442,33.5589342593163,-0.0552569695314132,0.916185385891263,1.94799474651631,2.03233243232049,-8.67082838347606,5.1981426522064,0.168380771101359,0.00205390668030691,-0.109949100501945,-0.63773364562324,-0.660084807825669,2.34404092783914,10.6125702576889,0.0768221906871204,6.90894625787621,-12.4398744752542,-48.72590008876,-0.844884948475465,10.8953324226469,1.50829922680072,-5.92751250474621,-31.5477641273055,-44.9926274023611,-5.04327740128357,10.4876795745832,-1.3059761921404,8.80196015097839,-24.6966849573838,-63.9195617402786,0,0,0
91.68,-23.0375724849933,-6.38946706558326,-8.80373016602795,0.0523794292029214,1.51627024657482,1.04315842153526,1.02609404111491,-57.4350353741627,-61.6243958053986,-65.4059957186871,0.892083429850592,7.40470129000556,5.79987860974313,5.68626340875003,2.58312436174588,10.1443544515325,2.44246017957321,16.8447147031648,-12.5297472067453,26.7766607869922,-7.19219585947137,7.8799017254413,0.432724499675093,2.74094573523847,-22.7573159867382,-94.398500625708,-3.59739905911269,9.32050186678882,0.912836849736914,-7.35604864696525,9.48790608735409,-72.4016342442355,1166.9003726741,0.24923906674265,0.013951502600489,-18.4826110988382,31.0034849572847,34.0338543825192,-0.0554826243886253,0.761555044156252,1.82084524679405,1.91013764877611,-8.46413302525777,8.19158406463856,1.71206312863312,-0.00127094426161155,-0.0359632642673769,-0.574158887472904,-0.593339778711888,2.31066418217263,10.9630260871872,0.357743133380186,8.8421878021397,-10.2937359936117,-51.4317514864148,-0.666875638254119,11.1679091789233,1.5361131815228,-6.14384326369577,-33.3711233813089,-44.6286423158746,-5.62549215650605,10.2858362524575,-1.88219564761349,20.6590489482069,-26.5171083151647,-46.1339274171041,0,0,0
91.685,-23.2868107445737,-3.79527494933023,-9.68428707710218,0.0547368648248218,1.63003569978441,0.825547522570391,0.810658747489882,-58.7845712799784,-59.628864326426,-64.7993738675341,0.90255075676431,7.61744629128292,6.13729773074809,6.02272478662652,2.76112518401614,10.4280432620257,2.65383615601914,16.7897761777728,-11.3451352529791,25.592048833226,-7.58435392103554,8.0523400220156,0.463318391002798,2.73064476172747,-23.3719407395619,-93.6053256653602,-3.59340239424593,9.36646404324032,0.936150965738865,-7.63834678890063,9.34188989393227,-73.0733094766531,1171.90664580045,0.253765237318979,0.0130778978558749,-17.7713692025299,29.4070592436227,34.5087518602842,-0.0557082684860216,0.606932075601755,1.69370180989363,1.78683491244211,-8.25744752281662,11.184882741928,3.25567187933876,-0.00459563666591119,0.038019044128347,-0.510587160733886,-0.525937736611714,2.27728902799696,11.3134652060317,0.63865068102544,10.7753371643727,-8.14769984548455,-54.1374738619735,-0.488874815983861,11.4404729380247,1.56392581000252,-6.36016370742699,-35.1943956927578,-44.2646745851522,-6.207679150201,10.084002554751,-2.45838762743069,32.5155723683232,-28.3374448703822,-28.3491411596516,0,0,0
91.69,-23.3507060761341,-2.45213349855971,-9.22250620317499,0.0575049912713858,1.66943025880968,0.880785939492701,0.868684960103099,-59.4862048828333,-58.2611524265445,-63.8317872418987,0.909169093808512,7.81049074919317,6.36703793725841,6.25327584920884,3.14851724684382,10.6177175003962,2.57877660979345,16.315439891849,-9.06335744298171,24.2082220617955,-7.52929427922456,8.34543500079233,0.311976652052213,2.712360221754,-19.8021248054175,-93.1728688525125,-3.59252953529358,9.37650203704834,0.941242694854736,-7.69999980926514,9.3100004196167,-73.2200012207031,1173,0.254753738641739,0.012887105345726,-17.4409753004802,27.6605641204502,33.8096470687907,-0.0551940618877224,0.490199537999114,1.54604282795259,1.64188924686449,-8.14133736289364,11.0620315179577,4.57114906678721,-0.00605983092802559,0.0916713078368362,-0.432000075128514,-0.442965918280128,2.17258834715544,11.4289646611378,0.72381173736199,11.2830500107277,-6.87727034695849,-54.9341755080667,-0.0646827954149224,11.6082351698273,1.49423538112091,-6.45818440065969,-37.4953936028893,-44.3829482115362,-6.50643409208415,9.56035572145903,-2.54948995988787,38.3780308465976,-30.9927863190099,-26.3969977688509,0,0,0
91.695,-23.3628118453676,-1.45862328188878,-8.38569816511697,0.0603876977478737,1.68804284553608,1.01225633715845,1.0035281557624,-60.0067688065055,-57.068939635017,-62.7634044302882,0.91471160167144,7.99801900816008,6.56667814568479,6.45535555297156,3.59439054989173,10.7811120648671,2.42369024351591,15.7239508846617,-6.47516566008723,22.7688181772532,-7.3492833183667,8.67222412973428,0.109810496011851,2.69184615214056,-15.063374724715,-92.8412247270954,-3.59252953529358,9.37650203704834,0.941242694854736,-7.69999980926514,9.3100004196167,-73.2200012207031,1173,0.254753738641739,0.012887105345726,-17.2170122310078,25.87224546138,32.7825633065547,-0.054473168980267,0.384060881942174,1.39266071660061,1.49010336563397,-8.0505414525371,10.0685212104988,5.82280499771386,-0.00700410415027479,0.139639990717407,-0.349222423605482,-0.3553560535199,2.04796537425386,11.4788138502984,0.754275130737939,11.3924583819993,-5.85156686628697,-55.197439401439,0.428270297395804,11.7467051397179,1.39730640219746,-6.52314562110223,-39.929729863683,-44.6359550701019,-6.72597859276184,8.9468247670013,-2.50505046174225,42.5653624402873,-33.8812699754443,-28.8686865201106,0,0,0
91.7,-23.3749181918635,-0.465065689784327,-7.54885022395284,0.0632705416859265,1.70665631980178,1.14373300397672,1.13891501219219,-60.5273575532154,-55.8766699929439,-61.6949706729521,0.920254373828292,8.18555620939292,6.76632787393419,6.65892010652986,4.04028511436271,10.9445144207913,2.26859648196079,15.1324336723814,-3.88685045953109,21.3293456548831,-7.1692637737045,8.99902884158257,-0.0923653003010802,2.67133110431581,-10.3243986771974,-92.5095647872619,-3.59252953529358,9.37650203704834,0.941242694854736,-7.69999980926514,9.3100004196167,-73.2200012207031,1173,0.254753738641739,0.012887105345726,-16.9930384818791,24.0838415265165,31.7554305679341,-0.0537522416971067,0.277917164674224,1.23927129123827,1.33723103515783,-7.95974121258682,9.07496352760207,7.07452061372615,-0.00794842240009645,0.187610960979737,-0.266440824838564,-0.26739448829426,1.92333645871849,11.5286654165126,0.784739976757698,11.501871970398,-4.82581447504939,-55.4607158485233,0.921246896624574,11.885181712535,1.30037280122552,-6.58810993921394,-42.3641822055535,-44.8889739932738,-6.9455335623967,8.33326455638246,-2.46060884450369,46.7528937064577,-36.7698913689278,-31.3404931335969,0,0,0
91.705,-23.3849562072754,0.358745723962784,-6.61728168800071,0.06568893781478,1.70778152442022,1.27262656290502,1.27218786347631,-61.0558367881117,-54.8549848603612,-60.605450729835,0.925285389083571,8.36417845495632,6.96513541878729,6.86295160159877,4.4192296595871,11.0772311021239,2.14553779575223,14.7103431574351,-1.8569660836891,20.0714227448556,-6.99923326592907,9.2847674553393,-0.277074870236078,2.65546045180088,-6.19565550274838,-92.0984019357216,-3.60645581588846,9.38003884855936,0.946990052069286,-7.69999980926514,9.40045108533044,-74.0728215693819,1172.63081361652,0.255318483441711,0.0128591915481259,-16.778078749622,21.9718715829223,30.535095542572,-0.0530329829823741,0.178929136483396,1.09139729804626,1.18886359824002,-7.87436728481396,8.01937496108631,8.15044910184959,-0.0087933305186486,0.227964337432338,-0.183602724440483,-0.179113206156183,1.75862276374595,11.5607703404129,0.773081361651706,11.4000231518253,-3.98670328344081,-55.4750482634461,1.38999278731596,11.9986155510619,1.19692585103234,-6.49213577337034,-44.0289124318782,-45.1118692697841,-7.13199930591102,7.83889754752245,-2.41303890450129,49.2946488828066,-39.4395833234511,-34.6353112376011,0,0,0
91.71,-23.3849562072754,0.358745723962784,-5.22608191304641,0.0658532700220192,1.62403672829073,1.38897824565013,1.39329994920058,-61.6225830806809,-54.6611889676679,-59.4136522324826,0.927832626507517,8.49952822233967,7.15984639807503,7.06401743303531,4.47325008693862,11.0610249739184,2.17795005216315,15.1104944711501,-2.53722331700463,19.6946135911073,-6.87768730438813,9.37120013910174,-0.377012660836406,2.66212964036279,-5.0285475044129,-91.3014339025725,-3.68796517406745,9.40073951118778,0.980628854231249,-7.69999980926514,9.92985128367899,-79.0643079026623,1170.46999652246,0.258623887628205,0.0126958144201686,-16.6068739686821,18.2897480762124,28.3772149186964,-0.0523218560666842,0.114672131455286,0.970296550926492,1.06635968384293,-7.81533112680818,6.6628030682594,8.37323764261242,-0.00915576453831531,0.231347879429896,-0.100494373585292,-0.0903608543144138,1.39938692185829,11.5067499130614,0.556999652245591,10.2729302848613,-4.05339516905999,-54.281263510863,1.7411255651009,11.9905124869592,1.06187478265352,-5.61513747747824,-41.958129383403,-45.1885649382462,-7.15787532738864,7.9229944563313,-2.35028959427635,43.8493903621658,-41.0466912432307,-41.9240175628633,0,0,0
91.715,-23.3849562072754,0.358745723962784,-3.83481579887247,0.0660176100654231,1.54028793879915,1.50533547661339,1.51469321923721,-62.1893563984894,-54.4673838338372,-58.2217969043403,0.930379985396219,8.6348844438629,7.354566662136,7.2660348485443,4.52727309024873,11.0448180729254,2.21036385414921,15.5106648660398,-3.21751298831707,19.3177864692528,-6.75613554694039,9.45763694439791,-0.476955216960105,2.66879914694427,-3.86138385265134,-90.5044278660839,-3.76947841901189,9.42144116092518,1.01426926045607,-7.69999980926514,10.4592767264221,-84.0560322544603,1168.30907639005,0.261929449432562,0.0125324295015895,-16.4356610238596,14.607448987818,26.219231396503,-0.0516106952409797,0.0504120623384338,0.849190029129928,0.943073155789251,-7.75629215366921,5.30616648743988,8.59603680702413,-0.00951821584061136,0.23473158277131,-0.017382059716851,-0.00143847215313516,1.04013394984609,11.4527269097513,0.34090763900516,9.14578367258867,-4.12009023487494,-53.0874218327754,2.0922750866166,11.9824090364627,0.926817274378255,-4.73809736201169,-39.8872475898489,-45.2652642639334,-7.18375258276171,8.00709537529269,-2.28753729185693,38.4038721849269,-42.6538757977878,-49.2130714493445,0,0,0
91.72,-23.3849562072754,0.358745723962784,-2.44361602391817,0.0661819422726623,1.45654314266966,1.62168715935851,1.63623700678673,-62.7561026910586,-54.2735879411438,-57.029998406988,0.932927222820165,8.77023421124625,7.54927764142374,7.46878891003614,4.58129351760025,11.0286119447199,2.24277611056013,15.9108161797548,-3.8977702216326,18.9409773155045,-6.63458958539946,9.54406962816035,-0.576893007560433,2.67546833550618,-2.69427585431587,-89.7074598329348,-3.85098777719088,9.4421418235536,1.04790806261803,-7.69999980926514,10.9886769247707,-89.0475185877407,1166.14825929599,0.265234853619056,0.0123690523736322,-16.2644562429196,10.9253254811081,24.0613507726274,-0.0508995683252898,-0.0138449426896757,0.728089282010162,0.819178477779008,-7.69725599566343,3.94959459461297,8.81882534778695,-0.00988064986027808,0.238115124768868,0.0657262911383404,0.0876426147689373,0.680898107958431,11.3987064823998,0.124825929599045,8.01869080562468,-4.18678212049412,-51.8936370801923,2.44340786440153,11.97430597236,0.791766205999435,-3.86109906611959,-37.8164645413736,-45.3419599323954,-7.20962860423933,8.09119228410155,-2.22478798163198,32.9586136642861,-44.2609837175673,-56.5017777746067,0,0,0
91.725,-23.3934797388735,-0.0143202399201889,-1.43450206340548,0.0655566452619778,1.35426553344153,1.6949441661703,1.71471290746302,-63.2760424364579,-53.704272468869,-55.9998865996628,0.931644855800752,8.89351297703832,7.73959739903932,7.66769723243661,4.59310134116341,10.9225077374811,2.16770732481548,16.9419103520101,-5.58804268914576,18.4005208287408,-6.61939607967621,9.48340845964604,-0.610501547496229,2.60519104401862,-2.48651047682871,-88.6243733350577,-3.92107608970901,9.4805390548918,1.08695403404363,-6.77187349518919,11.7340635876837,-94.557170624828,1160.06039203238,0.268033664651394,0.0131365973997585,-16.1393840573343,8.5023107655833,21.6315568891992,-0.0504033881060442,-0.0805312539794194,0.61345455922945,0.7013248746205,-7.65167830678454,2.48257968505406,8.41592701865191,-0.0094991667787246,0.223094277174293,0.140744805929041,0.168826146448508,0.447103404491718,11.1893143401317,-0.0809927783509322,7.08916203985378,-4.93796788614661,-49.8309775532218,2.64819855567018,11.9323029918261,0.727799381001528,-3.20408923062149,-35.9168535516974,-45.6988637977978,-7.22337913513184,8.1358814239502,-2.19144296646118,30.0650005340576,-45.1150016784668,-60.375,0,0,0
91.73,-23.4116672623923,-0.810368909902873,-0.858739082756208,0.0640360488305025,1.23098391611798,1.71932853097888,1.74420913531254,-63.742855187412,-52.709212096372,-55.1532166508512,0.926020218782381,9.00309185266971,7.92491857158448,7.86195266311266,4.55704295955349,10.7144786128085,1.97077308679205,18.6883276949409,-8.42340261060996,17.6745591097186,-6.72479750284368,9.25596328333728,-0.568895722561706,2.44767104838172,-3.36656784375661,-87.2169664175193,-3.97820691126691,9.53899857402715,1.13212723871124,-4.79143628187146,12.7242821364782,-100.653811769688,1149.52024971563,0.270257763339313,0.0149596398760358,-16.0666344923043,7.50724999630221,18.8936869403895,-0.0501509871059067,-0.149965377913482,0.506163345805391,0.590599054518554,-7.62136585576066,0.890482361621366,7.30360138184362,-0.00827419258067578,0.187206162916394,0.206582597111941,0.241083313792504,0.355570589635759,10.8037670290718,-0.275153294712064,6.38374640721897,-6.46522697427829,-46.7833080724209,2.6870306589424,11.8518650636193,0.744441710975325,-2.7965918506043,-34.2115283815413,-46.3734603008514,-7.22337913513184,8.1358814239502,-2.19144296646118,30.0650005340576,-45.1150016784668,-60.375,0,0,0
91.735,-23.4298556531814,-1.60645553938534,-0.282948646907824,0.0625153798895412,1.10769642012306,1.7437140585534,1.7734667897672,-64.2096901982845,-51.7141042745224,-54.3065063286692,0.920395313553766,9.11267595355864,8.11024858115089,8.05636914311451,4.52098285850331,10.5064395682882,1.77382945797953,20.434828315605,-11.2588977359234,16.9485627732857,-6.83020395206729,9.02850726132845,-0.527287913657657,2.29014354141987,-4.24666717613046,-85.8094923879253,-4.03534045710222,9.59746088079872,1.17730259745852,-2.81090463160683,13.7145479037434,-106.750743632259,1138.97960479327,0.272481968083152,0.0167827692839079,-15.9938814582186,6.51214177764963,16.15568643653,-0.0498985740700533,-0.219402812806675,0.398867016210744,0.479874407009845,-7.59105195929064,-0.701690880810114,6.19122270390058,-0.00704915996985704,0.15131633733742,0.27242352776321,0.313689708132984,0.264033410046842,10.4182013332275,-0.469323069597652,5.67829713691154,-7.99255888960411,-43.7354932638111,2.72586461391952,11.7714232997381,0.761084834536931,-2.38907503911603,-32.5061218931282,-47.0480889719707,-7.22337913513184,8.1358814239502,-2.19144296646118,30.0650005340576,-45.1150016784668,-60.375,0,0,0
91.74,-23.4480431767003,-2.40250420936803,0.292814333741446,0.0609947834580659,0.984414802799509,1.76809842336198,1.80235779563346,-64.6765029492386,-50.7190439020254,-53.4598363798575,0.914770676535395,9.22225482919003,8.29556975369604,8.25074811668624,4.48492447689339,10.2984104436156,1.5768952199561,22.1812456585358,-14.0942576573876,16.2226010542634,-6.93560537523476,8.80106208501969,-0.485682088723135,2.13262354578297,-5.12672454305837,-84.4020854703869,-4.09247127866012,9.65592039993408,1.22247580212613,-0.830467418289101,14.7047664525379,-112.847384777119,1128.43946247652,0.274706066771071,0.0186058117601851,-15.9211318931885,5.51708100836854,13.4178164877202,-0.0496461730699158,-0.288836936740737,0.291575802786686,0.369387175441216,-7.56073950826676,-2.29378820424281,5.07889706709229,-0.00582418577180821,0.115428223079521,0.33826131894611,0.386755382619144,0.172500595190882,10.0326540221676,-0.663483585958785,4.97288150427673,-9.51981797773579,-40.6878237830102,2.76469671719174,11.6909853715314,0.777727164510728,-1.98157765909884,-30.8007967229722,-47.7226854750244,-7.22337913513184,8.1358814239502,-2.19144296646118,30.0650005340576,-45.1150016784668,-60.375,0,0,0
91.745,-23.4505270385742,-2.5112202167511,0.141690625269531,0.0575727482205124,0.893530653162018,1.77142858505249,1.80971601618338,-64.740255355835,-50.5831489562988,-52.9248537828782,0.909410669736366,9.30312932076876,8.32087898254395,8.28492473000792,4.28604971185752,10.0929149543047,1.5542163106118,23.6065664438135,-16.9618172919995,15.3895064243668,-6.97108155305896,8.40950544269164,-0.494757087141294,2.22042286771314,-5.14020448451636,-83.7257816211151,-4.23558877313419,9.42003393363631,1.11352620981952,3.32849250809681,15.2163058425226,-116.778989569881,1107.60497118575,0.276585032636805,0.0206380920373959,-15.9111965179443,5.38118600845337,11.5772043232771,-0.0549506072323611,-0.357304509732283,0.276923090219498,0.351991007075992,-7.5565997505188,-2.5112202167511,3.8429428556775,-0.00552518063101066,0.0772666344839344,0.347252756357193,0.403570918910231,0.457249898131458,10.1338953373305,-0.483400780022114,5.49077117554523,-12.0239419503715,-37.5726456145495,2.59080679899877,11.3026402002445,0.845352814482772,-1.12170371663939,-28.6913827462327,-49.3373714246291,-7.1112896955057,8.34996219714728,-2.42117578393887,21.9707381405634,-43.9713267816599,-61.5334319196124,0,0,0
91.75,-23.4505270385742,-2.5112202167511,-0.124390690554637,0.0538501663347718,0.80777557529405,1.77142858505249,1.81317027817637,-64.740255355835,-50.5831489562988,-52.4391978679313,0.904092813420825,9.37945939935775,8.32087898254395,8.29346534773296,4.0614345421736,9.88783153850631,1.55909924908319,24.9810231987231,-19.8343113433786,14.539513431199,-6.99549624541591,7.99201420338785,-0.511847371791155,2.34701756882324,-5.0166239429565,-83.1651479447704,-4.39229820010978,9.1376061035317,0.980206243040759,7.83178256979865,15.6521080638402,-120.367950463968,1085.14345421736,0.278409307792985,0.0227033535815384,-15.9111965179443,5.38118600845337,9.8786060149524,-0.0611336293930103,-0.425615429892354,0.276923090219498,0.349904393950775,-7.5565997505188,-2.5112202167511,2.58750353914554,-0.00537264524861318,0.0387475757693644,0.347252756357193,0.412133491906727,0.801497060364409,10.3121225915362,-0.244136794924025,6.20211282940197,-14.6824306736836,-34.4469621609502,2.38328191396472,10.8656172070551,0.92103836078931,-0.19032841561509,-26.5181737105093,-51.1006547615198,-6.98147814048031,8.59789062075651,-2.68723094824883,12.5967168983519,-42.6468289762182,-62.8750199351962,0,0,0
91.755,-23.4505270385742,-2.5112202167511,-0.390484694439262,0.050127406938093,0.722016408203924,1.77142858505249,1.81597786299018,-64.740255355835,-50.5831489562988,-51.9535187945316,0.898774703523846,9.45579311773876,8.32087898254395,8.30157363059432,3.83680866173818,9.68273834332615,1.56398242039699,26.3555454944632,-22.7069423693442,13.6894799062019,-7.01991210198499,7.57450305605681,-0.528938471389501,2.47361830658878,-4.8930375084711,-82.6044875346659,-4.54901509975844,8.85516480588477,0.846879918912951,12.3352873704286,16.0879310663424,-123.95708249729,1062.68086617382,0.28023366993954,0.0247687136074673,-15.9111965179443,5.38118600845337,8.17992670914025,-0.0673169463904417,-0.493929607451698,0.276923090219498,0.348652700559712,-7.5565997505188,-2.5112202167511,1.33200435711758,-0.00522010259258151,0.000226680277401116,0.347252756357193,0.421574723145686,1.14576063798824,10.4903583444904,-0.00486140054716469,6.91348840351305,-17.3410461667597,-31.3211296594536,2.17574713312766,10.4285733744688,0.996727516153417,0.741091297945615,-24.3448610455344,-52.8640221803968,-6.85166039540414,8.84583086680739,-2.95329879937221,3.2222486568917,-41.3222680122335,-64.216671924268,0,0,0
91.76,-23.4505270385742,-2.5112202167511,-0.65656601026343,0.0464048250523524,0.636261330335956,1.77142858505249,1.81809163402818,-64.740255355835,-50.5831489562988,-51.4678628795848,0.893456847208305,9.53212319632775,8.32087898254395,8.30917867278736,3.61219349205426,9.4776549275278,1.56886535886838,27.7300022493728,-25.5794364207233,12.8394869130341,-7.04432679434194,7.15701181675301,-0.546028756039362,2.60021300769888,-4.76945696691124,-82.0438538583211,-4.70572452673403,8.57273697578017,0.713559952134185,16.8385774321305,16.5237332876601,-127.546043391377,1040.21934920543,0.28205794509572,0.0268339751516097,-15.9111965179443,5.38118600845337,6.48132840081551,-0.0734999685510908,-0.562240527611768,0.276923090219498,0.348378109872631,-7.5565997505188,-2.5112202167511,0.076565040585627,-0.00506756721018402,-0.0382923784371689,0.347252756357193,0.432021064213946,1.4900078002212,10.6685855986961,0.234402584550925,7.62483005736979,-19.9995348900718,-28.1954462058542,1.96822224809362,9.99155038127946,1.07241306245996,1.67246659896991,-22.171652009811,-54.6273055172874,-6.72184884037875,9.09375929041662,-3.21935396368217,-6.15177258531986,-39.9977702067918,-65.5582599398518,0,0,0
91.765,-23.6448206253317,-5.5483718795571,-1.57871339708296,0.0448083137635737,0.582877513003414,1.62257534368328,1.67063911662381,-65.572942156224,-50.7350064713162,-51.1743710174545,0.889293541491242,9.58438476419976,8.52183085839238,8.51719792858863,3.26580550588978,9.37920382835507,1.71815550063104,28.4413284849146,-27.1745185665612,12.5635861548689,-7.06481555006311,6.9541746424064,-0.486504785443846,2.98238082160831,-5.14575136856814,-81.4066637191812,-4.84909637358242,8.42093539096299,0.659769750920743,17.8035146550918,16.1360869609512,-128.224441477969,1023.14755994952,0.284060536056669,0.0280253673588681,-15.8418059512452,4.47004051465771,5.49858914150703,-0.0695816413915545,-0.623649887759538,0.167143815248181,0.239398976872015,-7.72776301381264,-5.39651436453977,-1.31047794131282,-0.00895196956273244,-0.0666294129623553,0.311900108378164,0.408220304952881,1.63984473601177,10.7692622002524,0.258252392721932,7.69083052867761,-21.8009601725902,-27.774853502184,2.04487392196047,10.220175115692,0.850834691838428,3.12743751850296,-21.5177272744979,-54.6633820707188,-5.1871829403895,11.8678880125146,-1.00617539656039,-59.754774854797,-17.733353077939,-51.8693073553797,1.9048564366849,0,0
91.77,-23.8979127930371,-9.50464913408873,-2.69938788599414,0.0438554411188278,0.539295455805444,1.42867501914426,1.47743592427529,-66.6576228749617,-50.9328202453039,-50.9390634475931,0.885479964848786,9.62935779773475,8.78359629652006,8.78549454415458,2.8825796697518,9.31303533866218,1.91114692890197,28.9518878189646,-28.3828423238131,12.4614742880589,-7.08411469289021,6.81632362221288,-0.40379417332773,3.44188422225338,-5.67332934708655,-80.7463403138098,-4.98842216789296,8.30868244238847,0.630055724488408,17.6973693064396,15.4992153948979,-128.021800310009,1007.70824568784,0.286116976966415,0.0289521743949455,-15.7514158913504,3.28315734487148,4.73259402066154,-0.0626059841549882,-0.682966402929353,0.0241423135758117,0.0983182550241724,-7.95072498626653,-9.15497784508368,-2.73726982800965,-0.0140580697337813,-0.0918826944029159,0.265848777191866,0.374888502838285,1.73082640933949,10.8464587715608,0.216897086663866,7.56148883071827,-23.3428493614214,-28.173089782743,2.20753812578881,10.6502702986958,0.539291386201071,4.74080501410121,-21.3237147275589,-54.1766488389245,-3.22737755613981,15.4064989959838,1.95730398394729,-126.742100470047,10.8679770545695,-33.6316166262099,4.38617480016828,0,0
91.775,-24.1510170294168,-13.4611150432985,-3.82011581415423,0.0429025230364469,0.495711320401513,1.234765448488,1.28355742014161,-67.742355316589,-51.1306434520213,-50.7037446571142,0.881666206356316,9.67433297580427,9.045374216906,9.05330166283209,2.49933555952883,9.24686369373159,2.1041475599495,29.4624714989846,-29.5912236998603,12.3593575520549,-7.10341475599496,6.67846602860749,-0.321079617164496,3.90140953427134,-6.20093248310716,-80.085985420984,-5.12775460593982,8.19642414104352,0.600340281145747,17.5912188962572,14.8623134596888,-127.819149479126,992.268195204039,0.288173515937335,0.029879025625722,-15.6610215212148,2.09621757868212,3.96656237341669,-0.0556299942849168,-0.742285746601156,-0.118866007108606,-0.0416597697450941,-8.17369759063937,-12.913620547576,-4.16412975113233,-0.019164413388697,-0.117137180043631,0.219795250052529,0.34273414361809,1.82181242111904,10.9236590239798,0.175539808582241,7.43214096511322,-24.8848120750817,-28.5713450531586,2.37021008624316,11.0803859907446,0.227733224652902,6.35424944296423,-21.1296929291513,-53.6898923973054,-1.26747871876989,18.9452787177574,4.92092467766752,-193.732620369099,39.4706710385935,-15.3930562346144,6.86761148506521,0,0
91.78,-24.3685186767578,-16.8610496520996,-5.03115923877969,0.0421244257248196,0.460724626499058,1.06813192367554,1.11635253849682,-68.6745052337646,-51.3006401062012,-50.5106819742143,0.877920961691438,9.71086957442508,9.27032947540283,9.28384570777396,2.18360917139285,9.20611612401783,2.24421420157146,29.8579045225309,-30.4651523145506,12.3900993480597,-7.11462795866073,6.61551109383919,-0.210246894089357,4.42628643240718,-6.7838689804451,-79.4716513265874,-5.24748802185059,8.09995651245117,0.574804723262787,17.5,14.3150005340576,-127.645004272461,979,0.289940774440765,0.0306755024939775,-15.5833423614502,1.07623720169067,3.25722607960408,-0.0470092253041706,-0.795852055438503,-0.241758242249489,-0.160483482672091,-8.36530603408814,-16.1435585021973,-5.61769561074684,-0.024425357167935,-0.138833003598924,0.180219784379005,0.318188886746942,1.92614393451779,10.9964464496071,0.120660651178594,7.25952973282642,-26.0047220426811,-28.6186706524035,2.55190192244634,11.4732788458035,-0.082618194624943,7.74693074722223,-20.2657029471574,-53.3755086184963,0.415189477047316,21.6501309820685,7.11471015870229,-248.6952794274,63.868248822504,3.91132098774976,10.4325443571403,0,0
91.785,-24.3685186767578,-16.8610496520996,-6.79455156836398,0.0424144334770141,0.478266960757231,1.06813192367554,1.11526536895081,-68.6745052337646,-51.3006401062012,-50.5757903690035,0.874593150378948,9.69584851206727,9.27032947540283,9.28907573035648,2.28039165442116,9.32072695918292,2.0608368653073,29.549760164611,-29.2954614865281,13.2327798370652,-7.07642434693904,7.01028174829676,0.0724598326512311,5.35071950616685,-7.70515772402191,-79.1383523272047,-5.24748802185059,8.09995651245117,0.574804723262787,17.5,14.3150005340576,-127.645004272461,979,0.289940774440765,0.0306755024939775,-15.5833423614502,1.07623720169067,2.89412726400846,-0.0283339192255739,-0.814278443123695,-0.241758242249489,-0.155508978158032,-8.36530603408814,-16.1435585021973,-7.23496033550732,-0.0306328809350724,-0.138788402508602,0.180219784379005,0.334232343376353,2.11206817823007,11.0422907836732,-0.016872351019519,6.82246783740943,-24.5457528378359,-26.5214024204385,2.84989009387561,11.6388278299309,-0.385700180950435,7.79095136978221,-15.3070942487934,-54.1144262114674,0.40420967223132,19.2595828441671,4.60460400951107,-230.171622645427,62.5756921267047,29.7356898348462,20.6201741495938,0,0
91.79,-24.3685186767578,-16.8610496520996,-8.55785981477406,0.0427044274008778,0.495808458550867,1.06813192367554,1.11376781605519,-68.6745052337646,-51.3006401062012,-50.6408956592536,0.871265497745234,9.68082816595314,9.27032947540283,9.29404019827481,2.37716952260667,9.43533232940261,1.8774682729558,29.2416304998228,-28.1258264324341,14.0754201448533,-7.03822255686581,7.40503357905348,0.355153079193139,6.27510850053143,-8.62640253813355,-78.8050692203929,-5.24748802185059,8.09995651245117,0.574804723262787,17.5,14.3150005340576,-127.645004272461,979,0.289940774440765,0.0306755024939775,-15.5833423614502,1.07623720169067,2.53104576191731,-0.00965950363458345,-0.832703952190363,-0.241758242249489,-0.149820022741085,-8.36530603408814,-16.1435585021973,-8.85214794484129,-0.0368401087111853,-0.138743803544977,0.180219784379005,0.351095966685801,2.29798355658646,11.0881329317611,-0.154398795283139,6.38542678225066,-23.0868532004714,-24.4242341917271,3.14786405644681,11.8043689202482,-0.688767715531394,7.83496989332337,-10.3487219899058,-54.8533085709085,0.393230390961233,16.8691486938748,2.09461754876869,-211.648849120025,61.283197063401,55.5588273082613,30.8073181691218,0,0
91.795,-24.3685186767578,-16.8610496520996,-10.3212521443584,0.0429944351530723,0.51335079280904,1.06813192367554,1.11197918842174,-68.6745052337646,-51.3006401062012,-50.7060040540428,0.867937686432744,9.66580710359533,9.27032947540283,9.29883470028421,2.47395200563498,9.54994316456771,1.69409093669165,28.9334861419029,-26.9561356044117,14.9181006338587,-7.00001894514411,7.79980423351106,0.637859805933727,7.1995415742911,-9.54769128171036,-78.4717702210102,-5.24748802185059,8.09995651245117,0.574804723262787,17.5,14.3150005340576,-127.645004272461,979,0.289940774440765,0.0306755024939775,-15.5833423614502,1.07623720169067,2.16794694632169,0.00901580244401325,-0.851130339875555,-0.241758242249489,-0.143663306048126,-8.36530603408814,-16.1435585021973,-10.4694126696018,-0.0430476324783227,-0.138699202454655,0.180219784379005,0.368508305699502,2.48390780029874,11.1339772658271,-0.291931797481252,5.94836488683368,-21.6278839956262,-22.3269659597621,3.44585222787608,11.9699179043756,-0.991849701856886,7.87899051588334,-5.39011329154187,-55.5922261638797,0.382250586145236,14.4786005559734,-0.415488600422532,-193.125192338053,59.9906403676017,81.3831961553577,40.9949479615754,0,0
91.8,-24.448570380382,-16.9823340155181,-12.019780522469,0.0430325906838018,0.539155846667212,1.03395250016577,1.07584773991276,-68.8912599412893,-51.1389276216432,-50.753314865697,0.866084748880084,9.64033549766281,9.28717153456149,9.32038995016357,2.55507118576035,9.69127532268786,1.55957890643621,28.5605784742189,-25.767130305211,15.9280648669643,-7.04550432132063,8.09760376814141,0.922544624377531,8.25357043801368,-11.0194135380473,-77.888492754283,-5.25612488294922,8.10508466720031,0.569271731602592,17.5749408519372,14.1670908956448,-127.93096263088,976.577100136727,0.290138486779084,0.0310240384371929,-15.5956578428194,0.429386967909626,1.71780436846155,0.0279288027251124,-0.862390959646078,-0.265039877640602,-0.160615792198481,-8.46998886165939,-17.1542619605743,-12.174207295066,-0.052720188509089,-0.136565471300359,0.165359166392609,0.371259235833253,2.64408662711205,11.2376158101379,-0.489590948432638,6.04388452877561,-20.3187026792977,-19.9242473868356,3.68507118576034,12.1862101579258,-1.31339283250337,8.54591328616574,-2.72579835138006,-56.6430893791481,0.0868522129916739,12.4127517714598,-2.26786311750654,-170.472450216823,54.1373690170931,106.408109761408,54.1275322687874,0.00789415603810245,0.0171647065243969
91.805,-24.8223113261537,-17.5485797122261,-13.4807322024594,0.0421468293396446,0.595278612311279,0.874377506878425,0.914287519986036,-69.9032322757077,-50.3839333593659,-50.735345387576,0.869642005394808,9.57652017419384,9.36580280452483,9.40372584398421,2.5787472560555,9.93066670011665,1.60430037254928,27.950002175798,-24.5070047531507,17.5519380010627,-7.3980147012707,8.03972892964213,1.21454949135111,9.78325893033436,-14.5107407763588,-76.3880339783761,-5.29644818013542,8.12902671114485,0.543439607582647,17.9248205373396,13.4765385944888,-129.266029125261,965.265199884598,0.291061555158251,0.0326512636823205,-15.6531556779207,-2.59059146104321,0.948239639903482,0.0477179997478234,-0.847366310305724,-0.373735883300089,-0.263145424706606,-8.95872623027567,-21.8729781068527,-14.2004867888123,-0.0751064442790296,-0.126767245921799,0.095978738874643,0.319265973147534,2.70985348904303,11.5532967474066,-0.907868190313707,8.09321242400775,-19.5587300525397,-16.4004426858422,3.70874725605549,12.5887033529434,-1.70273265513479,11.4981146439566,-8.47755699235652,-58.8385658564491,-1.25200764413515,11.5376097535742,-1.70774716464897,-132.667025538216,31.5517134131772,128.505775370218,78.0666700116657,0.044749953106465,0.0973023345808642
91.81,-25.1960344509763,-18.1147984088531,-14.9416142204395,0.041261110230913,0.651398701874589,0.714810122545553,0.752828489884834,-70.9151563566293,-49.6289750971965,-50.7173767662869,0.873199092290206,9.51270789360697,9.44443032514286,9.48709807903431,2.60242219741348,10.1700466627363,1.64901970622548,27.3394549912573,-23.2469392871838,19.1757337046282,-7.75050827260071,7.98185685076705,1.50654043476627,11.3128744830931,-18.0019015390247,-74.8876467482816,-5.33676955460099,8.1529676134699,0.517608715306169,18.2746835395603,12.7860192206789,-130.601031960167,953.95383901356,0.291984579523096,0.0342784113370778,-15.7106507713743,-5.61042588949876,0.178711606211357,0.0675062531696845,-0.832342377380081,-0.482426706048758,-0.366196965539728,-9.44744029461154,-26.5914692523612,-16.2266696642344,-0.0974916326135434,-0.116969487748341,0.0266016195975465,0.266561724575652,2.77561721503744,11.8689626321797,-1.32612548763813,10.1424426019075,-18.798793663271,-12.8768060091049,3.73242219741347,12.9911773560292,-2.09205391302166,14.4501752330388,-14.2290413743858,-61.0339376476697,-2.59080366091022,10.6625094647567,-1.14765791959002,-94.8634035214764,8.96713475259548,150.602387304339,102.004666273629,0.081603992793697,0.177436141464909
91.815,-25.569775396748,-18.6810441055611,-16.4025659004298,0.0403753488867558,0.707521467518656,0.555235129258204,0.591573083646281,-71.9271286910477,-48.8739808349192,-50.6994072881659,0.876756348804931,9.448892570138,9.52306159510621,9.57053184704646,2.62609826770862,10.4094380401651,1.69374117233856,26.7288786928363,-21.9868137351235,20.7996068387266,-8.10301865255078,7.92398201226777,1.79854530173984,12.8425629754138,-21.4932287773362,-73.3871879723746,-5.3770928517872,8.17690965741444,0.491776591286223,18.6245632249627,12.0954669195229,-131.936098454548,942.64193876143,0.292907647902263,0.0359056365822054,-15.7681486064756,-8.6304043184516,-0.59085312234671,0.0872954501923954,-0.817317728039727,-0.591122711708245,-0.470161716486944,-9.93617766322782,-31.3101853986396,-18.2529491579806,-0.119877888383484,-0.107171262369781,-0.0427788079204196,0.212595234003886,2.84138407696842,12.1846435694485,-1.7444027295192,12.1917704971396,-18.038821036513,-9.35300130811141,3.75609826770862,13.3936705510468,-2.48139373565308,17.4023765908296,-19.9808000153622,-63.2294141249707,-3.92966351803704,9.78736744687109,-0.58754196673244,-57.0579788428695,-13.6185208513204,172.700052913149,125.943804016508,0.11845978986206,0.257573769521376
91.82,-25.7892225646973,-19.0135231018066,-17.471134573604,0.03820968608977,0.757186364123432,0.461538463830948,0.496510575956985,-72.5213222503662,-48.4306755065918,-50.5757567277649,0.869059263219697,9.38252605497297,9.5692310333252,9.62154324728097,2.77131473119796,10.6874223931142,1.57748788862238,25.6339321228634,-20.828425634138,22.0132275754424,-8.45251211137764,7.83197721179623,1.98934092940128,14.331399403417,-23.5645741260442,-71.8790692806222,-5.46123152932299,8.2355827816028,0.491724473087094,19.1399637737187,11.4334778303845,-133.015713727551,931.113870467052,0.293910824638853,0.0375495712711698,-15.8019092559814,-10.4036264419556,-1.57750139268453,0.106219504994651,-0.797929426493025,-0.654945075511932,-0.530544590080881,-10.223146572113,-34.0808448791504,-20.348379502084,-0.134997627277722,-0.10550610178716,-0.0835164859890938,0.185428488635337,2.89425121113776,12.3506590705988,-1.98898205634731,13.8261168800928,-17.4694339778218,-5.75075153544338,4.01532442030006,13.609641126946,-2.40258101688536,18.7060040379969,-25.315995322102,-64.9759648019529,-4.51612180932592,9.34397375088555,-0.378123892649302,-32.8719565867368,-24.6318724101711,178.723974446531,149.466875970086,0.137435483053028,0.30451588244624
91.825,-25.7892225646973,-19.0135231018066,-17.9816882557579,0.0342231994331412,0.797671113511709,0.461538463830948,0.495543985683624,-72.5213222503662,-48.4306755065918,-50.3017676554366,0.845352744146595,9.31252297505566,9.5692310333252,9.62636760392056,3.0894310004233,11.0203347678849,1.2322454258972,23.8498749521671,-19.814618402326,22.6434320708931,-8.79775457410281,7.69141420911527,2.03619526362827,15.7622984993679,-23.6163300507914,-70.359880665985,-5.60770435636812,8.3436653080375,0.528342672499071,19.8908661489602,10.8120415197716,-133.732091536678,919.276986030761,0.29502806600407,0.0392174639162501,-15.8019092559814,-10.4036264419556,-2.87305036554589,0.123915139183774,-0.772331883688323,-0.654945075511932,-0.528768704044329,-10.223146572113,-34.0808448791504,-22.5424143282991,-0.139782981388721,-0.115409486282118,-0.0835164859890938,0.196551623890539,2.92877545741027,12.3038047363718,-1.98651603875642,14.8703687735208,-17.1710762939852,-2.03650281829421,4.60963465970555,13.5603207751282,-1.65784370443534,17.6647966107305,-30.0592736018712,-66.0841504847745,-4.03240724356994,9.51466177399231,-0.667525763253051,-28.0558240623926,-19.1856723160966,161.884772424028,172.400839565401,0.130980123517528,0.304245031155135
91.83,-25.7892225646973,-19.0135231018066,-18.4922419379118,0.0302367127765125,0.838155862899987,0.461538463830948,0.495039416285151,-72.5213222503662,-48.4306755065918,-50.0277785831082,0.821646225073493,9.24251989513836,9.5692310333252,9.63107843073498,3.40754726964865,11.3532471426556,0.887002963172012,22.0658177814709,-18.8008111705139,23.2736365663439,-9.14299703682798,7.55085120643431,2.08304959785525,17.1931975953188,-23.6680859755386,-68.8406920513477,-5.75417718341325,8.4517478344722,0.564960871911047,20.6417685242017,10.1906052091587,-134.448469345805,907.440101594469,0.296145307369287,0.0408853565613303,-15.8019092559814,-10.4036264419556,-4.16859933840725,0.141610773372897,-0.746734340883621,-0.654945075511932,-0.529001311223341,-10.223146572113,-34.0808448791504,-24.7364491545143,-0.14456833549972,-0.125312870777076,-0.0835164859890938,0.204623030353612,2.96329970368279,12.2569504021448,-1.98405002116553,15.9146206669489,-16.8727186101487,1.67774589885497,5.20394489911105,13.5110004233103,-0.913106391985315,16.6235891834641,-34.8025518816404,-67.192336167596,-3.54869267781396,9.68534979709907,-0.9569276338568,-23.2396915380484,-13.739472222022,145.045570401525,195.334803160717,0.124524763982028,0.303974179864031
91.835,-25.7892225646973,-19.0135231018066,-19.0027712755262,0.0262504162060299,0.878638681869163,0.461538463830948,0.49503569811755,-72.5213222503662,-48.4306755065918,-49.7538025752979,0.797940836389437,9.17252015315162,9.5692310333252,9.63554353656892,3.7256483702554,11.6861436432905,0.541776962513521,20.2818456793027,-17.7870522796914,23.9038110119903,-9.48822303748646,7.41029490616621,2.12990169794462,18.6240284622455,-23.7198394324274,-67.3215758756106,-5.90064302624957,8.55982520724839,0.601577325271173,21.3926350944472,9.56919853026003,-135.164812996159,895.603781571892,0.297262495461504,0.042553169676912,-15.8019092559814,-10.4036264419556,-5.46408653609347,0.15930556378774,-0.721138018636939,-0.654945075511932,-0.531545527258865,-10.223146572113,-34.0808448791504,-26.9303793633907,-0.149353461432476,-0.135215783052671,-0.0835164859890938,0.209063299761391,2.99782230374863,12.2100983020554,-1.98158412116083,16.958822767706,-16.5743751527895,5.39181751087744,5.79822680024458,13.4616824232162,-0.168404590564879,15.5824314037004,-39.5456039894527,-68.3004690092159,-3.06500117683796,9.85602968135292,-1.24631570501984,-18.4237886595427,-8.29353181706127,128.207171316368,218.267673204459,0.118069712255012,0.303703341487826
91.84,-25.8567728752361,-18.7801066177142,-19.3074256400939,0.0222441941093314,0.902778736128585,0.46582844166063,0.499836928658441,-72.6973091653993,-48.1389045912239,-49.4398946684013,0.775322406354317,9.11191835986627,9.57280599343929,9.64317447803144,3.97229201006333,11.8682809924525,0.32894638674416,18.4761194061822,-17.1418269719938,24.2654663714928,-9.67096122147999,7.40946386744165,2.09737529279086,19.8514636061121,-22.5913614519641,-65.7904206655978,-6.03447121265415,8.58542780869127,0.61029618377645,22.0116357496402,9.1358411388839,-135.471284859218,884.177452936584,0.298054114214212,0.0438093793738177,-15.8605716127012,-11.5707094053595,-6.83438038058536,0.174266959437289,-0.703830124953267,-0.658520055016795,-0.540223702145043,-10.3600250166437,-34.8978028837263,-28.9744474027054,-0.14849640163807,-0.163379276838845,-0.0785115142278144,0.214347204585524,3.01512015268498,12.1547874555392,-1.97430684479919,17.6085438696265,-16.0764704874332,9.4385323989731,6.23937147566584,13.4234935369133,0.47428819293832,14.2247787534795,-39.7640885007503,-68.5444426237058,-2.7542724609375,9.96567630767822,-1.43222177028656,-15.3299999237061,-4.79500007629395,117.389999389648,233,0.113922916352749,0.303529351949692
91.845,-26.0456525502106,-18.1274430059938,-19.2422330324949,0.0182027146170219,0.897559608224796,0.477823791669465,0.512848310943893,-73.1893920447537,-47.3230742090665,-49.0543002766269,0.754659459698997,9.06820586880735,9.58280205857964,9.65662983042638,4.09054610913508,11.7795904181487,0.353961676932417,16.631557604422,-17.1586722852519,24.1447416264766,-9.56180359156762,7.6596167693242,1.92226826147308,20.713382134484,-19.3430235453637,-64.2378442936445,-6.14558095430742,8.462880313867,0.568902360049324,22.3936875237341,9.04032819536043,-135.041476830239,873.48910167433,0.298260818065503,0.0443260720752437,-16.0245993837372,-14.8340289820985,-8.33886420533345,0.184316454330345,-0.701412766935534,-0.668516174376326,-0.558061126185636,-10.7427553980107,-37.1821263922546,-30.7490504798366,-0.137504585969462,-0.224339889373916,-0.064516945853709,0.224002848332826,3.00147544894593,12.0842898195541,-1.9583880237703,17.5495852732233,-15.2201670634806,14.0822237537847,6.40538203782425,13.4053005985946,0.933659885486246,12.2987979376386,-31.8552139260802,-67.2361232939947,-2.7542724609375,9.96567630767822,-1.43222177028656,-15.3299999237061,-4.79500007629395,117.389999389648,233,0.113922916352749,0.303529351949692
91.85,-26.2345412318932,-17.4747482720755,-19.1770373161931,0.0141610424071742,0.892340231447424,0.489819713675343,0.526331958363948,-73.6814983890302,-46.5072049241204,-48.6686874978231,0.733995527733169,9.02449129332275,9.59279860038134,9.66928564349207,4.20880584714149,11.6908956146439,0.37897815997224,14.7869078449202,-17.175518401777,24.0240111247131,-9.45264075648478,7.9097815997224,1.74715288019433,21.5753417633532,-16.0945307421009,-62.6851938872449,-6.25669599421742,8.34032697537792,0.527506562461927,22.7757575159279,8.94481069731197,-134.611648305908,862.800240739134,0.298467531773446,0.0448427894151085,-16.1886349764207,-18.0975041698994,-9.84341977123956,0.194366428432543,-0.69899529364633,-0.678512770399791,-0.578737598723941,-11.1255040298369,-39.4665588285169,-32.5237381787349,-0.126512246157243,-0.28530340880959,-0.0505217101500355,0.228681377102167,2.98783009456058,12.0137888218964,-1.94246844365405,17.4906238653853,-14.3638228067864,18.7261365425458,6.57140051617942,13.3871067927475,1.39305348312656,10.3727252815987,-23.9459622175312,-65.9277415772095,-2.7542724609375,9.96567630767822,-1.43222177028656,-15.3299999237061,-4.79500007629395,117.389999389648,233,0.113922916352749,0.303529351949692
91.855,-26.4234209068678,-16.8220846603551,-19.1118447085941,0.0101195629148647,0.887121103543635,0.501815063684178,0.540232984716227,-74.1735812683847,-45.691374541963,-48.2830931060487,0.713332581077849,8.98077880226384,9.60279466552169,9.68093100426542,4.32705994621323,11.6022050403401,0.403993450160496,12.9423460431601,-17.1923637150351,23.9032863796968,-9.3434831265724,8.15993450160494,1.57204584887655,22.4372602917252,-12.8461928355005,-61.1326175152915,-6.36780573587069,8.21777948055365,0.486112738734801,23.1578092900218,8.8492977537885,-134.181840276929,852.11188947688,0.298674235624737,0.0453594821165344,-16.3526627474567,-21.3608237466384,-11.3479035959877,0.204415923325599,-0.696577935628598,-0.688508889759322,-0.602266124655138,-11.5082344112039,-41.7508823370452,-34.2983412558661,-0.115520430488635,-0.346264021344662,-0.0365271417759301,0.22813818181841,2.97418539082153,11.9432911859113,-1.92654962262516,17.431665268982,-13.5075193828339,23.3698278973575,6.73741107833784,13.3689138544288,1.85242517567449,8.4467444657578,-16.0370876428611,-64.6194222474983,-2.7542724609375,9.96567630767822,-1.43222177028656,-15.3299999237061,-4.79500007629395,117.389999389648,233,0.113922916352749,0.303529351949692
91.86,-26.6123095885504,-16.1693899264368,-19.0466489922923,0.00607789070501701,0.881901726766263,0.513810985690057,0.554480998594945,-74.6656876126611,-44.8755052570169,-47.8974803272449,0.692668649112021,8.93706422677924,9.61279120732338,9.69135946103081,4.44531968421965,11.5135102368352,0.429009933200319,11.0976962836582,-17.2092098315603,23.7825558779334,-9.23432029148956,8.41009933200314,1.3969304675978,23.2992199205944,-9.59770003223776,-59.579967108892,-6.47892077578069,8.09522614206456,0.444716941147404,23.5398792822156,8.75378025574005,-133.752011752598,841.423028541685,0.298880949332681,0.0458761994563993,-16.5166983401402,-24.6242989344393,-12.8524591618938,0.214465897427796,-0.694160462339394,-0.698505485782787,-0.628570283451689,-11.8909830430301,-44.0353147733074,-36.0730289547644,-0.104528090676416,-0.407227540780336,-0.0225319060722565,0.222263966365736,2.96054003643617,11.8727901882537,-1.91063004250892,17.3727038611441,-12.6511751261397,28.0137406861186,6.90342955669301,13.3507200485816,2.31181877331481,6.52067180971783,-8.12783593431206,-63.3110405307132,-2.7542724609375,9.96567630767822,-1.43222177028656,-15.3299999237061,-4.79500007629395,117.389999389648,233,0.113922916352749,0.303529351949692
91.865,-26.7809384045391,-16.1435585021973,-18.6186655962731,0.00376381876598781,0.835435231614647,0.586049252028982,0.629231738338923,-75.1743790746984,-43.7096123822863,-47.1822744755931,0.671979007455713,8.89823219023573,9.5506830722546,9.62826975314449,4.53426425405623,11.3335717180697,0.0429110829291248,9.95513350368426,-17.6747603522393,24.4767289591857,-8.90874253141058,8.49899773817775,0.981845019415047,23.0114906963129,-7.96720349637401,-57.626473925126,-6.48331832885742,8.09037590026855,0.443078637123108,23.5550003051758,8.75,-133.735000610352,841,0.298889130353928,0.0458966493606567,-16.7879430054212,-24.3755877601031,-14.7695261075666,0.220274115260882,-0.717308120466095,-0.728995491502886,-0.677972776503109,-12.568012919862,-51.3052180244575,-38.891619896626,-0.0935353436046427,-0.552694259961638,0.00580140268010156,0.225429094524726,3.10482918665915,11.532942983775,-1.74673800776605,14.0739215427071,-13.2902276462053,31.2631632552098,5.82509772902587,12.920778955901,2.68812307973903,4.10377072065987,6.92167683784558,-66.5979702513797,-2.91446276256679,9.98018190813898,-1.37861477834798,-14.5097401358978,-4.81343292707162,95.3904464182843,305.677919123511,0.071512577794521,0.270403763975287
91.87,-26.9487406945506,-16.1435585021973,-18.1757106617225,0.00152082543044604,0.787266657383253,0.660773660270631,0.706632019728447,-75.6837792572163,-42.5292373332648,-46.4534507570869,0.651287279076563,8.85959943254057,9.48560045776882,9.56061515563962,4.62200517735038,11.1498641599226,-0.360148783453405,8.84144663008176,-18.1588248596106,25.2045182534852,-8.57423026135161,8.58125485376602,0.556849922208983,22.6763691142866,-6.40330278025135,-55.6563652307896,-6.48331832885742,8.09037590026855,0.443078637123108,23.5550003051758,8.75,-133.735000610352,841,0.298889130353928,0.0458966493606567,-17.0636191673967,-23.9821288874526,-16.7036876122064,0.225907820930444,-0.741510453471568,-0.760331533668739,-0.730565067633798,-13.2572035862889,-58.780930852074,-41.7533694841657,-0.0825420339603803,-0.701650533907255,0.0347269826175627,0.22406949701598,3.25563389857098,11.1819792905984,-1.57673996888362,10.6414641268015,-13.990936408624,34.4552809506723,4.69543334161363,12.4738486278714,3.06102200373919,1.66652285137779,22.2661832148673,-70.0744335315918,-3.08126237558349,9.99528599695597,-1.32279600892562,-13.6556371484635,-4.83262630111011,72.4832111809352,381.354465464719,0.0273524258535471,0.235911443286185
91.875,-27.1165349833084,-16.1435585021973,-17.7327768484257,-0.000722060953286868,0.739100379955895,0.735494505456385,0.78408785680758,-76.1931551501967,-41.3489185676234,-45.7246617908083,0.630596537333326,8.82096851695669,9.42052094659291,9.49122226212055,4.70974191692704,10.9661653614339,-0.763189430883695,7.72781285999221,-18.6428662855158,25.9322728448811,-8.23973394171558,8.66350804711914,0.131875089884533,22.3412635117369,-4.83947663501921,-53.6863504764063,-6.48331832885742,8.09037590026855,0.443078637123108,23.5550003051758,8.75,-133.735000610352,841,0.298889130353928,0.0458966493606567,-17.3392821844092,-23.5886887759537,-18.6377568909495,0.231541257970134,-0.765711632446284,-0.791666081649862,-0.785152907885618,-13.946361390296,-66.2562872180831,-44.6149826159745,-0.0715492485059731,-0.850599705226801,0.0636511833074586,0.217921078456082,3.40643141971837,10.8310323322917,-1.40675003595384,7.20917037947383,-14.6916117594098,37.6472464375855,3.56582281956413,12.0269396106528,3.43390314694,-0.770608803529439,37.609957925554,-73.5507310449109,-3.24805403515689,10.0103893655704,-1.26697990108868,-12.8015748869011,-4.85181875995816,49.5770682206811,457.027403349589,-0.0168056204154861,0.201420767281456
91.88,-27.3151967289893,-16.1435585021973,-17.3212708914512,-0.00371447197285306,0.692010187991929,0.801725518661596,0.853005007746428,-76.7784263721362,-40.5382690429688,-44.9573466391154,0.60943109882313,8.76340001129966,9.33928881293393,9.40381574577055,4.73777074833443,10.728893895574,-0.997593089913773,6.92422084757555,-18.855941043214,26.8195199193065,-7.94130080566027,8.69964468315863,-0.258384031400115,21.4692484967192,-3.3717284396931,-51.9270646638651,-6.55482033711601,8.18280041034954,0.476798341782546,25.0036201854817,9.49212092650932,-134.497900508673,831.670479781026,0.298933247936287,0.0465130146276563,-17.6435427729197,-22.8316464238944,-20.2333506779726,0.234070686761179,-0.766521100354839,-0.813932440278821,-0.832245994503098,-14.8182394568117,-71.3904037475586,-47.8584293981345,-0.0583365306224589,-0.996816549478292,0.0372882934909291,0.152168409195361,3.50491117078964,10.5755816505707,-1.13903140009298,4.13669334348378,-14.9361984770496,39.6635960272965,2.52538088106184,11.5613981562775,3.60009735061715,-2.51250491742239,51.1438560433766,-76.3895648949919,-3.36260747909546,10.0207624435425,-1.22864508628845,-12.2150001525879,-4.86500024795532,33.8450012207031,509,-0.0471336133778095,0.1777323782444
91.885,-27.5815073284253,-16.1435585021973,-16.9787353897311,-0.00834981356311299,0.6472865585369,0.849331888689924,0.90314044671084,-77.5300144081685,-40.5382690429688,-44.1056768926027,0.587228075886689,8.66431825532782,9.22265327091904,9.27906073583743,4.63488147497803,10.3741966637401,-0.862212467076403,6.80053978473647,-18.4748696604125,28.0563305476972,-7.72198419666373,8.63466198419669,-0.572467076382806,19.4201541313042,-2.11486142273381,-50.6300848697688,-6.78308470234523,8.4778581666151,0.584445765501999,29.6282217245127,11.8612818261633,-136.933396591441,801.886742756804,0.299074089741686,0.0484807107784018,-18.0104592545185,-21.2774955273931,-21.0865699633929,0.229793971506856,-0.716042453793331,-0.816312758780237,-0.860537625976797,-16.0906119764929,-71.3904037475586,-51.9385798824146,-0.0402584642751685,-1.13702031356454,-0.110291463683529,-0.0385201369716666,3.48866549604916,10.529552238806,-0.657076382791933,1.85360777810294,-14.1807411743028,39.1020171473786,1.68060579455665,11.0550746268657,3.31309043020193,-2.7297824602478,60.7074106591227,-77.8302821404958,-3.36260747909546,10.0207624435425,-1.22864508628845,-12.2150001525879,-4.86500024795532,33.8450012207031,509,-0.0471336133778095,0.1777323782444
91.89,-27.8478306268551,-16.1435585021973,-16.6361835542404,-0.0129853761891647,0.602560796440152,0.896940528823159,0.953015835523809,-78.2816382835998,-40.5382690429688,-43.2539665343048,0.565023994201359,8.56523177465253,9.1060121671502,9.15230939214861,4.53198729535711,10.0194825182048,-0.726825388627816,6.67685282417849,-18.0937801062609,29.2932001532769,-7.50265712957702,8.56967618654136,-0.88656509838352,17.370962055033,-0.857934472198775,-49.3330432293231,-7.01135995233748,8.77292999267972,0.692098322377892,34.2530437871973,14.2305556990136,-139.369008810592,772.101585498115,0.299214938263112,0.0504485007585379,-18.3773932324924,-19.7232705213644,-21.939829934488,0.225517052317802,-0.665561400162701,-0.818693190786899,-0.889374041014265,-17.3630451691282,-71.3904037475586,-56.0189249282552,-0.0221795358771249,-1.27723076325301,-0.257878258183682,-0.232226573061378,3.47241904663532,10.4835206321335,-0.175098383514953,-0.429586655980643,-13.4252478476514,38.5404114886289,0.83579042503746,10.548726953468,3.02606982389092,-2.94707036393072,70.271421311997,-79.2710680864548,-3.36260747909546,10.0207624435425,-1.22864508628845,-12.2150001525879,-4.86500024795532,33.8450012207031,509,-0.0471336133778095,0.1777323782444
91.895,-28.1141412262911,-16.1435585021973,-16.2936480525203,-0.0176207177794247,0.557837166985123,0.944546898851487,1.00252724702915,-79.0332263196321,-40.5382690429688,-42.4022967877921,0.542820971264918,8.46615001868069,8.98937662513531,9.02356735902493,4.42909802200071,9.66478528637089,-0.591444765790445,6.55317176133941,-17.7127087234595,30.5300107816677,-7.28334052058048,8.50469348757942,-1.20064814336621,15.321867689618,0.398932544760514,-48.0360634352268,-7.23962431756671,9.06798774894528,0.799745746097344,38.8776453262283,16.5997165986676,-141.80450489336,742.317848473893,0.29935578006851,0.0524161969092834,-18.7443097140913,-18.169119624863,-22.7930492199083,0.221240337063479,-0.615082753601194,-0.821073509288316,-0.918180185286553,-18.6354176888094,-71.3904037475586,-60.0990754125353,-0.0041014695298345,-1.41743452733926,-0.40545801535814,-0.428140451587922,3.45617337189484,10.4374912203688,0.306856633786093,-2.71267222136148,-12.6697905449046,37.9788326087109,-0.00898466146773125,10.0424034240562,2.7390629034757,-3.16434790675613,79.834975927743,-80.7117853319587,-3.36260747909546,10.0207624435425,-1.22864508628845,-12.2150001525879,-4.86500024795532,33.8450012207031,509,-0.0471336133778095,0.1777323782444
91.9,-28.3513321414441,-17.4358201813069,-16.3460531284257,-0.022201297604981,0.530749086340305,0.935288255239309,0.994720981685385,-79.5943934584417,-40.8907038760172,-41.8500685922757,0.518821326503113,8.30749884483617,8.93210020557066,8.95222389232167,4.19843027135931,9.5594722659447,-0.528538563243741,7.76147305567021,-16.3024939313172,31.8449524804454,-7.24420839891708,8.36047358811309,-1.47391072215576,12.3075222129725,1.11102763028723,-46.7366643270272,-7.33224723071136,9.22050121642177,1.12535137080624,42.2453306604856,19.3854062464723,-144.088175683351,717.573745514072,0.299350324305195,0.0538309051081241,-18.9696281482822,-16.5212358344076,-22.5631445956982,0.217029449048165,-0.470767587357018,-0.8248568862337,-0.947766976148275,-19.47679461088,-67.2786615302654,-62.5886959107895,0.0288328301440765,-1.48462357160958,-0.595405172950441,-0.667776038513028,3.31410010703267,10.460933702701,0.33117723352012,-4.67787657119228,-10.9818737791707,35.8572140568027,-0.791732166467275,9.96297701945479,2.26323402379902,-3.24893499766427,81.9045587214531,-79.5188188629352,-3.12692648679072,9.82586484034941,-1.1988418306398,-9.59606183347838,-2.7962108759708,32.2862457468972,554.190807781905,-0.0653372184026604,0.169805246800783
91.905,-28.5706585672512,-19.5199561247513,-16.640496892174,-0.0267479639426694,0.514471186157629,0.891180112660926,0.951532248315049,-80.0388163615285,-41.4591043131362,-41.4813981871221,0.4937224523572,8.1123522437938,8.91120693783447,8.91538025001034,3.8894701252912,9.60700459610902,-0.510053768179838,9.78599822933598,-14.2616682329037,33.207676349354,-7.31550689416358,8.16770358244665,-1.72213511301391,8.70184613877871,1.48919980443414,-45.4358824521598,-7.34173399415401,9.2856434656542,1.58450950632496,44.8424451325437,22.42615487331,-146.2786234149,695.920128439212,0.29925520924254,0.0549066011023253,-19.1081496772797,-14.8160337675446,-21.6694558807999,0.21285922766022,-0.268955004348639,-0.829499848610372,-0.97699939843351,-20.0539674804797,-60.6473190678447,-64.103355009433,0.0708693669232835,-1.50705975182871,-0.81130294707525,-0.933818232529859,3.09492325127494,10.5269508279292,0.0750307876345753,-6.44811355879374,-8.72262104913787,32.7796749844348,-1.53640533904172,10.1451842850847,1.67172058175407,-3.2521951026138,79.3812374905073,-76.7118685013793,-2.7468245034313,9.51153755921722,-1.15077568634942,-5.37228612863754,0.540294693504496,29.7723134973251,627.073714033873,-0.0946956588376482,0.157020514546373
91.91,-28.7899954516166,-21.604191450006,-16.9349546964431,-0.0312948470876791,0.498192509764939,0.847069866790254,0.907740655263762,-80.4832604568761,-42.0275318543722,-41.1127102019577,0.468622381374028,7.91719633720563,8.89031267380494,8.87677098350512,3.58049524648997,9.65453919284768,-0.491568091670365,11.8106199422785,-12.2207452179246,34.5704651996117,-7.38680878927156,7.97492438456212,-1.97037134042686,5.09599812828843,1.86739001168267,-44.1350385496411,-7.35122120997201,9.35078882118815,2.04368953675262,47.439683447741,25.4670484979364,-148.469175597726,674.265478813826,0.299160089644333,0.0559823483909804,-19.2466778116623,-13.1107503882945,-20.7757245504461,0.208688807415693,-0.0671327979277857,-0.834143032386232,-1.00444537630726,-20.6311678725088,-54.0156603905339,-65.6180863344414,0.112907908210467,-1.52949700191482,-1.02721101626344,-1.1994158068294,2.87573594409117,10.5929711011774,-0.181127872568164,-8.21843495996574,-6.46326058686863,29.7019891599295,-2.28111402128059,10.3274002392495,1.08017893345085,-3.2554553630211,76.8577959352456,-73.9047842906811,-2.3667043949475,9.19719528942064,-1.10270725002984,-1.14830901348222,3.8769593639082,27.2582613711497,699.960095699805,-0.124055499226879,0.144235172653306
91.915,-29.0093218774237,-23.6883273934504,-17.2293984601914,-0.0358415134253674,0.481914609582263,0.80296172421187,0.863296654282596,-80.9276833599628,-42.5959322914912,-40.744039796804,0.443523507228115,7.72204973616326,8.86941940606875,8.8365578661107,3.27153510042186,9.70207152301201,-0.473083296606462,13.8351451159443,-10.1799195195111,35.9331890685204,-7.45810728451806,7.78215437889568,-2.21859573128501,1.49032205409466,2.24556218582958,-42.8342566747738,-7.36070797341466,9.41593107042059,2.50284767227134,50.0367979197991,28.5077971247742,-150.659623329274,652.611861738966,0.299064974581678,0.0570580443851816,-19.3851993406599,-11.4055483214315,-19.8820358355477,0.204518586027748,0.134679785080593,-0.838785994762904,-1.02956804252289,-21.2083407421084,-47.3843179281132,-67.1327454330849,0.154944444989674,-1.55193318213395,-1.24310879038825,-1.46364899227186,2.65655908833344,10.6589882264056,-0.43727431845371,-9.9886719475672,-4.20400785683581,26.6244500875616,-3.02578719385504,10.5096075048795,0.488665491405892,-3.25871546797063,74.3344747042999,-71.0978339291252,-1.98660241158807,8.88286800828845,-1.05464110573946,3.07546669135862,7.2134649333835,24.7443291215777,772.843001951772,-0.153413939661867,0.131450440398896
91.92,-29.2688703888566,-25.4998026019989,-18.3654710698469,-0.0418739745433578,0.471875123134215,0.757739588151814,0.817045578523245,-81.3238733968699,-41.8774996016756,-40.7062818699821,0.418928290519368,7.47874741766452,8.74835408850649,8.69476797875589,3.20866546449933,9.81881154080665,-0.526672677503498,16.7280076326256,-5.58275839591217,38.0579790294989,-7.61734896150905,7.76360144260083,-2.13985392369264,-0.152209186730396,1.35430207265763,-40.7281947005016,-7.53765628485799,9.70097593879306,2.10871689882817,50.660421451705,30.3003361651005,-151.501045771124,624.517403318501,0.298858362868234,0.0585645804701442,-19.4628075486553,-9.65727973949024,-18.1773426725905,0.201618285222792,0.428184116773596,-0.803688514731848,-1.01214325645398,-21.6019001126114,-43.0252253810521,-64.6972293107421,0.195424583251673,-1.46683010347354,-1.35883633184759,-1.62549258513862,2.61093237159945,10.8286834970097,-0.504935978101535,-10.2475681576521,-3.9335092219818,25.3246902529148,-3.53990802122386,10.37678268879,0.122504962183605,-1.515699847671,66.9925169646379,-69.5493504436376,-2.06653391588672,9.01937677964092,-1.09928765964934,3.89107842145846,6.87343824011674,21.7146571593015,799.961586860916,-0.156810029297837,0.13001801564876
91.925,-29.5364558298425,-27.2565920645318,-19.6699585604899,-0.0482035214848791,0.463085036407477,0.712297037357704,0.769858402331588,-81.7103853545773,-40.9015057441063,-40.734769199377,0.394435305064593,7.22581906063173,8.60724294486124,8.53176681282514,3.1950625948653,9.94939908929335,-0.594687025673652,19.7945310834578,-0.474125133353918,40.335200168233,-7.79418626675144,7.77992488616167,-1.99566350557192,-1.40165795311546,0.208974036804663,-38.4610497614965,-7.74811744662723,10.0300252890749,1.54379463672898,50.8889497030694,31.8429021212642,-152.07236795626,595.135204908994,0.298629443230287,0.0601572772568005,-19.5282174960879,-7.90049001750315,-16.3103976573873,0.19897236707207,0.740026793010901,-0.760637677137428,-0.983541159239373,-21.9586806357291,-39.1212483940502,-61.4710941311205,0.235590840195631,-1.36020434972546,-1.45450485983519,-1.76424591787343,2.60005007589221,11.0191236718862,-0.534862291296391,-10.2039046254935,-4.06114108521469,24.3808862116401,-4.00784673663453,10.18090136606,-0.198522761179525,0.576790962699671,58.6863696547717,-68.2528794118509,-2.23855178898035,9.24612751063744,-1.16249117657573,4.02438654646651,5.79745127282123,18.5819161891807,817.917374777837,-0.155008699957923,0.130858213313337
91.93,-29.8040540306129,-29.0134652993914,-20.974508255486,-0.0545333702502019,0.454294530526349,0.666852319640187,0.721947137226724,-82.0969157430681,-39.9254653463694,-40.7632578871873,0.3699411516643,6.97287864273599,8.46612507234548,8.36786998670477,3.18145907657981,10.079992864834,-0.662704617101074,22.8612007611485,4.63475173386136,42.6125298960252,-7.97103200446273,7.79624910810425,-1.85146621174579,-2.65116629933774,-0.93640861389909,-36.1937967139157,-7.95858864421554,10.3590903300414,0.97884543636923,51.1174888517802,33.3855416345285,-152.643717384836,565.751605412348,0.298400512676331,0.0617500499910411,-19.5936305625873,-6.14361652317703,-14.4433636171012,0.196326322751011,1.05188433943447,-0.717584786668201,-0.951375381020194,-22.3154781718896,-35.2170852463032,-58.2448051135714,0.275759012463462,-1.25357351153917,-1.5501779497668,-1.89923049127018,2.58916726126382,11.2095729278829,-0.564790031524446,-10.1602390112438,-4.18877903455999,23.4370371651657,-4.4758077656552,9.98501070274898,-0.51956579271696,2.6693815532816,50.3798262671166,-66.9563465579751,-2.41057786472875,9.47288905421948,-1.22569770735539,4.15770102825892,4.72141299719673,15.4490258346257,835.874018914676,-0.153207284721802,0.131698451042655
91.935,-30.0796776584022,-30.4628649191864,-22.3182646199918,-0.0645325332157747,0.441899696753051,0.622587756438543,0.6745042614541,-82.4866704194094,-39.0117196715746,-40.7481107412051,0.34651132043521,6.72054272355747,8.31284661099143,8.19123458663653,3.18063507999641,10.1904254031999,-0.69107258240983,25.5311006518225,9.1231381806781,44.6973491535239,-8.13701612799424,7.76916129281384,-1.70405040480881,-3.73574024097679,-1.81983025187942,-34.0554933432873,-8.07454672474239,10.5594607725015,0.494905218624525,51.624161564982,34.7922029991281,-152.96866419423,536.533266401514,0.298025824777579,0.0632129363356311,-19.6385041523835,-3.9311587826689,-12.4774114017755,0.192971313939308,1.36090886042947,-0.653644117713919,-0.894511551312892,-22.6578716401852,-31.3179232166037,-54.7032803220432,0.312640059982498,-1.1324569703091,-1.63787488821929,-2.02180665439472,2.56426008160532,11.3555362912049,-0.65083265757936,-9.98113053436921,-3.99903924553284,21.9587042431945,-4.87510483839827,9.79022177601008,-0.789149193600307,4.37485314964903,42.6054361286585,-65.2460499182342,-2.55202187690986,9.65524395757099,-1.28719311955123,4.24171066975888,3.76139925444432,12.6640871090839,851.680645119769,-0.151394148834903,0.132428899207723
91.94,-30.3982824714691,-30.2691845135312,-23.8719964095881,-0.0941480664762283,0.410235134877837,0.584618002651182,0.632670640903459,-82.8937775991832,-38.4306774248654,-40.4997152481963,0.328763451579871,6.47136164202472,8.09452057297213,7.94931495671823,3.24812037430335,10.1931248149721,-0.507512581894968,26.0809808276568,10.2962158891246,45.7537856125509,-8.24499259888533,7.51001776267522,-1.53938628669989,-3.93902927567917,-1.30327614730783,-32.6058092433606,-7.68534511754538,10.0719890343945,0.443830582319941,53.6176767057216,35.4724548893113,-151.976629544123,508.189442792601,0.296871916321775,0.0639819920983085,-19.57360300032,0.717173012541733,-9.98212350340485,0.185825708546512,1.65488369830792,-0.478034028067977,-0.722015364229946,-22.9233755867153,-27.4443135588854,-49.4756748322082,0.331961814078033,-0.933874303054039,-1.6829639612885,-2.09677722195307,2.46438184603105,11.2637562909475,-1.03684854101502,-9.07799400315049,-2.11278361206496,17.6229823719194,-4.9074977796656,9.60126295195067,-0.783750370055742,4.01159897288579,37.6731775817813,-61.3235713306163,-2.53004038501603,9.60029013129793,-1.33956080845214,4.06219979719988,3.42127337371173,11.7381887888132,855.999703955413,-0.149517814717284,0.132572717420032
91.945,-30.7168720926224,-30.0755133430662,-25.4256541131749,-0.123762187590332,0.378572082852035,0.546650059361333,0.590194867257586,-83.3008653670183,-37.8496628837754,-40.2513315993364,0.311016428989497,6.2221924420999,7.87620494531131,7.70753531392339,3.31560245073434,10.1958240980294,-0.323961334002675,26.6308347837611,11.4692376621472,46.810171697915,-8.3529639211749,7.25088658918023,-1.37473002020827,-4.14230861702685,-0.786746673391615,-31.1561942681763,-7.29616206850244,9.58454054021938,0.392758381388058,55.6110967904273,36.152674343299,-150.984642196832,479.846970691586,0.295718062887356,0.0647510111903888,-19.5087049429137,5.36528316309304,-7.48695458691,0.178680443874934,1.94884451869457,-0.30243231197199,-0.545511880829445,-23.1888668733205,-23.5708886050418,-44.2483186083225,0.351282646861624,-0.735301104741723,-1.72805088439236,-2.16628347575143,2.36450837291319,11.1719806670013,-1.42284601820029,-8.17490053585182,-0.226617920216077,13.287467239242,-4.93988917635248,9.41231313794391,-0.778351803941252,3.64836211703503,32.7411542179362,-57.4012797770719,-2.50805994125743,9.54533892536754,-1.3919260003242,3.8826974841904,3.08116371107378,10.8123346178045,860.318556846996,-0.147641570068199,0.132716528774712
91.95,-31.0354769056893,-29.8818329374111,-26.9793859027712,-0.153377720850785,0.346907520976821,0.508680305573973,0.547129321984907,-83.7079725467921,-37.2686206370662,-40.0029361063276,0.293268560134158,5.97301136056715,7.65787890729202,7.46625886148713,3.38308774504127,10.1985235098016,-0.140401333487813,27.1807149595954,12.6423153705936,47.8666081569421,-8.46094039206599,6.99174305904161,-1.21006590209935,-4.34559765172922,-0.270192568820026,-29.7065101682496,-6.90696046130542,9.09706880211242,0.341683745083473,57.6046119311668,36.8329262334822,-149.992607546725,451.503147082674,0.294564154431552,0.0655200669530663,-19.4438037908502,10.0136149583037,-4.99166668853939,0.171534838482137,2.24281935657301,-0.126822222326048,-0.36503239467168,-23.4543708198506,-19.6972789473236,-39.0207131184875,0.370604400957159,-0.536718437486661,-1.77313995746156,-2.22997144250157,2.26463013733893,11.0802006667439,-1.80886190163595,-7.2717640046331,1.6596377132518,8.9517453679669,-4.97228211761981,9.22335431388449,-0.772952980396687,3.28510794027178,27.808895671059,-53.4788011894541,-2.4860784493636,9.49038509909448,-1.44429368922511,3.70318661163139,2.7410378303412,9.88643629753383,864.63761568264,-0.14576523595058,0.132860346987021
91.955,-31.3525649391743,-29.4220569327001,-28.106873981535,-0.17822190444007,0.305036151101688,0.480324991383259,0.513159462117446,-84.1031105813433,-36.3315911606747,-39.5236738593361,0.276125860035566,5.72405575336958,7.42573909747641,7.21207526809197,3.48657678233112,10.1691774155874,-0.0498632270120348,25.8132566658688,12.8668944133808,48.7990944280555,-8.57301484518957,6.66876320365422,-0.985613531961279,-3.99863714033692,0.353296736217855,-27.9424785750515,-6.53049321614691,8.47668887985934,0.225162751139462,57.8276521882677,35.7249011958757,-148.880396190302,423.054514546729,0.292780316421531,0.065634002731216,-19.2816518852723,15.2098938051,-1.86533683093936,0.167690897711303,2.49267975168526,0.118804987044372,-0.110714704172165,-23.6292350665107,-15.4555064525632,-33.9498704023911,0.383226159419524,-0.285840076751281,-1.74252478703762,-2.21188561774389,2.32466001401467,10.9843825750694,-1.98177999532842,-6.03194734014074,2.09925998338358,4.40059551215936,-4.95917741558746,9.16931613506008,-0.79712387428303,3.10772919416177,23.9101718962221,-50.6392543954507,-2.47051190525245,9.46416586202965,-1.49508331458768,3.38924192818563,2.58520618537204,9.48787915988485,874.397420259012,-0.144206313966053,0.133029675158308
91.96,-31.6678066617262,-28.6410485548041,-28.7197089443715,-0.197304505297982,0.250844210478234,0.463578436661062,0.490360630582707,-84.4837795570023,-34.964826888644,-38.7657115663579,0.259714590944588,5.47538422971917,7.17693314160378,6.94252377892846,3.63352780877735,10.1011445329734,-0.0716337494485102,22.1310818834025,11.9463507177642,49.581892534182,-8.69003140328565,6.2687298538839,-0.688990163764234,-2.98738293456834,1.10585800562703,-25.799022816645,-6.16941797747229,7.69587994681162,0.0296346438759904,55.9132069130337,32.4579618820836,-147.623149848362,394.480703848849,0.290236056431854,0.0649570139088105,-19.0020979440697,21.0674553416952,2.02269398714484,0.167833203694094,2.68926935017424,0.448951384515165,0.231703498676601,-23.6946626602442,-10.7694572638378,-29.0685274537475,0.38775848484355,0.0281623382725162,-1.62051417406161,-2.096196043412,2.57774233733875,10.8836939088007,-1.89741922088706,-4.38571956330817,0.792356707489975,-0.41042117442073,-4.89114453297346,9.27816874724247,-0.856992810983357,3.15476427349984,21.2594092106692,-49.1072546684392,-2.46269079945305,9.47263882937425,-1.54396533937601,2.91301174988764,2.65187837919078,9.72599424903384,890.725312086372,-0.143030674499905,0.133229793149099
91.965,-31.9830634165475,-27.8600029346032,-29.3325731301809,-0.216388016107772,0.196649685717609,0.446831083381109,0.467214595460473,-84.8644666848226,-33.5979974425983,-38.0077131300249,0.243302539283914,5.22670084819246,6.92811532144447,6.67463702761687,3.78048584256831,10.0331084062184,-0.0934053100101316,18.4487315168066,11.0257631261152,50.3647279679566,-8.80705354130439,5.86867742856402,-0.392352651112075,-1.97608050724591,1.85845516084371,-23.6554648477689,-5.80832552096167,6.91503378096941,-0.16590278712537,53.9986703476717,29.190866784623,-146.365843554759,365.905530611715,0.287691675119398,0.0642799928042619,-18.7225306723659,26.925296195516,5.91091020558277,0.167975516462732,2.88586832301821,0.779113524983311,0.577393898656472,-23.7600933738859,-6.08318462133383,-24.1869517387623,0.392291026391053,0.342179726469506,-1.49849774302195,-1.97426357525492,2.83083672886765,10.7830004412032,-1.81305442371076,-2.73941328627167,-0.514608887953284,-5.22166727384173,-4.82310840621838,9.3870265500506,-0.916864602527835,3.20180159570087,18.6085201237676,-47.5751818881766,-2.45486932070503,9.48111220075143,-1.59284969509872,2.43675886260207,2.71855375226629,9.96412069267662,907.053982507591,-0.141854978973509,0.133429920682497
91.97,-32.2983051390993,-27.0789945567073,-29.9454080930175,-0.235470616965684,0.142457745094155,0.430084528658912,0.443822991182393,-85.2451356604816,-32.2312331705677,-37.2497508370467,0.226891270192936,4.97802932454205,6.67930936557183,6.40879085475166,3.92743686901454,9.96507552360436,-0.115175832446607,14.7665567343403,10.1052194304986,51.1475260740831,-8.92407009940047,5.4686440787937,-0.09572928291503,-0.964826301477331,2.61101643025288,-21.5120090893624,-5.44725028228705,6.13422484792169,-0.361430894388841,52.0842250724377,25.9239274708309,-145.10859721282,337.331719913836,0.285147415129721,0.0636030039818564,-18.4429767311633,32.7828577321112,9.79894102366696,0.168117822445523,3.08245792150719,1.1092599224541,0.925925650325022,-23.8255209676194,-1.39713543260839,-19.3056087901187,0.396823351815079,0.656182141493302,-1.37648713004595,-1.84617935077888,3.08391905219173,10.6823117749345,-1.7286936492694,-1.0931855094391,-1.82151216384688,-10.0326839604218,-4.75507552360438,9.49587916223299,-0.976733539228161,3.24883667503893,15.9577574382147,-46.0431821611651,-2.44704821490563,9.48958516809602,-1.64173171988705,1.96052868430408,2.78522594608503,10.2022357818256,923.381874334951,-0.140679339507361,0.133630038673289
91.975,-32.5776949681667,-27.5173376722559,-29.9215848407339,-0.247545514875719,0.0890351918451208,0.400153734514269,0.407107886325828,-85.5343678384945,-29.6355898325832,-35.9542880753528,0.211748399498908,4.72344374031917,6.40505255595614,6.11983477969789,4.02604136761058,9.93508743312018,-0.269125668798123,14.068970989346,10.030108602665,50.6529467394229,-8.87756753229805,5.24578689808169,-0.0491733002740236,1.17921936900577,2.86457049506768,-19.3984957378972,-4.80803018443565,5.75048024222229,-0.38128786254735,42.9137795105563,19.6525257140044,-143.920334341195,313.74402975336,0.283064480539901,0.0634813751861537,-18.0876810698352,34.6922525796414,14.1645061573572,0.170949802841906,3.18904975011288,1.45398084228754,1.29142790801623,-23.7655179010793,3.30970213606878,-14.686216188836,0.400730132080703,1.05151177356659,-1.19587689750533,-1.65352273928312,3.19325916742789,10.8559937361347,-1.78456283439904,0.712890061752547,-4.02318097383127,-14.2627544896674,-4.96794923659142,9.56473770063943,-1.04538953412502,3.43284469383907,12.8244506631996,-42.2425153414757,-2.45449921239469,9.53942407660053,-1.65103288183289,1.11682795141192,2.50174861979923,9.76288541959718,928.704293357693,-0.138910657295387,0.133743939496131
91.98,-32.8468622466153,-28.3027489683203,-29.7165348256686,-0.257624892387794,0.0358349213331263,0.366471808375632,0.366614878275526,-85.7975543178343,-26.6902983857993,-34.5059022376796,0.196967512891944,4.46719028143191,6.12356782226483,5.8262503610173,4.11087772412891,9.91593083648701,-0.460691635129844,14.2210074705616,10.1956594377665,49.7947852676723,-8.78452120579408,5.07337752838314,-0.0738032102309682,3.64558895317082,2.97606391462582,-17.2936351201782,-4.08967379620161,5.47978566248268,-0.351137869579431,31.6784357626725,12.5262715485394,-142.751780777346,291.577110792118,0.281112992324827,0.0635178400916996,-17.7108468800071,35.4776633537299,18.66573661414,0.174547240207329,3.27001669489154,1.80282936300915,1.66294526953891,-23.6698139907277,8.02216890928298,-10.1416721423336,0.404458608203517,1.46996742389389,-0.998597028095853,-1.43850965746965,3.26167558397493,11.1077661490278,-1.88034581756491,2.56435654411206,-6.47941479258195,-18.3271964208325,-5.26077149941277,9.62220749053895,-1.11654260733395,3.65583153295537,9.55397702282735,-37.7962929130357,-2.46629704069441,9.6010349722206,-1.64906656624178,0.168576408935312,2.11861669366048,9.13071774636176,930.893618687198,-0.13697327058371,0.13383329115632
91.985,-33.1160423602782,-29.0881977166424,-29.5114750328142,-0.26770475053396,-0.0173678860283515,0.332788276117775,0.326209618126557,-86.0607533471945,-23.7448664930927,-33.0574473338752,0.182185921459906,4.21092460312454,5.84206966600265,5.53544393685472,4.19571812606027,9.89677332637348,-0.652266736265166,14.3730512016214,10.3612181671427,48.9365828745793,-8.6914704423855,4.90095993736135,-0.0984342946626617,6.1120761459184,3.08756265073632,-15.188674132395,-3.37128315321633,5.20907817469959,-0.320986438912168,20.4425562585659,5.39967756836996,-141.583171491139,269.409134803602,0.279161411053235,0.0635543067360708,-17.3339947208791,36.2631115800513,23.1671817116389,0.178144849116185,3.35098750057072,2.15169451853695,2.03582641848122,-23.5741055167448,12.7348603959955,-5.59691138971097,0.408187262118336,1.88844302823628,-0.801307751415884,-1.21818195421029,3.33009526295183,11.3595505676628,-1.97613336813258,4.41591131346229,-8.93576573659222,-22.3918321644974,-5.55360772543391,9.67968002087956,-1.18769907346992,3.87882900517639,6.28334743025247,-33.3498584669319,-2.47809543157237,9.66264880574996,-1.6471001568871,-0.779720350819562,1.73546649791484,8.49851992827521,933.083048414459,-0.135035791487945,0.133922647077235
91.99,-33.3821217502312,-29.7521363382967,-29.3158764804165,-0.276757065126085,-0.0700087836058806,0.29922101994783,0.286127896532586,-86.3006061760411,-20.3581671365867,-31.420594768101,0.16938056115354,3.95816847288518,5.56183437890377,5.24880491348539,4.24019648160839,9.87337699591298,-0.787216129769241,14.4244073569504,10.4906373978206,48.0870666061182,-8.55933401873431,4.70231437057345,-0.12827875510878,8.61501996500599,3.57929481110416,-12.6727490909114,-2.34923149383528,5.06247536116809,-0.197351964125114,9.54449194752791,-1.98975358725659,-138.714828832174,247.648833549108,0.276716699562968,0.0632307818939878,-16.96351006099,36.8320108083047,27.4205488879312,0.181420966623703,3.41785232594532,2.4795591500842,2.38849804275234,-23.4584612296803,17.5263224592958,-1.04604825390734,0.410885378955702,2.30128459486365,-0.595674770069353,-0.984675814268783,3.33701596730382,11.5465538293605,-2.03913753712589,6.29541596191337,-10.8897737675397,-26.5201138699518,-5.82457060899145,9.7071506358998,-1.24503274693474,3.9681877741643,2.8040590027745,-29.1023367565774,-2.48842549324036,9.71659469604492,-1.64537847042084,-1.61000001430511,1.39999997615814,7.94500017166138,935,-0.133339434862137,0.134000882506371
91.995,-33.6264804006787,-29.5611477820081,-29.1867906527074,-0.278581053760104,-0.118715167363828,0.266459242608877,0.247176592897236,-86.3762416491955,-13.8645533034078,-28.4571823243445,0.170478899800514,3.73001547238685,5.29037968524656,4.97387545457643,4.00062599954305,9.82013911100957,-0.523688599497363,13.7671495186367,10.365758408541,47.2983572001418,-8.15206419922322,4.31900159926891,-0.194826111238042,11.3755028859235,6.74727759177618,-7.26351708158967,0.810361612352411,5.78925829918668,0.584258474863693,1.0197754750547,-11.231850763159,-123.88275580401,228.749384408397,0.27080042740316,0.060373532560101,-16.637697511628,35.8770680268618,29.9295874241235,0.182435700844951,3.38546565820866,2.65974890363252,2.59372991642045,-23.2024654500552,22.8740040662401,3.54950741662435,0.406331666088454,2.67463234816925,-0.331240432621338,-0.688084564266433,2.91111288807656,11.2777025105983,-1.87143819968015,8.37235073098464,-9.30906866639527,-31.0979147138067,-5.94169395577895,9.52347993298303,-1.20510433325718,3.11703887354807,-2.14509251972762,-26.2531240274875,-2.48842549324036,9.71659469604492,-1.64537847042084,-1.61000001430511,1.39999997615814,7.94500017166138,935,-0.133339434862137,0.134000882506371
92,-33.8708273994644,-29.3701683325551,-29.0577109801494,-0.280404955421558,-0.167419228673571,0.23369902743745,0.208666990579255,-86.451873515852,-7.37124910277871,-25.4939111838707,0.171577186075819,3.50187335082236,5.01893793526158,4.7018164016301,3.76106694082705,9.76690376462824,-0.260173634909744,13.1099230201016,10.2408853738193,46.5096854018997,-7.74481379940598,3.93570710532328,-0.261370294214713,14.1358541797706,9.91510931471499,-1.85454299864644,3.9698040608486,6.51600658228739,1.36583164461547,-7.5045345165644,-20.4735072516125,-109.051390008014,209.850836443023,0.264884437346735,0.0575164194673612,-16.3119004978634,34.9221707795969,32.4385063227736,0.183450386681008,3.35308053475331,2.83993006526048,2.79864831845508,-22.9464818769808,28.2214306816907,8.14484395900086,0.401778170354187,3.04796229927413,-0.0668187040965271,-0.387843550312028,2.48523011702587,11.0088640113726,-1.70374685857894,10.4491864663553,-7.72843893741854,-35.6754972761031,-6.05881171781789,9.33981798796743,-1.16517782347119,2.26593055794522,-7.09400805369634,-23.4040471563382,-2.48842549324036,9.71659469604492,-1.64537847042084,-1.61000001430511,1.39999997615814,7.94500017166138,935,-0.133339434862137,0.134000882506371
92.005,-34.1151860499119,-29.1791797762665,-28.9286251524403,-0.282228944055577,-0.216125612431518,0.200937250098497,0.170706151980023,-86.5275089890064,-0.877635269599836,-22.5304987401143,0.172675524722793,3.27372035032404,4.74748324160437,4.43243046094238,3.52149645876171,9.71366587972483,0.0033538953621346,12.4526651817879,10.1160063845397,45.7209759959233,-7.33754397989489,3.55239433401874,-0.327917650343974,16.8963371006881,13.083092095387,3.55468901067526,7.1293971670363,7.24278952030599,2.14744208360428,-16.0292509890376,-29.7156044275149,-94.21931697985,190.951387302313,0.258968165186927,0.0546591701334745,-15.9860879485013,33.967227998154,34.9475448589659,0.184465120902257,3.32069386701665,3.0201198188088,3.00276090735871,-22.6904860973557,33.569112288635,12.7403996295325,0.397224457486939,3.42131005257973,0.197615633351488,-0.0846073587465417,2.05932703779861,10.7400126926104,-1.5360475211332,12.5261212354266,-6.14773383627411,-40.253298119958,-6.17593506460539,9.15614728505066,-1.12524940979364,1.41478165732899,-12.0431595761985,-20.5548344272483,-2.48842549324036,9.71659469604492,-1.64537847042084,-1.61000001430511,1.39999997615814,7.94500017166138,935,-0.133339434862137,0.134000882506371
92.01,-34.3830483407252,-29.2772577030682,-28.9034895033352,-0.278402213019584,-0.268391346838771,0.156979779348385,0.122202248453626,-86.5153357356622,6.14674989157068,-18.6049568467134,0.170548713677756,3.05896773525929,4.47303191490395,4.16246255650712,3.32627974149301,9.63831324188869,0.215753758902679,11.1370248248776,10.6458319085814,44.8105011544561,-6.96409047744657,3.1971407280401,-0.371016750197841,19.125245464404,17.0082031517141,11.5670027452934,9.14178685126912,7.54823888409141,2.82653357265367,-20.3737641265983,-39.6310688706571,-76.2993019054745,170.865998417304,0.248505989665746,0.0515369792105505,-15.6689393372814,32.8526970472917,36.4869281732735,0.181551033457014,3.25866423823964,3.16356279352855,3.16884652287465,-22.2952608417182,39.868847716776,17.7245662160867,0.387680916486181,3.73761831309609,0.558799823546702,0.317636992174264,1.67307372724876,10.4988274861514,-1.42694974940649,14.0591744254586,-3.76486578022672,-44.3770351156573,-6.08731996834608,9.0145812450541,-1.05017924030601,0.52381875852817,-16.0866594370683,-16.8112190666002,-2.49865305524991,9.69857465042913,-1.62224466804149,-1.85198656090549,1.41067585517473,8.06599345102187,935,-0.134097253080763,0.133735336675607
92.015,-34.6913793227856,-29.8726371964374,-29.0571788812112,-0.26485390058591,-0.326787107714502,0.0937563540659642,0.0551762244910079,-86.3521011897927,14.0851464338524,-13.0237285733567,0.162873315004425,2.86724030621157,4.19338979838046,3.88935135426868,3.20734067528357,9.52490622527037,0.340224874703256,8.68858065398554,12.3020319404958,43.6904318545223,-6.64876365075177,2.89011197573199,-0.373782774993407,20.4399609536557,22.2363314998811,24.0585073158976,9.18087268386344,7.12889639262756,3.32934704605805,-17.5275246225099,-50.7062313501956,-53.0646925345712,148.737800052757,0.230222017211882,0.0479585971415978,-15.3666543917806,31.4634777018528,36.3583872212275,0.171877710439267,3.14563098007547,3.24380790369393,3.2700435969971,-21.6604641064945,47.8072441271634,23.3779171501409,0.36955200199371,3.95584103137475,1.08647223936438,0.887875096490268,1.35498087575838,10.3052057504616,-1.41865167501978,14.6567723751185,-0.001706120082972,-47.7201687883258,-5.64475600105512,8.94543062516489,-0.914644025323153,-0.435752806354228,-18.5726669076533,-11.5284531916071,-2.52647669391436,9.64955189823633,-1.55931016246362,-2.51030046093184,1.43971912080397,8.39515041752184,935,-0.136158864662165,0.133012930765272
92.02,-34.9996956028155,-30.4679883005499,-29.2108609307743,-0.25130623417133,-0.385180084127097,0.0305359434423881,-0.0110263568508022,-86.1888744273748,22.023164452553,-7.44276642761186,0.155198282314248,2.67552201923083,3.913761015927,3.61784670429812,3.08840728040095,9.41150461619624,0.464690055394364,6.24025323133735,13.9581530004462,42.5704159624322,-6.33345185966763,2.58309786336058,-0.376548667897651,21.7546137538224,27.4642105571676,36.5494162587805,9.21995665274268,6.70957389651424,3.83213654399641,-14.6814208345909,-61.7808657369209,-29.8311910508208,126.610656818781,0.211938916585811,0.0443803856992935,-15.0643838600193,30.0743245980382,36.2298523983515,0.162204848670949,3.03260311163369,3.32404918756186,3.36920063906945,-21.0256976400451,55.745262013976,29.0309985175855,0.351423951935461,4.1740533442215,1.61411949437641,1.45883003156067,1.03690319176998,10.1115932471643,-1.41035399630703,15.2543418297397,3.76127410273196,-51.063143051607,-5.20221313637561,8.87628330255871,-0.779115273015052,-1.39527861634606,-21.0585558388777,-6.24593921275535,-2.5542990058747,9.600531483577,-1.49637865776816,-3.16858297082372,1.46876100157408,8.72429168895378,935,-0.138220377940517,0.132290559301147
92.025,-35.3080265848758,-31.0633677939191,-29.3645503086503,-0.237757921737656,-0.443575845002828,-0.0326874818400323,-0.076353262940332,-86.0256398815053,29.9615609948348,-1.86153815425523,0.147522883640918,2.4837945901831,3.63411889940351,3.34739379455256,2.9694682141915,9.29809759957793,0.589161171194941,3.79180906044528,15.6143530323606,41.4503466624983,-6.01812503297283,2.27606911105248,-0.379314692693217,23.0693292430741,32.6923389053346,49.0409208293847,9.25904248533699,6.29023140505039,4.3349500174008,-11.8351813305025,-72.8560282164594,-6.59658167991749,104.482458454234,0.193654944131947,0.0408020036303409,-14.7620989145185,28.6851052525993,36.1013114463055,0.152531525653202,2.91956985346951,3.40429429772723,3.46605227681516,-20.3909009048213,63.6836584243634,34.6843494516396,0.33329503744299,4.39227606250017,2.14179191019409,2.0297970680136,0.718810340279598,9.91797151147455,-1.40205592192032,15.8519397793996,7.52443376287571,-54.4062767242755,-4.75964916908465,8.8071326826695,-0.643580058032196,-2.35485018122846,-23.5445633094626,-0.963173337762283,-2.58212264453915,9.5515087313842,-1.43344415219029,-3.82689687085007,1.49780426720333,9.05344865545375,935,-0.140281989521919,0.131568153390813
92.03,-35.5980780021417,-30.6264000406814,-29.5072774101049,-0.225477812293486,-0.532038586517047,-0.0805781372374834,-0.125432550314152,-85.6201956537445,38.5037534706604,5.23936173945321,0.140280562856375,2.32452356509174,3.39117012048857,3.11411484065806,3.04997288923315,9.32294990963076,0.463186806093476,2.81056331742706,16.3615996149347,40.6951337687632,-5.79133294603666,2.16130583526981,-0.335196230312421,23.3799762840558,35.473570588404,62.036882437132,9.74331104032082,7.63740403111086,3.52401412492043,-17.3740165440451,-80.3329068998203,15.703791246907,87.5954040795249,0.150608973887819,0.0317865110945323,-14.4646432295469,28.7792725212162,35.1889414577311,0.145273449294485,2.80938962494216,3.37225528999782,3.44811539465132,-19.6505116250224,67.1116643014756,40.4931757159664,0.315955377989653,4.48370039579343,2.59479231394879,2.5253526710344,0.607415440227207,10.0308862638781,-1.22689452620706,15.8717737231164,9.20854809969624,-55.9913543589204,-4.65814613994318,8.89589981926157,-0.599817325071016,-4.26456267352646,-24.1479226235445,8.51696136277424,-2.5417040352239,9.52570580795942,-1.4149250494258,-4.48895109076848,1.51925575081427,9.47713797442709,936.425574490059,-0.142871083569079,0.130395066434565
92.035,-35.8821268477909,-29.8493680553599,-29.6464027834338,-0.213614647548144,-0.630410456027406,-0.12342149110296,-0.168539247077973,-85.1349462309704,47.2453669203796,12.8412641459503,0.133180431003012,2.17593299666801,3.160292063186,2.89276790270513,3.19617583268785,9.39334391944227,0.254712238574761,2.3125240267378,16.8095007219975,40.060050109495,-5.59368822618124,2.10986405886908,-0.275632068164223,23.3599210106052,37.4490150232856,75.1998269118589,10.374245439621,9.5665202212463,2.28030151985499,-25.6750949948634,-86.6250498794568,37.697857220292,72.4336173508908,0.0994041201895886,0.0209795610957558,-14.1687593596006,29.3620465102074,34.0183345091701,0.138810451450124,2.70014214834916,3.30322989142283,3.39057349922896,-18.8752951343904,69.054246330409,46.3535809750545,0.298874585701063,4.53336542740361,3.02322582234531,2.99492475343845,0.564096049573975,10.2447757552285,-0.996760263361729,15.7013038987865,10.2079692266499,-56.9974605770242,-4.66897598760649,9.0366878388846,-0.586280015491875,-6.4873554809651,-24.131209895669,19.3802344818353,-2.47880510013294,9.50754944094385,-1.41103440396182,-5.15227927305641,1.53820799842627,9.93199140070761,938.320797831139,-0.145634084937071,0.129073458920376
92.04,-36.1661621492456,-29.0723731209627,-29.7855215228998,-0.201752048469632,-0.728777634908854,-0.166262802084883,-0.210737104292335,-84.6497199461622,55.9865635470275,20.4428040737899,0.126080637702569,2.02734951343256,2.92942501475514,2.67066371414719,3.34237180480249,9.46373457268265,0.0462476116705578,1.814508483869,17.25738047196,39.4249967326824,-5.39605293054478,2.05842473534727,-0.2160707461916,23.3398666934427,39.4243652637921,88.3621437428477,11.0051497543132,11.4955444260589,1.03664821827062,-33.9757776284753,-92.9168928332025,59.6908744588891,57.2725535760392,0.0482017080731673,0.0101731264007175,-13.8728895981737,29.9447927110053,32.8477833782206,0.132347761778462,2.59089988096255,3.23420778415999,3.3303838442479,-18.1001156081151,70.996735731933,52.2137067946395,0.281794607869477,4.58302809085473,3.45163890190775,3.4624516341393,0.520778724502979,10.4586550477666,-0.766636973922027,15.5308422029052,11.2073426985812,-58.0035188213431,-4.67980531887425,9.17746914536536,-0.572743351407183,-8.71004229980907,-24.1144979647002,30.2429896115239,-2.41590916422827,9.48939393967152,-1.40714394401402,-5.81557582611573,1.55715934234536,10.386823138383,940.215930802995,-0.148396954557907,0.127751914423903
92.045,-36.4488448665905,-28.270863672936,-29.8959076271779,-0.190197840447251,-0.834946922458108,-0.212172378826936,-0.255146398075708,-84.1530967853201,64.5073600291638,28.0804659548512,0.119256020443482,1.88182808909479,2.7026465376276,2.45126695688831,3.49920095250696,9.53178991930147,-0.154067998412466,1.39268699400109,17.8152149591934,38.6873418817238,-5.21325439872997,2.01390527847598,-0.158372800635029,23.2384223532083,41.1467435597171,101.192430248302,11.5990800857544,13.3115186691284,-0.134121105074883,-41.7900009155273,-98.8400039672852,80.3949966430664,43,0,0,-13.5808442979377,30.353287022996,31.6849042389267,0.125909361709592,2.48324672636876,3.16636968983719,3.26877513341231,-17.3351553351287,72.5218355638323,57.9068823098196,0.265217539128923,4.62671042345351,3.87196795210855,3.91934902316019,0.503431670855951,10.658698240508,-0.560902235745481,15.3502814893211,12.2753107651904,-59.1055025568409,-4.66494112977907,9.35930414075936,-0.553491202540021,-10.8978913207868,-24.763908283642,40.4032442726273,-2.35845295747983,9.47273112661798,-1.40176672624176,-6.55048690124201,1.50153199464717,10.7768417664473,942.0325439873,-0.151384856196556,0.126201549425912
92.05,-36.7095882357938,-27.0765379496046,-29.5450335119577,-0.183602827903063,-1.06625690922058,-0.307291543422426,-0.347991488250754,-83.473952889925,69.4837171215184,36.2916903876376,0.11685363897766,1.78557226490517,2.54167566468498,2.29572848945587,3.82656938748514,9.56230731578249,-0.223425717687502,2.19415397229041,20.1374141526983,36.3034913821967,-5.26874057415001,2.08048868898002,-0.130629712925008,21.8307175323668,38.8074190034282,108.683063930006,11.5990800857544,13.3115186691284,-0.134121105074883,-41.7900009155273,-98.8400039672852,80.3949966430664,43,0,0,-13.3504205896766,27.9646355763332,30.6461091145972,0.119866054110947,2.40118700097025,3.11759063743034,3.22374725321758,-16.7348401505172,67.3464232141338,60.9158089753426,0.256725843025684,4.57437050075183,4.16220331392933,4.24318998318307,0.90293213388016,10.63650377034,-0.746780923402582,15.0077742336419,14.4433816936397,-61.7462334981275,-4.23769757904484,10.1999196983728,-0.442518851699969,-12.5248007852629,-36.10432351918,39.2798204739996,-2.38835332732397,9.48004011326262,-1.37253081273553,-8.4342426784582,0.24893155543636,10.1262665501441,942.5874057415,-0.157982184009225,0.120979782821467
92.055,-36.9703440385181,-25.8821552749727,-29.194142665341,-0.177007500876372,-1.29757792597623,-0.402415243765596,-0.440183816522942,-82.7947766096224,74.4603115109543,44.5033063718251,0.114451142954523,1.68931185076637,2.38069711586268,2.13773742854253,4.1539534329938,9.59282616748245,-0.292786744278321,2.99565916845099,22.4597240800354,33.9195272090011,-5.32422939542268,2.14707527450721,-0.102885302288675,20.4229455852643,36.467982896686,116.174054801814,11.5990800857544,13.3115186691284,-0.134121105074883,-41.7900009155273,-98.8400039672852,80.3949966430664,43,0,0,-13.1199858936845,25.5758702270694,29.6072644554279,0.113822458337794,2.31912336256208,3.06880925899934,3.17643498155514,-16.1344963399373,62.1707640754245,63.9248791212273,0.248233741996782,4.52202808222627,4.45245251559378,4.56378076896246,1.30245164704328,10.6143082418309,-0.932668474665982,14.665250645539,16.6115560063305,-64.3870903624001,-3.81043365524539,11.0405753406535,-0.331541209154665,-14.1517878287513,-47.445279521264,38.1563431050224,-2.4182551229642,9.48734944843555,-1.34329350511774,-10.3180882823768,-1.00372861389887,9.47566031122794,943.142293954227,-0.164579826414798,0.115757767217613
92.06,-37.2310874077214,-24.6878295516413,-28.8432685501208,-0.170412488332184,-1.5288879127387,-0.497534408361086,-0.531863209085311,-82.1156327142273,79.4366686033089,52.7145308046114,0.112048761488701,1.59305602657674,2.21972624292007,1.97691238885632,4.48132186797198,9.62334356396347,-0.362144463553357,3.79712614674031,24.7819232735403,31.535676709474,-5.37971557084272,2.21365868501124,-0.0751422145786537,19.0152407644228,34.1286583403971,123.664688483518,11.5990800857544,13.3115186691284,-0.134121105074883,-41.7900009155273,-98.8400039672852,80.3949966430664,43,0,0,-12.8895621854235,23.1872187804066,28.5684693310984,0.107779150739149,2.23706363716357,3.02003020659249,3.12710290061565,-15.5341811553258,56.995351725726,66.9338057867502,0.239742045893543,4.4696881595246,4.74268787741456,4.88091686679358,1.70195211006749,10.5921137716629,-1.11854716232308,14.3227433898598,18.7796269347798,-67.0278213036867,-3.38319010451116,11.8811908982669,-0.220568858314613,-15.7786972932275,-58.785694756802,37.0329193063946,-2.44815549280833,9.49465843508019,-1.31405759161152,-12.201844059593,-2.25632905310969,8.82508509492477,943.697155708427,-0.171177154227466,0.110536000613167
92.065,-37.4563046563141,-22.4557602765343,-28.0289274099937,-0.165445906619225,-1.80673752193471,-0.597855010804211,-0.628414276209604,-81.3224120644198,84.1719213221989,60.1239905936596,0.104201288701196,1.52378255987098,2.07485845670957,1.82907419851348,4.59882216941753,9.5739279429709,-0.363293301650487,5.32368434197477,24.8197838495272,28.6545182521164,-5.57150947273781,2.37113210455334,-0.099153811572797,17.0580999341131,32.3684714620642,132.781753037262,10.9262505552319,12.8795715955891,-0.36533298194217,-36.3898336944901,-94.2149596018488,86.964273323234,40.5528867767003,0,0,-12.6782185054057,20.8300198936989,27.3693942797701,0.102959400772319,2.17325424718072,2.93209425049644,3.03690624428069,-15.0273488457873,50.4834609364554,67.3602548702381,0.228471161123319,4.38154132712633,4.89894741997998,5.0605875497183,1.75726697065058,10.4662092351165,-1.21388221694178,13.9424503132208,20.0747446781014,-67.4963327680216,-2.75601477104873,12.287387065699,-0.109834178922378,-16.6832828675656,-66.7668372116256,34.3517913563597,-2.46447515487671,9.49864768981934,-1.29810059070587,-13.2300004959106,-2.94000005722046,8.47000026702881,944,-0.174777984619141,0.107685953378677
92.07,-37.6388117229042,-18.9770207700239,-26.6577912639938,-0.162436493274516,-2.14047781649341,-0.70441488859917,-0.731078853212289,-80.3922053438216,88.6169771156852,66.5693093400859,0.0898120703966633,1.48693711512901,1.94935460063995,1.69735016085468,4.46414231584358,9.42847370111104,-0.282485389506128,7.72131827843943,22.1128850641149,25.1761200585768,-5.92706428617304,2.63779821462976,-0.185348917860124,14.4409877177501,31.3043343474059,143.852104458193,9.44505088227492,11.9286622864151,-0.87433406002152,-24.5016427652048,-84.0331618496375,101.426198712673,35.1656926337422,0,0,-12.4898226888092,18.5108603939463,25.9778601722402,0.0996103268923794,2.13138031264168,2.79711840528949,2.89832023270845,-14.6328944304747,42.366403201084,64.6836738410807,0.213862115257403,4.25037982523877,4.89421142541132,5.07585088898939,1.39901856014386,10.215704707469,-1.20041423158438,13.5167954673574,20.3208263858661,-65.3547568247716,-1.88867651403249,12.1715623916255,0.000603301008269413,-16.719862580882,-70.7107953928282,29.7992797627118,-2.46447515487671,9.49864768981934,-1.29810059070587,-13.2300004959106,-2.94000005722046,8.47000026702881,944,-0.174777984619141,0.107685953378677
92.075,-37.8213274923252,-15.4981153801743,-25.2865897355063,-0.159426936426239,-2.47423402542408,-0.810979847691053,-0.833846007223802,-79.4619542664105,93.0622448712046,73.0149354308803,0.0754221659437209,1.45008991341575,1.82384475993173,1.56239109401698,4.32945604007452,9.28301252328047,-0.201673624044706,10.1190665458343,19.4058572005096,21.6975559979735,-6.28263605420335,2.9044770406525,-0.271548134352319,11.8237507046575,30.2401464894775,154.922983767704,7.96378057846237,10.9777076332274,-1.38335940976546,-12.6128849487453,-73.8508785794369,115.888813717552,29.7782416029799,0,0,-12.3014178885774,16.191590305309,24.5862597095481,0.0962610933121928,2.08950438134833,2.66213612377311,2.75876817840773,-14.2384212056435,34.248958404641,62.0069651794295,0.199252372760623,4.11921206892836,4.88947520500724,5.08789961987748,1.04075306659815,9.96518823453854,-1.18694560400747,13.0911203241861,20.566919828012,-63.2130787606908,-1.02129689807976,12.0557321944641,0.111046047138904,-16.7564440384983,-74.6549416412752,25.246551083012,-2.46447515487671,9.49864768981934,-1.29810059070587,-13.2300004959106,-2.94000005722046,8.47000026702881,944,-0.174777984619141,0.107685953378677
92.08,-38.0038432617462,-12.0192099903247,-23.9153882070188,-0.156417379577962,-2.80799023435475,-0.917544806782936,-0.936945465981608,-78.5317031889995,97.5075126267239,79.4605615216748,0.0610322614907786,1.41324271170249,1.69833491922351,1.42438453840105,4.19476976430546,9.13755134544989,-0.120861858583283,12.5168148132291,16.6988293369044,18.2189919373701,-6.63820782223366,3.17115586667524,-0.357747350844515,9.20651369156499,29.1759586315491,165.993863077215,6.48251027464982,10.0267529800397,-1.8923847595094,-0.724127132285806,-63.6685953092364,130.35142872243,24.3907905722176,0,0,-12.1130130883456,13.8723202166717,23.1946592468559,0.0929118597320063,2.04762845005498,2.52715384225672,2.61866493218607,-13.8439479808123,26.1315136081979,59.3302565177783,0.184642630263843,3.98804431261794,4.88473898460315,5.09703889339804,0.682487573052447,9.7146717616081,-1.17347697643056,12.6654451810147,20.813013270158,-61.07140069661,-0.153917282127036,11.9399019973027,0.221488793269538,-16.7930254961146,-78.5990878897222,20.6938224033123,-2.46447515487671,9.49864768981934,-1.29810059070587,-13.2300004959106,-2.94000005722046,8.47000026702881,944,-0.174777984619141,0.107685953378677
92.085,-38.0509603881836,-11.1211175918579,-22.0960861771894,-0.154752856399517,-3.08724009068807,-0.945054948329926,-0.961559657305964,-78.2915554046631,98.6550750732422,83.9431595202096,0.0466360678606072,1.38485510898974,1.66593408584595,1.37678107165941,4.26521956738279,8.97182343609736,-0.0866084186967507,13.4971625995413,16.7416149081525,14.9497094129673,-6.77208782695312,3.17304209348369,-0.291998180007132,5.63053583061619,34.0169603356025,172.89058272109,4.68385839689942,9.82753732439897,-1.5898883321232,-4.82619164799487,-35.6763455768523,145.581679496249,20.8956086523445,0,0,-12.0643756866455,13.2735919952393,21.6122637705112,0.0936993976192887,2.05360509860827,2.49230766296387,2.57855978401076,-13.7421132469177,24.0359649658203,54.5417917034039,0.162918041348336,3.81487101478558,4.88351631164551,5.10717772189965,0.687567235209468,9.43190853306113,-1.25034948781958,13.6986817197141,19.7263315529649,-58.5487515331709,1.00358452514172,11.5847758826351,0.565658702148325,-14.6626503243817,-72.9970718883519,15.3144594850428,-2.40811814393004,9.51422600829479,-1.31001345870208,-12.7545992428795,-2.98687056988838,7.97451172961677,943.043458478338,-0.176152132299351,0.106199739781128
92.09,-38.0509603881836,-11.1211175918579,-20.1207235048007,-0.153556312122229,-3.34753911182787,-0.945054948329926,-0.959462775758855,-78.2915554046631,98.6550750732422,87.7428911888931,0.0322367601467982,1.35940971116135,1.66593408584595,1.35936570770515,4.40706341691364,8.79903183757795,-0.0685555651200829,13.9843030928796,17.7413672931736,11.7530489207342,-6.82882536676546,3.08277782560041,-0.173365142217691,1.72067618473749,40.9133414373723,178.335094117224,2.77463876873588,9.88992195911389,-1.00495432693859,-14.4934945882637,-1.48424043044272,161.080054606624,18.0587316617273,0,0,-12.0643756866455,13.2735919952393,19.9633679020991,0.0959266262093263,2.07623533358171,2.49230766296387,2.57356668484419,-13.7421132469177,24.0359649658203,49.0181056847062,0.138716014424222,3.62706821415077,4.88351631164551,5.11649012731749,0.819095168410823,9.1379049176699,-1.3586666092795,15.2397013195556,18.1757601787443,-55.8933582557582,2.2621263173428,11.1463494386306,0.991190250740899,-11.7780144618686,-64.0725306934024,9.64707335339455,-2.33214467645086,9.53522674719479,-1.3260728961011,-12.1137227834999,-3.0500555278926,7.30655610792844,941.753968937149,-0.178004586188235,0.104196212650717
92.095,-38.0509603881836,-11.1211175918579,-18.1454550228884,-0.152359824899312,-3.60782572122721,-0.945054948329926,-0.9583759994723,-78.2915554046631,98.6550750732422,91.5424416763985,0.0178381390297714,1.33396552663631,1.66593408584595,1.34036671701535,4.54890050295748,8.62624847821543,-0.0505035723508525,14.4714203580807,18.7410720073771,8.5565408536629,-6.88556020118299,2.99251786175432,-0.0547377611628378,-2.18899702877206,47.8093937015919,183.779345904766,0.865510177174866,9.9523036191657,-0.42004821294247,-24.160336566157,32.7062343466579,176.577690713799,15.2219899408502,0,0,-12.0643756866455,13.2735919952393,18.3145506573695,0.0981537485992595,2.09886448948615,2.49230766296387,2.5692200457142,-13.7421132469177,24.0359649658203,43.4946830498545,0.114515141516268,3.43927436844638,4.88351631164551,5.12426344357157,0.950616830015134,8.84391532114265,-1.4669785658948,16.7806474395382,16.6252627398362,-53.2380915944659,3.52060809896825,10.7079438999496,1.41670150887245,-8.89351614636397,-55.1484150439991,3.9799574575908,-2.256174831586,9.55622648472444,-1.34213156774399,-11.4728768827918,-3.11323747307219,6.63863233611717,940.464540882205,-0.179856951747255,0.102192781053737
92.1,-38.0509603881836,-11.1211175918579,-16.1700923504997,-0.151163280622023,-3.86812474236701,-0.945054948329926,-0.958481089615331,-78.2915554046631,98.6550750732422,95.342173345082,0.00343883131596241,1.30852012880792,1.66593408584595,1.32052691205283,4.69074435248833,8.45345687969602,-0.0324507187741847,14.958560851419,19.7408243923983,5.35988036142981,-6.94229774099533,2.90225359387104,0.0638952766266034,-6.09885667465076,54.7057748033617,189.2238573009,-1.04370945098867,10.0146882538806,0.164885792242144,-33.8276395064258,66.8983394930675,192.076065824174,12.385112950233,0,0,-12.0643756866455,13.2735919952393,16.6656547889574,0.100380977189297,2.12149472445959,2.49230766296387,2.56586378063279,-13.7421132469177,24.0359649658203,37.9709970311568,0.0903131145921535,3.25147156781157,4.88351631164551,5.13102639379734,1.08214476321649,8.54991170575141,-1.57529568735472,18.3216670393796,15.0746913656156,-50.5826983170532,4.77914989116933,10.2695174559451,1.84223305746502,-6.00888028385085,-46.2238738490496,-1.68742867405749,-2.18020136410682,9.57722722362444,-1.35819100514301,-10.8320004234121,-3.17642243107641,5.97067671442884,939.175051341015,-0.181709405636139,0.100189253923326
