time,hip_angle_l,hip_angle_l_velocity,hip_angle_l_velocity_filt,hip_angle_l_torque_estimated,hip_angle_l_torque_desired,hip_angle_l_torque_measured,hip_angle_l_torque_interaction,knee_angle_l,knee_angle_l_velocity,knee_angle_l_velocity_filt,knee_angle_l_torque_estimated,knee_angle_l_torque_desired,knee_angle_l_torque_measured,knee_angle_l_torque_interaction,thigh_imu_l_accel_x,thigh_imu_l_accel_y,thigh_imu_l_accel_z,thigh_imu_l_gyro_x,thigh_imu_l_gyro_y,thigh_imu_l_gyro_z,shank_imu_l_accel_x,shank_imu_l_accel_y,shank_imu_l_accel_z,shank_imu_l_gyro_x,shank_imu_l_gyro_y,shank_imu_l_gyro_z,foot_imu_l_accel_x,foot_imu_l_accel_y,foot_imu_l_accel_z,foot_imu_l_gyro_x,foot_imu_l_gyro_y,foot_imu_l_gyro_z,insole_l_force_y,insole_l_cop_x,insole_l_cop_z,hip_angle_r,hip_angle_r_velocity,hip_angle_r_velocity_filt,hip_angle_r_torque_estimated,hip_angle_r_torque_desired,hip_angle_r_torque_measured,hip_angle_r_torque_interaction,knee_angle_r,knee_angle_r_velocity,knee_angle_r_velocity_filt,knee_angle_r_torque_estimated,knee_angle_r_torque_desired,knee_angle_r_torque_measured,knee_angle_r_torque_interaction,thigh_imu_r_accel_x,thigh_imu_r_accel_y,thigh_imu_r_accel_z,thigh_imu_r_gyro_x,thigh_imu_r_gyro_y,thigh_imu_r_gyro_z,shank_imu_r_accel_x,shank_imu_r_accel_y,shank_imu_r_accel_z,shank_imu_r_gyro_x,shank_imu_r_gyro_y,shank_imu_r_gyro_z,foot_imu_r_accel_x,foot_imu_r_accel_y,foot_imu_r_accel_z,foot_imu_r_gyro_x,foot_imu_r_gyro_y,foot_imu_r_gyro_z,insole_r_force_y,insole_r_cop_x,insole_r_cop_z
92.405,-22.9976580623574,29.8946276601405,25.4667695548324,0.0554360787197591,1.64268817231712,0.226877402905748,0.2214117570549,-2.7475826345992,10.2255290262974,32.3028012667906,-0.0857766419680774,-1.15552803278598,-0.947528080204985,-0.93377282483668,3.60349838180056,7.86992889371856,-0.586430511918002,-16.2958286414737,-9.78735587934126,-34.1780028120535,-0.499101485908681,9.04106399565332,-1.59248222342961,-5.7964263705407,-33.5007206579774,10.2766039014691,-12.2218471819503,1.88321583086036,0.547649821937781,-4.73591380720172,-60.0941875307991,-50.035597882831,0,0,0,-12.497282610202,-10.3917532863366,-7.73820532545022,0.15230906697821,2.7802869265929,4.04521351494674,4.04658990405395,-30.4083226410504,-51.2412743281063,-50.1257522032548,0.540035053069487,3.31906536745418,1.00021281879532,1.02167821209557,3.13529540998322,8.54728118872696,-1.40390045120596,-22.9570383144478,-8.99787083627532,28.2112475724092,-3.87903037962724,8.44867614750418,-0.0731441496775344,11.6208735331286,-7.33704103259116,-81.5896159047553,-1.69628548353473,9.04600060022443,-0.450716687899802,5.10710420302352,-1.17899553200763,-0.840330321462934,1012.3734969644,0.00763690411658606,0.0609561843253129
92.41,-22.5266165945898,31.6719573234893,26.430830761635,0.0525633079619324,1.63029229794389,0.398916444035641,0.405798954807274,-2.70426870473629,7.55953402188409,27.9557882987074,-0.0851201826864948,-1.138772123878,-0.984549152070616,-0.961157431177799,3.95525288795444,8.01855755829062,-0.38330467033617,-16.843246973951,-5.68018928427375,-36.2881628646198,-0.635344428433075,8.90729819753845,-1.62963938957264,-6.81480796112705,-28.9837548642955,3.69840930281664,-12.2586307598967,1.8582980308604,0.571381053002055,-11.1863977220602,-49.6034803894476,-54.5353309295396,0,0,0,-12.6597110283824,-10.2140203672495,-8.07532824848901,0.14377782613412,2.72910901890356,3.86664135716689,3.86428816121198,-31.0147219114313,-50.3526097326708,-50.2069708666756,0.560940833774986,3.52506072055992,1.16789644513401,1.18028382944374,3.21456403108832,8.65627554274647,-1.61198058160686,-22.8683504281805,-7.8571611266996,28.7861897316592,-4.16390198672369,8.42885899222791,-0.120209893458687,11.8594133651578,-6.46851138776677,-81.3602506816503,-1.66958783013126,9.18957455554575,-0.421645918772368,5.06375412860888,-1.01426540869329,-1.36920066530107,1032.93379556354,0.0165228901938648,0.0610963293615883
92.415,-22.0555975873156,33.4492022390952,27.3948459994692,0.0496906741853548,1.61789701463849,0.570947281892544,0.599643814196346,-2.66095684019523,4.89366613910937,23.6089826076111,-0.0844637547066136,-1.12201701393574,-1.02156845867438,-0.982501605452727,4.30699062153031,8.16717913585788,-0.180188514327558,-17.3906392040856,-1.57321852968856,-38.3982222992168,-0.771580874536407,8.77353877772791,-1.66679478396446,-7.83314099260647,-24.4670044513973,-2.87947163025316,-12.2954125839055,1.83338141900655,0.59511115249895,-17.6365740609167,-39.113273472545,-59.0348494171671,0,0,0,-12.8221317015496,-10.0362959229344,-8.41243509662206,0.135246992081983,2.67793355151118,3.68807771417618,3.67726826493224,-31.6210922671036,-49.4639875110955,-50.2881856573775,0.581845617637996,3.73104625126659,1.33557207587732,1.32815516425948,3.29382887245753,8.76526469962913,-1.82005079020104,-22.7796667707844,-6.71650580915657,29.3611044761581,-4.44876001039428,8.40904278188561,-0.167273393021655,12.0979418229818,-5.60002315671526,-81.130896395281,-1.64289144974197,9.33314166488408,-0.392576535815501,5.02040612123957,-0.849543140143552,-1.89804579121321,1053.49311379367,0.0254084525640064,0.0612364677153805
92.42,-21.584556119548,35.226531902444,28.3589072062718,0.046817903427528,1.60550114026527,0.742986323022436,0.789908804356329,-2.61764291033232,2.22767113469606,19.261969639528,-0.083807295425031,-1.10526110502776,-1.05858953054001,-1.00764578212134,4.6587451276842,8.31580780042993,0.0229373272542734,-17.9380575365629,2.53394806537894,-40.5083823517832,-0.907823817060801,8.63977297961305,-1.70395195010749,-8.85152258319282,-19.9500386577155,-9.45766622890558,-12.3321961618518,1.8084636190066,0.618842383563224,-24.0870579757753,-28.6225663311935,-63.5345824638757,0,0,0,-12.98456011973,-9.85856300384734,-8.74955801966085,0.126715751237893,2.62675564382184,3.50950555639634,3.48928573907929,-32.2274915374845,-48.57532291566,-50.3694043207984,0.602751398343495,3.93704160437233,1.50325570221601,1.47491251367803,3.37309749356263,8.87425905364864,-2.02813092060193,-22.6909788845171,-5.57579609958086,29.936046635408,-4.73363161749072,8.38922562660934,-0.214339136802807,12.336481655011,-4.73149351189087,-80.901531172176,-1.6161937963385,9.4767156202054,-0.363505766688067,4.97705604682494,-0.684813016829209,-2.42691613505135,1074.05341239281,0.0342944386412851,0.0613766127516559
92.425,-21.119925740387,36.8988585141485,29.3152202542878,0.0440043328999873,1.59181677802338,0.913019769468434,0.976583515027385,-2.57575375000128,-0.363074972032718,14.9663720270468,-0.0830980783800653,-1.08845805164281,-1.09477077337952,-1.03255214517897,4.99100953833678,8.4602413546755,0.216440018536066,-18.462729474662,6.4438028581638,-42.5172665730806,-1.04000000000002,8.51585285088142,-1.74012067733777,-9.87906152243906,-15.3695285490996,-16.0422738971521,-12.3620001219186,1.79261350720101,0.644827755834469,-30.4706546074107,-18.2469078453492,-68.0108738299472,0,0,0,-13.1430633174869,-9.62552581709609,-9.0710067660995,0.118298967175395,2.5762001935959,3.33392967747555,3.30448161875581,-32.8271320350379,-47.7175136027813,-50.4415067588139,0.623400520824553,4.14183912229845,1.67081422404916,1.62272145748845,3.45313761078178,8.98114643470875,-2.22812950126472,-22.6107486619416,-4.49707037139536,30.4265607185194,-5.01150846672201,8.36957762931784,-0.258732887953496,12.5574723288354,-3.93403115227373,-80.6757346895916,-1.58987396382473,9.61554154808179,-0.336357680063007,4.94851580610495,-0.530490795544176,-2.96428637202037,1094.68786082524,0.0432563936030151,0.0614873181987317
92.43,-20.8632559666836,35.1556335064258,30.0208329413038,0.0431134412762397,1.53616560212071,1.0180359423271,1.09632304134543,-2.58017894444653,-0.508343756868976,12.3376563785082,-0.0806702714617599,-1.07009339092683,-1.1036704480228,-1.03117276711063,4.68933279913498,8.46834005908361,0.0969841285165583,-18.2477638638297,3.93670393182858,-41.2324721083386,-1.04000000000002,8.71224643277789,-1.74417002954182,-11.2063491893224,-8.71309341367524,-22.846185440008,-12.1646400797179,2.07192392962058,0.744235115896606,-34.6870431305255,-11.5998962178468,-71.7312161674189,0,0,0,-13.1740400647799,-7.59176276301442,-8.88271895516234,0.113594696543617,2.54582708593033,3.25561254061472,3.21730401135503,-33.2077095702663,-47.8627823212435,-50.2169586053757,0.635727532726382,4.30797046895,1.83456823748544,1.76814795135053,3.55842076808712,9.01961528064724,-2.16536454210193,-22.8057174717663,-5.43442041862937,28.1694218047799,-5.06212536927264,8.35540489660366,-0.216214689810966,12.2075283112014,-5.44878882860388,-80.5657522840495,-1.5758114496939,9.60002421121129,-0.371756393608652,5.40204330316157,-0.714736338206426,-3.77921852239443,1117.76916838833,0.0547057483695566,0.060639836163555
92.435,-20.6065984316685,33.4124916202464,30.726411982855,0.0422225921325429,1.48051707981215,1.12304710773904,1.21383596580227,-2.58460392788689,-0.653605614908323,9.70906607403058,-0.07824258030766,-1.05172960588607,-1.11256969830623,-1.03115893048854,4.38767044467185,8.47643837732423,-0.0224660655326073,-18.0328085031219,1.42972455054993,-39.9477389059684,-1.04000000000002,8.90863065011296,-1.74821918866212,-12.5335735676464,-2.05697567454757,-29.649772554505,-11.9672894481619,2.35122103378617,0.843637735954925,-38.9032306051699,-4.95320153730342,-75.4513811092042,0,0,0,-13.2050153350204,-5.55809668409268,-8.69444012228215,0.108890650223809,2.51545542653423,3.17729913812051,3.13066773885451,-33.588268958559,-48.008044112912,-49.9924211589828,0.648053956843932,4.47409389402293,1.9983144427006,1.91522833890797,3.6636989052152,9.05808229229018,-2.10260257573711,-23.0006769849664,-6.3717257705531,25.9123905173476,-5.11273985827652,8.34123283968258,-0.17369851904771,11.8576009798165,-6.96347427731261,-80.4557751227571,-1.56174960610065,9.58450761424814,-0.407153419250732,5.85554917483687,-0.898973095557659,-4.59411181466481,1140.8493753741,0.0661545572008145,0.0597923945385459
92.44,-20.349928657965,31.6692666125236,31.432024669871,0.0413317005087954,1.42486590390947,1.22806328059771,1.32886523301321,-2.58902912233214,-0.798874399744581,7.08035042549193,-0.0758147733893546,-1.0333649451701,-1.12146937294951,-1.03284505612319,4.08599370547006,8.48453708173234,-0.141921955552115,-17.8178428922895,-1.0773743757853,-38.6629444412264,-1.04000000000002,9.10502423200943,-1.75226854086617,-13.8608612345297,4.59945946087684,-36.4536840973609,-11.7699294059612,2.63053145620574,0.943045096017061,-43.1196191282847,1.69381009019908,-79.171723446676,0,0,0,-13.2359920823135,-3.524333630011,-8.50615231134499,0.104186379592031,2.48508231886865,3.09898200125968,3.04471525607912,-33.9688464937874,-48.1533128313742,-49.7678730055446,0.660380968745761,4.64022524067448,2.16206845613688,2.0642114413082,3.76898206252053,9.09655113822867,-2.03983761657432,-23.1956457947911,-7.30907581778712,23.6552516036081,-5.16335676082716,8.3270601069684,-0.13118032090518,11.5076569621825,-8.47823195364276,-80.345792717215,-1.54768709196982,9.56899027737764,-0.442552132796377,6.30907667189349,-1.08321863821991,-5.40904396503887,1163.93068293719,0.077603911967356,0.0589449125033692
92.445,-20.0932711229499,29.9261247263443,32.1376037114222,0.0404408513650986,1.36921738160092,1.33307444600965,1.44117755985031,-2.59345410577251,-0.944136257783928,4.45176012101435,-0.0733870822352547,-1.01500116012934,-1.13036862323294,-1.03651581600962,3.78433135100692,8.49263539997296,-0.261372149601281,-17.6028875315817,-3.58435375706395,-37.3782112388563,-1.04000000000002,9.30140844934449,-1.75631769998648,-15.1880856128537,11.2555772000045,-43.2572712118579,-11.5725787744052,2.90982856037134,1.04244771607538,-47.3358066029291,8.34050477074241,-82.8918883884612,0,0,0,-13.2669673525539,-1.49066755108926,-8.3178734784648,0.0994823332722225,2.45471065947256,3.02066859876547,2.95958119529437,-34.3494058820801,-48.2985746230427,-49.5433355591517,0.67270739286331,4.80634866574741,2.32581466135204,2.21530615493413,3.87426019964861,9.13501814987162,-1.97707565020951,-23.3906053079912,-8.24638116971085,21.3982203161758,-5.21397124983104,8.31288805004731,-0.0886641501419242,11.1577296307977,-9.99291740235149,-80.2358155559226,-1.53362524837658,9.55347368041449,-0.477949158438457,6.76258254356879,-1.26745539557114,-6.22393725730925,1187.01088992296,0.0890527207986139,0.0580974708783601
92.45,-19.8036249632242,28.2521518373777,32.741948707222,0.039437222999933,1.31302793710478,1.43422684398034,1.54674695803277,-2.61748742926871,-1.44903730831634,1.87318121844101,-0.0709380047117961,-0.996703002215831,-1.13454632432755,-1.03767789606248,3.49960823615159,8.5069278425656,-0.37668041961683,-17.4342879252986,-5.69985981921114,-36.2505027804773,-1.01674224281551,9.47727834756353,-1.75777319346105,-16.4454626994411,17.3819524786483,-49.880947399746,-11.3622940673102,3.20713878640194,1.1432737864225,-51.1284349206982,14.6101551217022,-86.3624654401098,0,0,0,-13.2940546724053,0.340993338986387,-8.03928971919608,0.0944113651247665,2.42428721448696,2.93900978882975,2.872019255388,-34.7836350013246,-48.1998945033734,-49.272981164632,0.685468717161171,4.98048578261863,2.5147479452078,2.39391918563817,3.95416493127866,9.16084535089548,-1.90614431486882,-23.7071911909132,-9.09632174865413,19.2357132573362,-5.27039176384839,8.28218554768847,-0.0571752655143795,10.8465317627429,-11.4036655573038,-80.1089219512446,-1.527118805934,9.5423258213836,-0.508183644203991,7.24341262096864,-1.47570113364028,-6.96673210567854,1208.19793835902,0.100241611803999,0.0573916003042665
92.455,-19.1831863702014,27.2729690161311,32.3303869005384,0.0373027114657679,1.25144147125417,1.49661453586477,1.61055344004389,-2.83822071061935,-5.56160492328046,-0.20232244761543,-0.068275665551032,-0.979072846985997,-1.09135482906178,-0.993846242685789,3.38497084548104,8.58335276967929,-0.450375885047896,-17.730822034029,-3.88695810901837,-36.6986736493539,-0.760172844648084,9.44725426905458,-1.73320803831737,-17.0014641533106,18.1906818660949,-54.6962569608342,-11.022364189306,3.68500184613136,1.25832699742579,-50.6698852747195,17.0939653570182,-87.327329062065,0,0,0,-13.2821234813724,0.145156797513471,-6.85490550364305,0.0856620723024421,2.39336025580719,2.82383251150466,2.75193459625283,-35.7560551830949,-45.6540194804943,-48.5431293143891,0.702586285548677,5.23492536091448,2.95626084162066,2.8276364012055,3.77947938359018,9.05985526863808,-1.75329446064141,-25.2437770270618,-9.0693641024059,18.0226191761663,-5.38502915451895,8.08566430653894,-0.136329654310704,10.9240349957065,-11.7709634874358,-79.8123878425142,-1.596412238182,9.57501139158212,-0.486611169174481,7.99810860962333,-1.92469754268953,-6.98583825416041,1210.38150770512,0.108817098417887,0.0581063543396324
92.46,-18.5627181916275,26.2937395026514,31.9188054685719,0.0351680981476377,1.1898520686592,1.55900520269993,1.67131559899211,-3.05896451761404,-9.67436864561262,-2.27792508385289,-0.065613199436896,-0.961441851064006,-1.04816127421396,-0.952480228415514,3.27032798833817,8.65978134110786,-0.524074864639728,-18.0273702829582,-2.07396995079211,-37.1468658892128,-0.503591211995024,9.41722875885049,-1.70864171178676,-17.5574921200528,18.99944981772,-59.5117961394687,-10.6824181017802,4.16288769271214,1.37338569472974,-50.2113137628475,19.5778940325725,-88.2922386934438,0,0,0,-13.2701917214018,-0.0506890824049873,-5.67046481084928,0.0769123622709802,2.36243182237854,2.70864974196282,2.63289466315623,-36.7285217346226,-43.108023057824,-47.813242661235,0.719704670185689,5.48937707213571,3.39779479153104,3.26406669972243,3.60478550603915,8.9588603706789,-1.60043731778427,-26.7804361351494,-9.04240517068506,16.8094672487287,-5.49967201166181,7.88913369429404,-0.215487817576001,11.0015419244039,-12.1382789321322,-79.515839593585,-1.66570897468027,9.60769852038872,-0.465037665463695,8.75284058587941,-2.37371536208684,-7.00494531371702,1212.56518117451,0.117392993952981,0.0588211424579718
92.465,-17.9422500130535,25.3145099891717,31.5072240366055,0.0330334848295074,1.12826266606423,1.62139586953509,1.72905237280782,-3.27970832460873,-13.7871323679448,-4.35352772009035,-0.0629507333227601,-0.943810855142015,-1.00496771936613,-0.913601110404843,3.15568513119531,8.73620991253642,-0.597773844231559,-18.3239185318874,-0.260981792565861,-37.5950581290717,-0.247009579341963,9.3872032486464,-1.68407538525616,-18.1135200867951,19.8082177693451,-64.3273353181031,-10.3424720142544,4.64077353929292,1.48844439203369,-49.7527422509755,22.0618227081267,-89.2571483248227,0,0,0,-13.2582599614313,-0.246534962323446,-4.48602411805551,0.0681626522395183,2.3315033889499,2.59346697242098,2.51493755599279,-37.7009882861502,-40.5620266351537,-47.0833560080809,0.736823054822701,5.74382878335694,3.83932874144141,3.70332205479578,3.43009162848812,8.85786547271971,-1.44758017492713,-28.3170952432371,-9.01544623896422,15.596315321291,-5.61431486880467,7.69260308204913,-0.294645980841297,11.0790488531013,-12.5055943768286,-79.2192913446558,-1.73500571117854,9.64038564919532,-0.44346416175291,9.50757256213549,-2.82273318148414,-7.02405237327363,1214.7488546439,0.125968889488076,0.0595359305763111
92.47,-17.5093935755141,24.1800538972297,30.6754162586803,0.0303950190090597,1.08171367100964,1.62402159666431,1.72409654583337,-3.48354070074617,-16.7169607206903,-6.38839257546428,-0.0607851901587316,-0.929074271257046,-0.972190379964972,-0.887571016251017,3.12767545928578,8.8005502505195,-0.574924206688157,-18.4022108172998,0.804557939634493,-37.8983647645504,-0.0543327766232961,9.44306755740276,-1.70995882045464,-18.4208229078082,18.988976133555,-68.755246681421,-10.0383245104796,4.96817354566441,1.66374167261063,-46.8447275379015,22.7617458468884,-89.5382778930742,0,0,0,-13.236451417873,0.706144158502052,-3.21569010233143,0.0584953570662485,2.30518952172393,2.49535489029751,2.41514741362953,-38.3854308971842,-38.6117988784463,-46.0866033876939,0.752804880255868,5.99568074881349,4.18866038480205,4.05328970009127,3.39621747389624,8.90617629435089,-1.36913344467536,-29.2567291167229,-8.85059488648356,14.3656313307668,-5.76562604383136,7.5366161377921,-0.375392098116935,11.0811723240339,-12.2593771489488,-78.9323956932016,-1.78783444609345,9.63505170178644,-0.435478485536619,10.1917402494163,-3.03204935766995,-6.87116869008087,1218.7400334026,0.133939607245503,0.0607653604683469
92.475,-17.3282300272915,22.8371849607433,29.2796473885366,0.027080179081,1.05534100069098,1.54645381293037,1.63619612484234,-3.66470373899366,-18.0598296571766,-8.36882188533283,-0.0592861864280173,-0.918219822319364,-0.953386068756744,-0.877821437276493,3.21590881854226,8.84867753738667,-0.422521131608796,-18.1876515822953,0.867275254481972,-38.0072948377065,0.0526167497481958,9.61418679959713,-1.80353965602968,-18.3944156173461,15.9851468434917,-72.663525669811,-9.78217830596194,5.0936851705788,1.91988787712827,-40.6496756924593,21.067932457793,-88.901928945528,0,0,0,-13.201387571117,3.20004372467207,-1.82996083229733,0.0475957480616962,2.2850646342438,2.4201376454646,2.33934597754874,-38.6834735946099,-37.4607677786293,-44.7316533117079,0.767263432258775,6.24407244702907,4.41431211930078,4.28252932207869,3.5512942871349,9.15483394316459,-1.39052334994965,-29.3953673916489,-8.5006982878608,13.1112850338173,-5.96615640577789,7.43501408773919,-0.458277981054835,10.982144984801,-11.189881885234,-78.6584200546574,-1.81857198298594,9.57869971018409,-0.44572433913581,10.7812997481276,-2.91975239832778,-6.48748727952242,1225.15700498489,0.141099175314634,0.062685484384127
92.48,-17.1470751174224,21.4943800557722,27.8839450723157,0.0237654972132076,1.02896958789045,1.46888972783193,1.54580451192534,-3.84585813891203,-19.4026345621478,-10.3491567631343,-0.0577872541737349,-0.907365890950294,-0.934582654187426,-0.870187820495674,3.30413797060061,8.89680252941849,-0.270125323508029,-17.9731025780382,0.929989578803281,-38.1162197167909,0.159561176485587,9.78529788237694,-1.89711602942488,-18.3680095860529,12.9814607838924,-76.5716183012017,-9.52604431516758,5.21919081076952,2.17602186792263,-34.4549192433477,19.3741998341653,-88.2656103407697,0,0,0,-13.1663253962972,5.69382437516566,-0.444297637471595,0.0366966587791067,2.26494070637113,2.34492398718733,2.26462736841981,-38.9815020805777,-36.3097915629961,-43.3767678432976,0.781721294839976,6.49245230127659,4.6399530941326,4.5146874554824,3.70636370590411,9.40347973532901,-1.41191223529712,-29.5339990559381,-8.15081837322615,11.8569985473913,-6.16667720591048,7.33341688233868,-0.541159911776307,10.8831223674516,-10.1204376178602,-78.3844574799906,-1.849308054232,9.52235040559259,-0.455969704185811,11.3708311350948,-2.80746079359934,-6.10382416390059,1231.57367058914,0.14825840199677,0.0646055167433595
92.485,-16.9659115691998,20.1515111192858,26.4881762021719,0.0204506572851478,1.00259691757178,1.39132194409799,1.45324817736055,-4.02702117715951,-20.7455034986341,-12.3295860730029,-0.0562882504430206,-0.896511442012612,-0.915778342979199,-0.864414791997184,3.3923713298571,8.94492981628566,-0.117722248428668,-17.7585433430336,0.992706893650759,-38.225149789947,0.266510702857079,9.9564171245713,-1.99069686499992,-18.3416022955908,9.97763149382918,-80.4798972895917,-9.26989811064994,5.34470243568391,2.43216807244027,-28.2598673979054,17.6803864450699,-87.6292613932235,0,0,0,-13.1312615495413,8.18772394133568,0.94143163256251,0.0257970497745543,2.244815818891,2.26970674235442,2.190961294008,-39.2795447780034,-35.1587604631791,-42.0218177673116,0.796179846842883,6.74084399949216,4.86560482863133,4.74969729873332,3.86144051914277,9.6521373841427,-1.43330214057141,-29.6726373308641,-7.8009217746034,10.6026522504418,-6.36720756785701,7.23181483228577,-0.624045794714206,10.7840950282187,-9.05094235414535,-78.1104818414464,-1.88004559112449,9.46599841399024,-0.466215557785002,11.9603906338061,-2.69516383425716,-5.72014275334215,1237.99064217142,0.155417970065901,0.0665256406591396
92.49,-16.7847195501088,19.3224418213444,25.0792878153969,0.0127956900086744,0.977712640577187,1.32030906046859,1.36549234979833,-4.23725486674537,-21.0298071336397,-14.1708646096214,-0.0547977654191216,-0.882628763115731,-0.914896252149523,-0.878118168225311,3.42569448105003,8.96949080175002,0.0040282536503126,-17.7241657344446,0.400716232898695,-37.9733635028383,0.243055189499772,10.01,-2.02759264140002,-17.8201270164793,6.55302472715013,-83.1753638269197,-9.18969058990479,5.38400411605835,2.51237559318542,-26.3199996948242,17.1499996185303,-87.4300003051758,0,0,0,-13.0539016525548,8.83245186325394,2.27532681265196,0.0158271177191169,2.23093094907418,2.24448511918579,2.16831892383535,-39.5886091810846,-34.1173790408943,-40.4946199564967,0.810572585095663,6.95354759444274,5.13650903678658,5.03264316010038,4.07893627115073,9.79833377260029,-1.50074113120025,-29.5684146888265,-6.84538779462609,8.99130446666159,-6.43949080175005,7.37273259185071,-0.667083443150054,10.2469103264176,-7.96615887407095,-76.7709681638837,-1.88967049121857,9.4483528137207,-0.469423860311508,12.1450004577637,-2.66000008583069,-5.59999990463257,1240,0.157659858465195,0.0671268925070763
92.495,-16.6035019714362,18.7275639394698,23.6643202315862,0.00316146202237664,0.953505216865161,1.25227972419429,1.27943707928144,-4.46075689852982,-20.831514682059,-15.9488300492254,-0.0533110607244806,-0.867364504878321,-0.922185109607484,-0.901194268441931,3.43398555690264,8.98330926150438,0.111812239734332,-17.7719332496448,-0.489806729049075,-37.5571037275217,0.160144430973597,10.01,-2.03864740920351,-17.0729066001323,2.93634143341591,-85.3180780801887,-9.18969058990479,5.38400411605835,2.51237559318542,-26.3199996948242,17.1499996185303,-87.4300003051758,0,0,0,-12.957252980106,8.63415941167321,3.58568265828664,0.00628034718775486,2.21989003309831,2.24205550003313,2.1694668592156,-39.9027200022053,-33.1259162558582,-38.8887857896396,0.824936317089151,7.14999521393189,5.42806333510502,5.33869559670983,4.32490485477836,9.89782668283169,-1.58917927362816,-29.3534608704254,-5.6136682955336,7.21708247350895,-6.45330926150441,7.62422855938011,-0.691956670707915,9.509925806185,-6.87432995520778,-74.9455666901593,-1.88967049121857,9.4483528137207,-0.469423860311508,12.1450004577637,-2.66000008583069,-5.59999990463257,1240,0.157659858465195,0.0671268925070763
92.5,-16.4222930336934,18.1327144229339,22.2494201171433,-0.00647230657864612,0.929298947426628,1.18425363173728,1.19262723621506,-4.68424827315083,-20.6332316855827,-17.7267107107711,-0.0518244269198213,-0.852100974480805,-0.929473619513592,-0.925083734467045,3.442276237415,8.99712706235832,0.219591086395021,-17.8196984871646,-1.38028722852488,-37.1408638005637,0.0772376258499845,10.01,-2.04970164988667,-16.3257218132159,-0.680169407367054,-87.4606901632186,-9.18969058990479,5.38400411605835,2.51237559318542,-26.3199996948242,17.1499996185303,-87.4300003051758,0,0,0,-12.8606089161195,8.43587641519699,4.89597602271564,-0.00326596812853318,2.2088496435823,2.2396259967311,2.17158425967745,-40.2168158456978,-32.1345007463698,-37.28302819317,0.839299364182202,7.34643346628298,5.71960373134934,5.64689633914117,4.5708617099784,9.99731484898001,-1.67761319909335,-29.1385173015864,-4.3820075280594,5.4429450799173,-6.46712706235835,7.87571253492173,-0.716828712245007,8.77297642730848,-5.78255309761291,-73.1202522563679,-1.88967049121857,9.4483528137207,-0.469423860311508,12.1450004577637,-2.66000008583069,-5.59999990463257,1240,0.157659858465195,0.0671268925070763
92.505,-16.2420919855279,17.6300820314305,20.8845095292983,-0.0156012277189969,0.904146945537881,1.11835309571986,1.10775028667406,-4.90501805422863,-20.3969660795315,-19.4148446126012,-0.0504030763644343,-0.836311308994791,-0.935790100721116,-0.948401142792134,3.45197547087165,9.00999999999999,0.317485764345153,-17.8790523623346,-2.23603878370997,-36.7238201846174,-0.00556723609286031,10.0026368812965,-2.05748576434516,-15.605684528155,-4.16201337854132,-89.4685409602916,-9.18969058990479,5.38400411605835,2.51237559318542,-26.3199996948242,17.1499996185303,-87.4300003051758,0,0,0,-12.7642929634733,8.27692265328847,6.16931034771437,-0.0127656112203021,2.19609239253172,2.23688898387312,2.17433716054878,-40.5298450272281,-31.2495343028272,-35.724276538428,0.852935814805576,7.53914922514956,6.00668078036983,5.95243991064294,4.78886552781429,10.0790451160753,-1.75802452912833,-28.9726372598325,-3.10841269068749,3.66529852965829,-6.47120017520808,8.12167323696891,-0.735510293473509,8.09417973967544,-4.90156443492695,-71.4193096586147,-1.89255227783611,9.45867562429768,-0.473208892961578,12.1387148617758,-2.65497161503481,-5.62074235255291,1239.94612352168,0.157976078043316,0.0672907876997103
92.51,-16.0757385608617,18.3833023257477,20.2011392144362,-0.0178504737650696,0.866136669866592,1.08143715670332,1.05225418910776,-5.08858048838315,-19.6437457852143,-19.8799328151527,-0.0498715238519663,-0.813369510018537,-0.928868365088614,-0.958451070964069,3.48084487829297,9.00999999999999,0.280742882172577,-18.0961399377811,-2.61837212554106,-36.2961252598572,-0.0869264751892879,9.89503272636255,-2.02074288217259,-15.2557523169875,-5.80799081625479,-89.6402669528089,-9.18969058990479,5.38400411605835,2.51237559318542,-26.3199996948242,17.1499996185303,-87.4300003051758,0,0,0,-12.6725112458139,8.65353280044707,6.93857353147681,-0.021623209090105,2.15996958987852,2.22996724824062,2.17382548166801,-40.8281338575837,-31.8144496487106,-34.8065798210983,0.856670417569232,7.68105030041642,6.23279093617708,6.19841333927494,4.62614704962144,9.91895112946623,-1.72915512170701,-29.4748547851191,-1.26478835592576,1.84111487329475,-6.34260008760404,8.29226518991303,-0.669898003879616,8.20758369699822,-6.89099385767511,-71.4128294324819,-1.93466652672563,9.60953253064598,-0.528523122720893,12.046857556228,-2.58148585819839,-5.92387118554072,1239.15877604656,0.162597291125395,0.0696859417657225
92.515,-15.9093772036495,19.1365585372979,19.5177363131302,-0.0200998270662111,0.828124581679178,1.044519457354,0.997747127894829,-5.27215167569365,-18.890489573664,-20.3450431953878,-0.0493399459924709,-0.790426617064934,-0.921946299393852,-0.968036807685651,3.50971566234904,9.00999999999999,0.243998247919405,-18.3132378650264,-3.00072369889862,-35.868409940508,-0.168289593892749,9.78742344033541,-1.98399824791941,-14.9058034193382,-7.45404674223481,-89.8120011340627,-9.18969058990479,5.38400411605835,2.51237559318542,-26.3199996948242,17.1499996185303,-87.4300003051758,0,0,0,-12.5807251515528,9.0301609062222,7.70787339747586,-0.0304812293335605,2.12384506471316,2.22304518254586,2.17421407072354,-41.1264369118117,-32.3793919325248,-33.8888393434941,0.860405198417041,7.8229581422216,6.4589118740241,6.44534246606504,4.46342081221451,9.75884950879169,-1.70028433765094,-29.9770962585972,0.578923891874682,0.0168442309192722,-6.21399386771793,8.46286527751705,-0.604282585570374,8.32099306197716,-8.88051814616275,-71.4063488973403,-1.97678278382882,9.7603966305905,-0.583839990133622,11.9549958704738,-2.50799659720112,-6.22701447319607,1238.37139102684,0.16721872456955,0.0720812100444126
92.52,-15.7430237789833,19.8897788316151,18.8343659982682,-0.0223490731122838,0.790114306007889,1.00760351833746,0.944813340583539,-5.45571410984817,-18.1372692793468,-20.8101313979393,-0.0488083934800029,-0.76748481808868,-0.91502456376135,-0.976728887857955,3.53858506977035,9.00999999999999,0.207255365746829,-18.5303254404729,-3.38305704072971,-35.4407150157478,-0.249648832989176,9.67981928540143,-1.94725536574684,-14.5558712081708,-9.10002417994827,-89.9837271265801,-9.18969058990479,5.38400411605835,2.51237559318542,-26.3199996948242,17.1499996185303,-87.4300003051758,0,0,0,-12.4889434338935,9.40677105338081,8.4771365812383,-0.0393388272033633,2.08772226205996,2.21612344691336,2.1754861841587,-41.4247257421673,-32.9443072784082,-32.9711426261644,0.864139801180697,7.96485921748846,6.68502202983136,6.69272469441293,4.30070233402166,9.5987555221826,-1.67141493022963,-30.4793137838838,2.42254822663641,-1.80733942544427,-6.0853937801139,8.63345723046117,-0.538670295976481,8.43439701929994,-10.8699475689109,-71.3998686712075,-2.01889703271834,9.9112535369388,-0.639154219892936,11.863138564926,-2.43451084036469,-6.53014330618388,1237.58404355172,0.17183993765163,0.0744763641104249
92.525,-15.6196250915527,20.44850730896,18.35365451674,-0.0228432628864082,0.752390008211084,0.980219781398773,0.903530128898402,-5.5918782043457,-17.578540802002,-21.0553723612445,-0.0480775954651283,-0.744356890315945,-0.909890115261078,-0.985897982144798,3.57269984479159,8.99669540069452,0.163671628125113,-18.7652724652773,-3.4217784190688,-35.2048373358191,-0.328142635416553,9.57218129236131,-1.90004310104181,-14.1686258989206,-10.9832311775506,-90.0259975128606,-9.08917169893475,5.5065386572001,2.44516988060535,-27.2259219289405,17.2579482900309,-89.6313068279954,0,0,0,-12.4208610153198,9.68613529205322,9.09828616482299,-0.0480363406102331,2.04079781295268,2.21098899841309,2.17941135776551,-41.6459923028946,-33.363353729248,-32.2675057635365,0.866322980309905,8.10445462156881,6.85274744033813,6.88169073562948,4.15943834652791,9.43766718402806,-1.6572570541666,-31.0071468381334,3.80206922496563,-3.27323201431685,-5.93920062083367,8.75334770034726,-0.440410129861439,8.47446849837135,-12.6682147530843,-71.6720542279646,-2.02522434657131,10.0121493090836,-0.684965272402182,11.881782374413,-2.46889901529376,-7.04921317160424,1234.58098194446,0.176263618001124,0.0764110225930846
92.53,-15.6196250915527,20.44850730896,18.4551146605487,-0.0182964353864923,0.71549407011023,0.980219781398773,0.892242231414936,-5.5918782043457,-17.578540802002,-20.6691161135675,-0.046774653388691,-0.720698628047215,-0.909890115261078,-0.998497579508865,3.62187422535368,8.94517938296281,0.100447424545274,-19.0514725637869,-2.47355991087545,-35.5199465351882,-0.39839175050527,9.46446598255861,-1.82276907444421,-13.6742802742222,-13.547468423793,-89.6964337630617,-8.69995795031351,5.98099801138835,2.18494628412886,-30.7336943018453,17.6759304890782,-98.1548664827316,0,0,0,-12.4208610153198,9.68613529205322,9.29390467123842,-0.0562724486591278,1.96285721026514,2.21098899841309,2.18931630494169,-41.6459923028946,-33.363353729248,-32.1788280472535,0.864049710170906,8.23740183207798,6.85274744033813,6.90240625751875,4.0798226827607,9.27375258215439,-1.68535670020208,-31.6084561360121,3.84832378634091,-3.70975943729611,-5.74250309858526,8.72758969148139,-0.248395881952287,8.30390480329999,-13.917087910217,-72.744581869854,-1.92876216841131,9.96952656212907,-0.703472551581558,12.217807406513,-2.81311963009896,-8.18841960103041,1225.21443326596,0.180119122045514,0.0770226744374295
92.535,-15.6196250915527,20.44850730896,18.556579642474,-0.01374939107157,0.678596372630323,0.980219781398773,0.883986777025456,-5.5918782043457,-17.578540802002,-20.2828414473006,-0.0454716491815935,-0.697039237636658,-0.909890115261078,-1.00903029674758,3.67105095079111,8.89366090869503,0.0372202061257241,-19.337686309719,-1.52529618697906,-35.8350707605074,-0.468644215415889,9.35674553636232,-1.74549136304253,-13.1799110767031,-16.1118279454274,-89.3668542980489,-8.3107256420743,6.45547999012261,1.92471027891666,-34.2416339425186,18.0939326195641,-106.678832582542,0,0,0,-12.4208610153198,9.68613529205322,9.48953250570242,-0.0645089494459962,1.8849128909879,2.21098899841309,2.20003944622634,-41.6459923028946,-33.363353729248,-32.0901461023827,0.861776331631253,8.37035538216135,6.85274744033813,6.92212090120039,4.00020322252866,9.10983016402961,-1.71345768616633,-32.2097941072635,3.89458055336025,-4.14630767604108,-5.54579619683553,8.70183045434749,-0.056372477863273,8.13333297491618,-15.1660206197391,-73.8171606551149,-1.83229539046216,9.92690178271319,-0.721980713278656,12.5538484619324,-3.15735665902913,-9.32768035339918,1215.84743794455,0.183974809939222,0.0776343554483302
92.54,-15.6196250915527,20.44850730896,18.6580397862827,-0.00920256357165419,0.641700434529468,0.980219781398773,0.879095649037049,-5.5918782043457,-17.578540802002,-19.8965851996236,-0.0441687071051562,-0.673380975367929,-0.909890115261078,-1.01717139941184,3.7202253313532,8.84214489096331,-0.0260039974541147,-19.6238864082286,-0.577077678785705,-36.1501799598766,-0.538893330504606,9.24903022655962,-1.66821733644493,-12.6855654520047,-18.6760651916698,-89.03729054825,-7.92151189345306,6.92993934431086,1.66448668244017,-37.7494063154235,18.5119148186114,-115.202392237278,0,0,0,-12.4208610153198,9.68613529205322,9.68515101211785,-0.0727450574948908,1.80697228830037,2.21098899841309,2.2115429323872,-41.6459923028946,-33.363353729248,-32.0014683860997,0.859503061492254,8.50330259267052,6.85274744033813,6.9403924830326,3.92058755876144,8.94591556215593,-1.74155733220182,-32.8111034051422,3.94083511473553,-4.58283509902034,-5.34909867458712,8.67607244548163,0.135641770045878,7.96276927984482,-16.4148937768718,-74.8896882970043,-1.73583321230216,9.88427903575866,-0.740487992458032,12.8898734940325,-3.50157727383433,-10.4668867828253,1206.48088926605,0.187830313983612,0.0782460072926751
92.545,-15.6196250915527,20.44850730896,18.7595047682079,-0.00465551925673191,0.604802737049562,0.980219781398773,0.877798042905487,-5.5918782043457,-17.578540802002,-19.5103105333567,-0.0428657028980587,-0.649721584957371,-0.909890115261078,-1.02264117626418,3.76940205679063,8.79062641669553,-0.0892312158736644,-19.9101001541607,0.371186045110679,-36.4653041851958,-0.609145795415224,9.14130978036333,-1.59093962504324,-12.1911962544855,-21.2404247133042,-88.7077110832373,-7.53227958521384,7.40442132304512,1.40425067722797,-41.2573459560968,18.9299169490974,-123.726358337089,0,0,0,-12.4208610153198,9.68613529205322,9.88077884658184,-0.0809815582817592,1.72902796902313,2.21098899841309,2.22377409624491,-41.6459923028946,-33.363353729248,-31.9127864412289,0.857229682952601,8.63625614275389,6.85274744033813,6.95682667422167,3.8409680985294,8.78199314403115,-1.76965831816607,-33.4124413763936,3.98709188175486,-5.01938333776532,-5.15239177283739,8.65031320834773,0.327665174134893,7.79219745146102,-17.6638264863938,-75.9622670822651,-1.63936643435301,9.84165425634278,-0.758996154155131,13.2259145494519,-3.8458143027645,-11.6061475351941,1197.11389394464,0.19168600187732,0.0788576883035758
92.55,-15.2905331407293,23.9208944709308,19.7265766126147,0.0031134534058226,0.57525481381134,0.918764273448604,0.818755010217437,-5.79756041719797,-16.8068992959237,-18.9033994068883,-0.0432084955455938,-0.627319792953415,-0.90516276849568,-1.02048379869031,3.69471699827381,8.76311321366924,-0.135707536762299,-20.4579546862034,0.70801297042176,-40.2233278197664,-0.483632104245357,9.02707549741074,-1.24316045633297,-12.1652690471624,-26.9543429874431,-87.0772190985086,-1.41651996270732,14.0254257722103,-3.39307513084168,17.0725601545929,4.67828111661308,-97.1892293285359,1.88207504315436,0,0,-12.2856988725188,9.49322472322437,9.85992161327489,-0.0872740572129934,1.61435832581834,2.22280736532658,2.24847998885297,-42.104369424867,-35.0995475666458,-32.4761384116319,0.860152350571459,8.80197547119476,7.06311430729524,7.18145589626875,3.78353774870535,8.67514153330995,-1.68127360510842,-33.8778242609441,3.55281864082324,-4.77242027640261,-5.28712261028695,8.59353774870535,0.252028319640742,7.39843940900844,-17.9744350596838,-77.3993125106053,-1.68777713512582,9.94609864112176,-0.723804300878125,15.1967688031855,-3.65238205330672,-14.3113670023964,1189.20283196407,0.193339419167817,0.0782979055422019
92.555,-14.9573744038752,27.4361919975214,20.7043501765511,0.0109224608579749,0.545795935007778,0.856549323036799,0.76266100608012,-6.00578436815075,-16.0257221543194,-18.293743097543,-0.0435715633905888,-0.604932399762052,-0.900377003079388,-1.01519652261908,3.61850367947669,8.73589417124169,-0.181979908889132,-21.009056285971,1.03732978003898,-44.0239126327979,-0.355702604835883,8.91275551921505,-0.892034809017633,-12.1451067935123,-32.7073060289195,-85.4306350504225,4.77002457120878,20.7224093792442,-8.24648103282602,76.1664641689661,-9.75461602676083,-70.2192408692376,3.78740801308258,0,0,-12.1488664502934,9.29793024313755,9.83639858785001,-0.093542930542072,1.4992310833065,2.23477177886731,2.27389508344664,-42.5684109870414,-36.8571965895222,-33.0475436741939,0.863139119099664,8.96810612386858,7.27608080342501,7.40624745109597,3.72637775960751,8.56898726784252,-1.59145076509753,-34.3415560948949,3.11260943613083,-4.51703173016884,-5.42593972666745,8.53637775960751,0.173093096600868,7.00191508722443,-18.273508488826,-78.8409136465827,-1.73797351690726,10.0523583899312,-0.687949737827433,17.1878416425448,-3.45232212001817,-17.0359929521122,1181.30930966009,0.194965807804785,0.0777236758294527
92.56,-14.6242315529041,30.9513219055002,21.6820771176779,0.0187310959561576,0.51633846088087,0.794337339197109,0.710157962156231,-6.21399839043907,-15.2445822612915,-17.6841158582105,-0.043934613923556,-0.582546074060351,-0.89559146586095,-1.00672802049712,3.54229399473063,8.70867642668951,-0.228250074627822,-21.560131607768,1.36663088696645,-47.824316223971,-0.227779205440685,8.79844099209596,-0.540925904294674,-12.1249455012515,-38.4599947540198,-83.7841295157851,10.9562741144452,27.4190736565238,-13.0996555116794,135.257550430907,-24.1868249717205,-43.2505384097704,5.69265013173435,0,0,-12.0120405525969,9.10264507520408,9.81287668406472,-0.0998115049548178,1.38410933036373,2.24673562191341,2.29975528900667,-43.0324304224962,-38.6147618030802,-33.6189216906534,0.866125745210907,9.13422885499687,7.48903714475332,7.6284007870842,3.66922049604796,8.46283806408907,-1.50163220807538,-34.8052658168948,2.67242122176861,-4.26165536153121,-5.56475022388352,8.47922049604796,0.0941616373995906,6.60540967276074,-18.5725676573622,-80.2824460432346,-1.78816750519348,10.1586130719969,-0.652096884416407,19.1788195423257,-3.25227172611228,-19.7604889845121,1173.41616373996,0.196592118891273,0.0771494734974832
92.565,-14.1739078252032,33.6121926237013,22.9449357949161,0.0249755707930906,0.489337795746507,0.742501516850043,0.671384003101082,-6.34739650343557,-12.8422827134402,-16.7781597760673,-0.0499642010841586,-0.563140045351602,-0.870965049657139,-0.975192974131408,3.43971138013253,8.72988407782593,-0.268670451701283,-22.1277370310035,1.8666216833988,-51.4811163786746,-0.153872722722052,8.84658859483885,-0.488148801917998,-11.8649130998399,-44.6681474065585,-80.3818063010077,13.8408157175278,29.2519484096298,-14.1964615958559,175.486368569947,-37.0214799918645,-10.2575429129427,13.676247809993,0.0312848112859007,-0.0132044054466821,-11.8916210192234,8.15991643783206,9.61123287276945,-0.106128713998835,1.26633443975195,2.21225974161012,2.27947841136756,-43.591511187499,-40.1940362347463,-34.375733239236,0.866540885746674,9.28471402667103,7.73120665851423,7.87702527679741,3.60832387074677,8.44895907156876,-1.41485569006626,-35.2101613071363,2.55448366575579,-3.83058790659159,-5.67647385823247,8.47728294231554,0.0443352258506613,6.28837543562293,-18.6707351641816,-81.6194934324591,-1.85728896713046,10.2767932213408,-0.65116829366513,21.6769274069817,-3.01789095006886,-23.8361957350754,1158.54920764559,0.19961516266275,0.0771681456751361
92.57,-13.4674639983814,34.4050216202949,24.8309763050269,0.0277994271805828,0.467712469729107,0.713358614542659,0.658315288243285,-6.31720690254235,-6.89606260445887,-15.2244877881261,-0.0683814261184333,-0.550252685703516,-0.802964944273244,-0.897083189006098,3.27948612227156,8.85695928233635,-0.296295496160077,-22.7313954099178,2.73970950826913,-54.8234057082564,-0.19807279385612,9.24991424393716,-1.08761226667371,-11.0804982571829,-51.8711219617388,-73.1413162533524,9.50650867271973,20.4510091050617,-7.08068214288766,174.471147343037,-46.361507902753,35.9011444423051,34.94753204326,0.130961775351021,-0.0552751417916185,-11.8070884506234,5.5832211039266,9.0201979029726,-0.112551291492406,1.14277697907538,2.07625953084233,2.15781114946321,-44.3583363237309,-41.3832797296366,-35.5378367531336,0.861334012825794,9.40098847733079,8.03720713274176,8.18670020033168,3.5392612595998,8.63680937388852,-1.33474306113576,-35.4864117517242,3.14108954809055,-3.01547857009153,-5.72896144270417,8.59607063348833,0.058147748080043,6.14513446435515,-18.3296852325916,-82.7279057101266,-1.96778041150019,10.4210276541827,-0.726593557101722,25.2833765184755,-2.70849045081317,-30.865388740215,1128.43790918551,0.205691375728245,0.0784829961452971
92.575,-12.7609864848576,35.1978884228584,26.7171067507874,0.0306234182233794,0.446086112510238,0.684214322558946,0.647824741207665,-6.28701586206108,-0.949558950576982,-13.6707417134944,-0.0867995293762087,-0.537364711522997,-0.734961596311247,-0.815864416107624,3.11925322408549,8.98404054641496,-0.323921857916304,-23.3350825742204,3.61283896624351,-58.1658544145646,-0.242274972666081,9.65325912557798,-1.68710431678371,-10.2960460097841,-59.0744399900276,-65.9004809436664,5.17199494692147,11.6496501285989,0.0354366252993081,173.455877705406,-55.7019811919217,82.0620328698602,56.2198305955502,0.230643492502025,-0.0973478842753343,-11.7225518510966,3.00640290056646,8.42913474973339,-0.11897417524593,1.01921362657387,1.94025283491833,2.03607819742269,-45.1251980259414,-42.572579933482,-36.6999956818189,0.856126891615709,9.5172684725259,8.34322219857075,8.49364164889997,3.47019535520925,8.82466863383082,-1.25462661204272,-35.7626753692864,3.72772340266709,-2.20033036518575,-5.78145153004099,8.71486398904009,0.0719609289581409,6.00188666265624,-17.9886190380704,-83.8363708423206,-2.0782771246432,10.5652689648289,-0.802022417184322,28.8899976031281,-2.39907519782616,-37.8949169317075,1098.32517487123,0.211767878537341,0.079797909313969
92.58,-12.0545426580358,35.990717419452,28.6031472608981,0.0334472746108717,0.424460786492838,0.655071420251562,0.639407100361502,-6.25682626116785,4.99666115840438,-12.1170697255532,-0.105216754410483,-0.524477351874911,-0.666961490927351,-0.731709609881919,2.95902796622452,9.11111575092538,-0.351546902375099,-23.9387409531346,4.48592679111385,-61.5081437441464,-0.286475043800149,10.0565847746763,-2.28656778153942,-9.51163116712714,-66.2774145452079,-58.6599908960111,0.837687902113378,2.84871082403081,7.1512160782675,172.440656478496,-65.0420091028103,128.220720225108,77.4911148288172,0.330320456567145,-0.139418620620271,-11.6380192824966,0.429707566661,7.83809977993655,-0.1253967527395,0.8956561658973,1.80425262415054,1.91407739474796,-45.8920231621733,-43.7618234283723,-37.8620991957165,0.850920018694828,9.63354292318566,8.64922267279828,8.79791687084895,3.40113274406228,9.01251893615059,-1.17451398311223,-36.0389258138743,4.31432928500185,-1.38522102868569,-5.83393911451269,8.83365168021288,0.0857734511875225,5.85864569138846,-17.6475691064804,-84.9447831199881,-2.18876856901293,10.7095033976708,-0.877447680620915,32.496446714622,-2.08967469857047,-44.9241099368472,1068.21387641115,0.217844091602835,0.08111275978413
92.585,-11.6260921339667,35.4134916939095,30.1752131081572,0.0406528606606795,0.385642115141146,0.639457140278293,0.646025737213963,-6.22677595692993,6.26961771026463,-9.7344308328254,-0.119150425623505,-0.513660096794557,-0.631086231570259,-0.676976953700579,2.81668528961522,9.45470109513403,-0.268589671459796,-24.722984407864,4.42863617956403,-63.0927743961191,-0.473298747857494,10.5723026599851,-2.43000798126368,-9.21517880954307,-68.4227042640559,-53.5502542584104,-0.488584011793137,0.155676275491714,9.3286018371582,172.130004882812,-67.9000015258789,142.345001220703,84,0.360821008682251,-0.152292013168335,-11.6163154632452,-0.768659058463221,6.72566121075266,-0.127425148881661,0.759988999477051,1.67223156273851,1.79554800168675,-46.4013845015349,-44.5356379283384,-39.1192671966436,0.851852304220271,9.68663325039613,8.84163374752892,8.98610268301375,3.26954585301391,9.26043818445877,-1.09286854466235,-36.6312919486802,4.15527038812266,-0.131887595507422,-5.96616729251987,9.01663740203326,0.0652430360203346,5.05541316567674,-16.5675080672791,-85.1005656989162,-2.22257828712463,10.7536382675171,-0.900527358055115,33.5999984741211,-1.99500000476837,-47.0750007629395,1059,0.219703376293182,0.0815150961279869
92.59,-11.3202179885531,34.2322203652852,31.6088143364823,0.0497902017884668,0.339243706256626,0.629807964191731,0.659518386002248,-6.19678770040577,5.48210351298899,-6.98635015282709,-0.131107003024698,-0.503755779156027,-0.609375585375494,-0.634010228264436,2.68223004356987,9.8937386332413,-0.136878410027613,-25.586831415714,3.9611425047276,-63.9024192387706,-0.723001347655991,11.1375634902982,-2.37238430438709,-9.13387556174542,-68.3380133809334,-49.3800751734564,-0.488584011793137,0.155676275491714,9.3286018371582,172.130004882812,-67.9000015258789,142.345001220703,84,0.360821008682251,-0.152292013168335,-11.6223133238994,-1.35929474730851,5.38335894908392,-0.127516105861876,0.618985510561675,1.54196768556992,1.67802121190309,-46.7972192295328,-45.1262733309638,-40.4183227425089,0.855491327844092,9.71186455325362,8.98395916022741,9.12189986313194,3.11039474545003,9.53483664577581,-1.01054900626725,-37.363021178859,3.66745090133682,1.31463268822561,-6.13355035392325,9.22792421724738,0.0295712360491208,3.96120695573347,-15.1616394074449,-84.8363301435739,-2.22257828712463,10.7536382675171,-0.900527358055115,33.5999984741211,-1.99500000476837,-47.0750007629395,1059,0.219703376293182,0.0815150961279869
92.595,-11.0143584280215,33.0510053627781,33.0423472069385,0.0589271072238487,0.292847509770011,0.620159248203208,0.67330809355551,-6.16680087380037,4.69462686645707,-4.23840050852781,-0.1430630103049,-0.493851933781355,-0.587665974401318,-0.589012965306494,2.54778120870352,10.3327552368865,-0.00517342893404354,-26.4506372330715,3.49367112121649,-64.7120254754312,-0.972692040979197,11.7027973674914,-2.31476337515864,-9.05257619070001,-68.2533265360944,-45.2100949335856,-0.488584011793137,0.155676275491714,9.3286018371582,172.130004882812,-67.9000015258789,142.345001220703,84,0.360821008682251,-0.152292013168335,-11.6283108985599,-1.94990227309406,4.04112069190982,-0.127607058505024,0.477988745062708,1.41171001972486,1.55949160013459,-47.193035083092,-45.7168805705431,-41.7173163459964,0.859130177949715,9.73709465301638,9.12627778647669,9.25561969967149,2.95125122662864,9.80922202305407,-0.928233393083788,-38.0947155182677,3.17965467506436,2.76108399807519,-6.30092543406298,9.43920095775163,-0.00609886299705158,2.86705292041398,-13.755837783118,-84.5721071876763,-2.22257828712463,10.7536382675171,-0.900527358055115,33.5999984741211,-1.99500000476837,-47.0750007629395,1059,0.219703376293182,0.0815150961279869
92.6,-10.7120887402079,31.776336743469,34.3795741102178,0.0686165120816594,0.244162603137428,0.610290479544017,0.686569180862688,-6.13685387477871,3.90819479557904,-1.54541598128021,-0.156003568551331,-0.484600302807039,-0.565752308953393,-0.54220429656124,2.40516735576619,10.7730435722918,0.124502766999559,-27.2886088514144,3.05412419182958,-65.3490471579652,-1.18788346797276,12.2678112079384,-2.24159162903122,-9.19047354289809,-67.3967089707013,-41.3621804914556,-0.508629964353565,0.331617578407044,9.26091501986842,171.097745451167,-67.2923266041333,143.081071215056,89.03250429362,0.359960068784198,-0.152438385865099,-11.6354583276749,-2.549228414565,2.69996849114633,-0.127144532421187,0.336757014671116,1.28267296982755,1.44091814947384,-47.5915100477297,-46.3257085202403,-43.0002274187251,0.861972625832792,9.75974140461546,9.26724336522354,9.38617401981816,2.80105947458814,10.0869515934101,-0.84721887920618,-38.7474501747682,2.63152031449638,4.23422896636644,-6.46966770561667,9.64542980726415,-0.0422513834997973,1.81767754226671,-12.3903232367495,-84.3142841885628,-2.22977833686898,10.7502444055864,-0.901510625055869,33.6092688868712,-1.99731760637715,-47.3744347259733,1057.98025570892,0.219845421663162,0.0815759939576339
92.605,-10.4788411684645,28.7136283855828,33.8716411108049,0.0888747705259949,0.151704788711696,0.596218059577982,0.694739245531782,-6.10769818274122,3.14251764249987,0.0926187549161734,-0.187781921946333,-0.487844864766882,-0.539952864398044,-0.490376261370186,2.10636295401057,11.2372575535907,0.215211246103935,-27.6311535800584,3.14964147193223,-62.6811507137186,-0.742344761783593,12.8280694612302,-1.87075402328096,-13.5249818399703,-51.761518327691,-43.6842385077442,-0.912456737787515,3.87596442128637,7.89736050941298,150.302824662461,-55.0506831997838,157.909240140685,190.412569174989,0.342616389051177,-0.155387071574829,-11.6646140197124,-3.31490556764418,1.38089827167046,-0.116085539496361,0.191162312574918,1.17712980418038,1.34432498719256,-48.0405136078932,-47.2828055817635,-43.9739897579024,0.849564415554992,9.73290558272548,9.38216806467189,9.48914985008994,2.82240264614211,10.4284423382736,-0.791193053876992,-37.8877946538443,0.928677769218019,6.21703595332499,-6.66442414604667,9.75481356147827,-0.0876056230519777,1.6266429820614,-11.7974573602502,-84.1792425166935,-2.37482371937492,10.6818748776827,-0.921318590735807,33.7960218415128,-2.04400581323375,-53.4065477315285,1037.43745308823,0.222706933146207,0.0828027839533367
92.61,-10.2455824743343,25.6507739827603,33.3636838906586,0.109133994983322,0.0592425654444957,0.582144968570033,0.701485865917987,-6.07854110041751,2.3768039781836,1.73073160063219,-0.219561790688881,-0.491089581443333,-0.514152189598808,-0.43792766931899,1.80754430379748,11.7014936708861,0.305924050632902,-27.9737146429129,3.24516330676667,-60.0131270511017,-0.296784810126584,13.3883544303797,-1.49989873417721,-17.8596968276293,-36.1255821222066,-46.006407251133,-1.31630276766004,7.42048027598405,6.53374097799953,129.506912270075,-42.8084560539149,172.738116146039,291.79746835443,0.325271882286555,-0.158335897892336,-11.6937711020361,-4.08061923196044,0.0617651524654748,-0.105026019224584,0.0455606678101724,1.07158160571811,1.24597795266712,-48.4895385787457,-48.2399482823625,-44.9477985308377,0.837155613592947,9.70606848117206,9.49709824429283,9.59087733921589,2.84374683544304,10.7699493670886,-0.735164556962028,-37.0280981403344,-0.774245975933749,8.19993749023284,-6.85918987341771,9.86420253164557,-0.132962025316454,1.43559931239254,-11.204563213002,-84.0441944053759,-2.51987601835516,10.6135020895849,-0.941127500956572,33.98278370145,-2.09069624641274,-59.4389483777783,1016.89367088608,0.225568581080135,0.0840296324483956
92.615,-10.0123349025909,22.588065624874,32.8557508912457,0.129392253427657,-0.0332152489812365,0.568072548603998,0.706332729659702,-6.04938540838002,1.61112682510443,3.36876633682857,-0.251340144083882,-0.494334143403177,-0.488352745043459,-0.385405369652759,1.50873990204187,12.165707652185,0.396632529737278,-28.3162593715569,3.34068058686932,-57.3452306068552,0.148753896062579,13.9486126836715,-1.12906112842695,-22.1942051247015,-20.4903914791963,-48.3284652674217,-1.72012954109399,10.9648271188634,5.17018646754409,108.71199148137,-30.5668126495654,187.566285071668,393.177533235799,0.307928202553534,-0.161284583602066,-11.7229267940736,-4.84629638503961,-1.25730506701039,-0.0939670262997581,-0.100034034286026,0.966038440070939,1.14567347931915,-48.9385421389091,-49.1970453438857,-45.921560870015,0.824747403315147,9.67923265928208,9.61202294374117,9.69163159338339,2.86509000699701,11.1114401119522,-0.679138731632841,-36.1684426194105,-2.47708852121211,10.1827444771914,-7.05394631384771,9.97358628585969,-0.178316264868634,1.24456475218723,-10.6116973365028,-83.9091527335066,-2.66492140086111,10.5451325616812,-0.960935466636509,34.1695366560916,-2.13738445326933,-65.4710613833334,996.350868265378,0.228430092563179,0.0852564224440984
92.62,-9.80569878358301,19.4923057151563,31.7521983965761,0.15020863847079,-0.12216975737903,0.544328971093665,0.699199413515867,-6.03447935966321,0.538373834964315,4.36727724445228,-0.276674769822527,-0.517297516571527,-0.461542633574,-0.332360488676698,1.2891718050066,12.5674632411067,0.55328906455861,-27.8336758893281,3.40226581434309,-54.1025062216366,0.703217918313551,14.2658685111989,-0.973284321475631,-25.6232664812375,-7.95652596821679,-49.5166668293238,-2.00223636627197,13.4408502578735,4.21762943267822,94.1849975585938,-22.0149993896484,197.925003051758,464,0.29581218957901,-0.163344487547874,-11.7869876406724,-6.39715013236396,-2.59619334813576,-0.0822217336924478,-0.243655225129506,0.857159542147664,1.03988629801967,-49.4196990500577,-50.3437586827335,-46.8931502215891,0.810107528475133,9.65014972264805,9.69889773126333,9.76365105094443,2.90665401844532,11.379985770751,-0.625007114624492,-35.3385861839002,-3.8754153450772,11.9504357585517,-7.21915283267457,10.199928853755,-0.197505928853736,1.12139429723969,-10.7816158363018,-83.8250980009434,-2.76564926493623,10.5590132817858,-1.00310061716279,33.3612781456808,-2.6626829453168,-71.7985779275002,973.83720685112,0.231631572644701,0.0858985615446084
92.625,-9.66076219299879,16.3204449711424,29.2685886331599,0.172315080187023,-0.202991967798699,0.498178130937581,0.667018378368862,-6.05259643348624,-1.24579773473174,3.88365866781513,-0.287073308121852,-0.585951750358583,-0.432394739728671,-0.278035192315762,1.2532530961792,12.8244201581028,0.862742555994711,-25.4390953008344,3.38521039704613,-49.5282433025911,1.5100073781291,14.0199635046113,-1.31589354413703,-26.9535890304006,-2.61135818734853,-48.0771896094602,-2.00223636627197,13.4408502578735,4.21762943267822,94.1849975585938,-22.0149993896484,197.925003051758,464,0.29581218957901,-0.163344487547874,-11.9319242312566,-9.76725194231795,-3.98079433329215,-0.068887933483778,-0.382680471486561,0.740567958532036,0.924091092777045,-49.9752889626331,-51.9296893182385,-47.8595504150266,0.790298522669984,9.61586413684229,9.72075858577281,9.77024697437495,2.99506930171277,11.4794529644269,-0.575273517786545,-34.5779145724556,-4.56786528733391,13.2193588054458,-7.31585704874836,10.6972648221344,-0.156061264822122,1.15550513183362,-12.7191112412368,-83.8592088355373,-2.76366400454512,10.7634906884773,-1.09706750651358,30.2474027886221,-4.29698418642378,-78.8096335928493,946.760026350461,0.235620357137424,0.0851857848346665
92.63,-9.51581869112801,13.1484329772718,26.784860439065,0.194422576046678,-0.283818032217244,0.452025090083382,0.631945269647614,-6.07071437122008,-3.03005438246746,3.40001702987538,-0.297472342274418,-0.654609257915788,-0.403245455968993,-0.225328432843138,1.21733267457182,13.0813893280633,1.17221080368905,-23.0444005270092,3.36815416646333,-44.953762260284,2.31683530961791,13.7740467720685,-1.65851910408433,-28.2839750158591,2.73406447730119,-46.6376437482718,-2.00223636627197,13.4408502578735,4.21762943267822,94.1849975585938,-22.0149993896484,197.925003051758,464,0.29581218957901,-0.163344487547874,-12.0768677331274,-13.1375144552336,-5.36546134300555,-0.0555534974542027,-0.521712347248336,0.623970815258614,0.805888974534364,-50.5309053684569,-53.5156955786845,-48.825996691159,0.77048857227441,9.58157691613187,9.74262048271491,9.77669857515122,3.08348880105401,11.5789249011858,-0.525537549407097,-33.8172066884627,-5.26034824899561,14.4883423608061,-7.41256587615285,11.1946245059289,-0.114614624505923,1.18961759299924,-14.656699035443,-83.893321296703,-2.76167864948707,10.9679778456531,-1.19103887666591,27.133378946734,-5.93136335901906,-85.8210235796741,919.681554677207,0.239609331834929,0.0844729741360398
92.635,-9.3708821005438,9.97657223325787,24.3012506756489,0.216529017762911,-0.364640242636913,0.405874249927297,0.593818798865476,-6.08883144504311,-4.81422595216352,2.91639845323823,-0.307870880573743,-0.723263491702844,-0.374097562123664,-0.174785561406221,1.18141396574442,13.3383462450593,1.48166429512515,-20.6498199385156,3.35109874916637,-40.3794993412385,3.12362476943346,13.5281417654809,-2.00112832674573,-29.6142975650222,8.07923225816945,-45.1981665284081,-2.00223636627197,13.4408502578735,4.21762943267822,94.1849975585938,-22.0149993896484,197.925003051758,464,0.29581218957901,-0.163344487547874,-12.2218043237116,-16.5076162651876,-6.75006232816194,-0.0422196972455329,-0.660737593605391,0.507379231642986,0.685232510127416,-51.0864952810323,-55.1016262141895,-49.7923968845966,0.75067956646926,9.54729133032612,9.76448133722439,9.78325424118432,3.17190408432146,11.6783920948616,-0.47580395256915,-33.0565350770182,-5.95279819125232,15.7572654077002,-7.50927009222663,11.6919604743083,-0.0731699604743086,1.22372842759317,-16.594194440378,-83.9274321312969,-2.75969338909597,11.1724552523446,-1.28500576601669,24.0195035896754,-7.56566460012604,-92.8320792450233,892.604374176548,0.243598116327651,0.083760197426098
92.64,-9.3041705233357,7.20575029705638,21.2597392187605,0.23269321705764,-0.374875639354268,0.328069748080604,0.520899909256829,-6.17720832185557,-7.55090040568057,1.42685850804212,-0.322255897491451,-0.859083050894872,-0.366496726699092,-0.148461618145384,1.17567005270598,13.414329947294,1.66127075545221,-19.1585487666797,3.91968434801171,-36.933240736256,3.31951943780299,13.3365989458806,-2.23096112439402,-29.1853624536301,6.38041286424221,-44.3837374222168,-2.16700569940836,13.4788738981417,3.91434532630781,94.0857727898145,-17.2720004308823,191.561314244164,501.989353129995,0.291372964184957,-0.163325220927317,-12.4578874132091,-20.8331123527812,-8.96157937743103,-0.034229311594517,-0.786697322439636,0.380605760773816,0.551926940616902,-51.6307051168292,-55.6055908203125,-50.7905063308543,0.723786575451365,9.51940558261643,9.7398587210579,9.74366609244612,3.30017093113879,11.7081099824313,-0.248318032310455,-32.1311417930663,-5.11582968073906,18.7948516481644,-7.43793905129257,11.982301229806,0.0193807378835721,0.371226542712498,-17.4198784952828,-83.3712663343413,-2.8047815066572,11.3700626227865,-1.32708770871366,20.5030470387352,-8.60097474787205,-100.973862703956,865.099824313435,0.246717041848944,0.0828984714782213
92.645,-9.27389717653825,4.62190721444716,17.9585957117015,0.246088666862838,-0.3522342704923,0.235527882730669,0.430100329212907,-6.29830276578046,-10.7310150705011,-0.531088654104773,-0.338496625095206,-1.02617559785175,-0.368932038755043,-0.135309071176611,1.18398055559225,13.4060194444078,1.78038796348888,-18.0881012755663,4.76099451674617,-34.012594865934,3.23087407368268,13.170388888155,-2.40825185263465,-27.9370770406705,1.40095105254567,-43.8604835367844,-2.40850539784302,13.5346045215736,3.46982680557158,93.9403406800807,-10.320264956722,182.234160345363,557.669722468066,0.284866464622565,-0.163296982158817,-12.736405796645,-25.603284283966,-11.558080850393,-0.0287281980288978,-0.906562938295068,0.249098901367693,0.411466939634673,-52.1695766075403,-55.6055908203125,-51.8033147113688,0.69359607363764,9.4945025303792,9.69358799013265,9.68298631945112,3.44698981546306,11.7053398148026,0.061940742110639,-31.129093502663,-3.5665877846549,22.6559865282505,-7.28834999933954,12.1762129638192,0.135727778291486,-0.894158670424675,-17.7276748984784,-82.5402160457134,-2.87179105995766,11.5644564393467,-1.34500111867063,16.7993326866017,-9.35723038371525,-109.641717467962,837.398148025838,0.249430609590593,0.0819674321395388
92.65,-9.24362238615934,2.03794092154361,14.6572947899504,0.259484755428696,-0.329591821978964,0.142981604531307,0.336220928227097,-6.41940298408158,-13.9112813787656,-2.48912918076276,-0.354738127136403,-1.19327611259973,-0.371367466938602,-0.125697273055038,1.19229145476401,13.397708545236,1.89951085161749,-17.0176027402734,5.60234480327036,-31.091809724911,3.14222448251721,13.0041709047198,-2.58555103496559,-26.688732103348,-3.57874820428043,-43.3372047000437,-2.65001661216621,13.5903378025146,3.02528708801495,93.7949016354316,-3.36819798976331,172.906561682177,613.35274691888,0.278359654798405,-0.163268742043753,-13.0149374612016,-30.3736836803137,-14.1547061372634,-0.0232268221432382,-1.02643426993019,0.117585771070367,0.268679872222017,-52.7084737942836,-55.6055908203125,-52.8161713875479,0.66340413219291,9.46959829064246,9.6473150527923,9.62305837173268,3.59381570083089,11.7025695150786,0.372214311189805,-30.1269974296891,-2.01727201312864,26.5173055261603,-7.13875381424779,12.3701339444936,0.252080366696177,-2.15960422332691,-18.035485978914,-81.7091261285371,-2.93880380860185,11.7588595255564,-1.36291538282674,13.0954417232264,-10.1135220815315,-118.309985557739,809.695150786627,0.252144306728443,0.0810363484043402
92.655,-9.21861966789487,-0.517513638038996,11.377246313915,0.272670407250545,-0.300681312465546,0.0513068499783363,0.240270078910669,-6.549753331864,-17.1785854862472,-4.53124705748982,-0.369303318940487,-1.36608153733917,-0.375925414262426,-0.122085173702328,1.19155105284067,13.3467494371606,2.03011654085551,-15.8486095374499,6.46367891751728,-28.0360161600704,3.04129161700437,12.8441662031519,-2.75301748112833,-25.4422024063529,-8.39149405442169,-42.9343048341238,-2.85879894670722,13.6276741815299,2.58507059864959,94.0444307701364,3.13703031779883,163.42559983581,666.730022513574,0.271894484167146,-0.163220935721513,-13.3014216815896,-34.9859708261875,-16.8368391634314,-0.017913133861991,-1.14476465780708,-0.0162444687074791,0.121408087433016,-53.2487641079507,-55.6488911404039,-53.8057697947178,0.632859715593574,9.44346424729468,9.60050518539564,9.56352426702506,3.75112236789831,11.6947696993776,0.672069924513334,-29.1592846013364,-0.375356219681481,30.3726980810325,-7.00321864653688,12.5304869553702,0.363218646536896,-3.41901489623644,-18.1039276949664,-80.7919920671124,-3.00510307325778,11.9260197443704,-1.39205793692977,9.45440880289032,-10.886815644283,-127.063230620465,781.907879751026,0.25485969369474,0.0800077562724229
92.66,-9.26111355532622,-2.70953516141379,8.36719291726436,0.283169930110815,-0.191484276893471,-0.0292677049597235,0.152664068006665,-6.79864473890775,-21.5626286157692,-7.65138648222248,-0.362411617037825,-1.6120566227625,-0.407666903563705,-0.149792181680848,1.07490107270559,12.7496126340882,2.30785458879618,-13.4175444017717,7.58148883885873,-23.2493209140806,2.78299523241955,12.7636221692491,-2.79467818831942,-24.2180976765403,-11.0694374549361,-44.0726879442017,-2.64859945953105,13.4294482169759,2.19992666905202,99.3520050358005,3.92441769430549,151.974459186868,690.615494636472,0.265958280230876,-0.162922537122566,-13.6899332885833,-37.5765415737257,-20.6157323461792,-0.0149994360960484,-1.24343993864173,-0.179835237685371,-0.0575885367326045,-53.8072502051832,-56.2467149145697,-54.4981790969784,0.597781466786212,9.40156438835418,9.54678868644996,9.49816871067408,4.042747318236,11.622557806913,0.838712753277726,-28.6312394237702,2.45345723156609,34.1547359437308,-7.0476567342074,12.2610810488677,0.407656734207394,-4.60197324857634,-15.1070998690387,-78.7723907061611,-3.06230925610011,11.7444234810512,-1.56500683639274,6.61592599465395,-11.8783406555439,-136.910435737728,753.023122765197,0.257598507869656,0.0777298146177248
92.665,-9.3036054165375,-4.9014521634495,5.35728304785936,0.293668952326279,-0.0822924481226339,-0.10983841789154,0.0625390877440146,-7.04752427815602,-25.9464627026091,-10.7713771305187,-0.355520243749596,-1.85801997944821,-0.43940687934747,-0.181805990433521,0.958256654747695,12.1525043040657,2.58557939345781,-10.9865951856593,8.6992454600895,-18.4628539102825,2.52471116408423,12.6830819758972,-2.83633690901866,-22.9940513152538,-13.7472531640809,-45.2110167731852,-2.43840999521809,13.2312317043563,1.8148011041278,104.659326222394,4.71176752611559,140.523864558365,714.499827837373,0.260022359348389,-0.162624152752046,-14.0784263703239,-40.1669887960518,-24.3944453413825,-0.012085877262862,-1.34211051438001,-0.343418206226062,-0.238292695301392,-54.3657096723329,-56.8445101829289,-55.1905553833463,0.562704890601814,9.35966652730891,9.49307474884793,9.43403134361172,4.3343583631307,11.550349357701,1.0053476360747,-28.1032194247839,5.28213579756423,37.936593468938,-7.09209270295327,11.9916879883459,0.452092702953247,-5.78487519435738,-12.1104149397268,-76.752885645103,-3.11951271120151,11.5628358767184,-1.73794748919829,3.77757853272734,-12.8698183882901,-146.757171314408,724.139743080387,0.260337191450724,0.0754519815812631
92.67,-9.34609930396885,-7.0934736868243,2.34722965120868,0.304168475186549,0.0269045874494414,-0.1904129728296,-0.0298457126370987,-7.29641568519977,-30.3305058321311,-13.8915165552514,-0.348628541846934,-2.10399506487154,-0.47114836864875,-0.218211403750561,0.841606674612609,11.5553675009933,2.86331744139848,-8.55553004998111,9.81705538143095,-13.6761586642927,2.2664147794994,12.6025379419944,-2.87799761620975,-21.7699465854412,-16.4251965645953,-46.349399883263,-2.22821050804193,13.0330057398024,1.42965717453023,109.966900488058,5.49915490262225,129.072723909423,738.38529996027,0.254086155412118,-0.162325754153099,-14.4669379773176,-42.7575595435899,-28.1733385241302,-0.00917217949691933,-1.44078579521465,-0.507008975203955,-0.420431204895778,-54.9241957695654,-57.4423339570947,-55.8829646856069,0.527626641794452,9.3177666683684,9.43935824990225,9.37121180205321,4.62598331346839,11.4781374652364,1.17199046483909,-27.5751742472177,8.1109492488118,41.7186313316362,-7.13653079062378,11.7222820818435,0.496530790623745,-6.96783354669729,-9.11358711379903,-74.7332842841517,-3.17671889404385,11.3812396133993,-1.91089638866126,0.93909572449098,-13.861343399551,-156.604376431671,695.254986094557,0.26307600562564,0.0731740399265649
92.675,-9.41597077638585,-8.80066207408702,-0.279591920918361,0.312311619088235,0.139510093700526,-0.225111888267956,-0.0783203607154851,-7.62036973998446,-34.7523177560557,-17.4206742660588,-0.341313195083637,-2.35403113771034,-0.579929521269937,-0.336034419790199,0.871905210335507,11.4033870405965,2.81470142803699,-7.78218944013565,12.1077798688621,-9.18775580148491,1.99852449077,12.7667867232549,-2.91148815129192,-20.7042732176054,-17.8395061728395,-46.7756948157194,-2.11719727516174,12.928316116333,1.22625005245209,112.770004272461,5.91499996185303,123.025001525879,751,0.250951051712036,-0.16216816008091,-14.8590507729069,-43.4846300350921,-31.4879528710042,-0.00770867239114739,-1.52866453705875,-0.67981322810728,-0.61288823443781,-55.4535067187034,-56.9337990950175,-56.2593415712275,0.49325887176003,9.23564027255164,9.39752284359653,9.32167100211299,4.66511848708056,11.4578704575652,1.23830015867077,-26.9590583845713,11.217061559898,44.7608565578268,-7.22765244649701,11.4421421844967,0.46766508855892,-8.14730168103751,-6.00856596049175,-72.1837653819319,-3.22405137109855,11.1957581321187,-1.86527606624034,-1.67690365346993,-14.4877553988365,-165.727572824778,664.810111069544,0.266076386480823,0.0703636207046728
92.68,-9.51649449769354,-9.96532346517085,-2.47770719018014,0.317817965597159,0.255942262583946,-0.208463266143577,-0.0771089940447515,-8.02837814953756,-39.2168531745461,-21.4080245685059,-0.333522900788945,-2.60863815877417,-0.77495626177227,-0.544374479537204,1.06669410080108,11.7496784014242,2.40077503579768,-8.86434994272212,15.7116415425991,-5.03279387180109,1.719868161354,13.2050617268025,-2.93583676260013,-19.8158328049881,-17.8395061728395,-46.404954643537,-2.11719727516174,12.928316116333,1.22625005245209,112.770004272461,5.91499996185303,123.025001525879,751,0.250951051712036,-0.16216816008091,-15.2552341978726,-42.1258590141777,-34.2832101919265,-0.00786829295035225,-1.60446701946703,-0.862948087600903,-0.81643467796726,-55.9502138649769,-55.1868067503846,-56.2820045943094,0.459682905173719,9.10847787382055,9.36898234852617,9.28687071328498,4.42163237399861,11.4957460751558,1.19230833731084,-26.244298052616,14.6338831467682,46.9752775862676,-7.37103871308971,11.1499588487983,0.356743637043816,-9.32298222705737,-2.78212446203952,-69.0408239222594,-3.26033646737239,11.0059089746762,-1.57499497354067,-4.04412986575595,-14.7055402825443,-174.041269730026,632.615836117597,0.269369856060765,0.06695688698521
92.685,-9.61701342576638,-11.129929322143,-4.67571764753704,0.32332404954903,0.372368879675984,-0.191815437869193,-0.0772518880973722,-8.43636710417889,-43.6811757122708,-25.395184743626,-0.325732977955929,-2.86323303950702,-0.969973702887777,-0.756778125650878,1.26147370322114,12.0959532501709,1.98686838065507,-9.94645884505574,19.3153313747534,-0.878030061606565,1.4412251190031,13.6433158322476,-2.96018421290264,-18.9274347555414,-17.8395061728395,-46.034232149219,-2.11719727516174,12.928316116333,1.22625005245209,112.770004272461,5.91499996185303,123.025001525879,751,0.250951051712036,-0.16216816008091,-15.6513987317729,-40.7671527830316,-37.0783342276437,-0.00802790589842992,-1.680265887414,-1.0460742147438,-1.02036890677134,-56.44689732695,-53.4398977069316,-56.3046665367589,0.426108539577614,8.98132153852636,9.34044321434151,9.25353430862877,4.17815787097356,11.5336198867374,1.14631870896165,-25.5295718023092,18.0505418106179,49.1895930253021,-7.51441814264891,10.8577894451683,0.245827474554628,-10.4986067135433,0.444163191214425,-65.8980323262843,-3.29661983347762,10.8160688697398,-1.28472772220532,-6.4112432024835,-14.9233147816973,-182.354570216387,600.423096273172,0.272663168599435,0.0635503157077517
92.69,-9.71753714707407,-12.2945907132268,-6.87383291679882,0.328830396057955,0.488801048559404,-0.175166815744814,-0.0784435873808635,-8.84437551373199,-48.1457111307612,-29.3825350460732,-0.317942683661237,-3.11784006057085,-1.16500044339011,-0.972978203807443,1.45626259368671,12.4422446109986,1.57294198841576,-11.0286193476422,22.9191930484904,3.27693186807726,1.16256878958709,14.0815908357951,-2.98453282421085,-18.0389943429241,-17.8395061728395,-45.6634919770366,-2.11719727516174,12.928316116333,1.22625005245209,112.770004272461,5.91499996185303,123.025001525879,751,0.250951051712036,-0.16216816008091,-16.0475821567387,-39.4083817621172,-39.873591548566,-0.00818752645763477,-1.75606836982228,-1.22920907423742,-1.22433901209967,-56.9436044732235,-51.6929053622987,-56.3273295598409,0.392532572991303,8.85415913979527,9.31190271927114,9.22164347487356,3.93467175789161,11.571495504328,1.10032688760173,-24.814811470354,21.4673633974881,51.4040140537429,-7.6578044092416,10.5656061094699,0.134906023039525,-11.6742872595631,3.67060468966666,-62.7550908666119,-3.33290492975145,10.6262197122973,-0.994446629505642,-8.77846941476953,-15.1410996654051,-190.668267121636,568.228821321224,0.275956638179378,0.0601435819882888
92.695,-9.84394906051552,-12.9821938307026,-8.3716483200432,0.331711500646498,0.603714341295752,-0.120960936429692,-0.0428348945291301,-9.32539083270713,-51.1366004623441,-33.3418140810809,-0.303056463182659,-3.31444391071102,-1.40022021727234,-1.23279298781076,1.92758271454657,12.6942003651856,1.74723919659161,-12.1318536552377,26.1454006897951,7.68997362548184,1.48205307364578,14.4868301886793,-2.99197954960439,-16.097013743303,-14.7773140070482,-49.2411917374871,-2.15654809553015,12.483130593117,0.948898033846898,96.5713491197657,5.30529869880607,101.664671195083,794.352136335971,0.228367388808938,-0.161258761249732,-16.3961416103342,-38.2511003948637,-40.7736974146218,-0.0104980645315576,-1.79316965504798,-1.34168050849576,-1.35730537428175,-57.3839625684648,-49.7382990969323,-55.5767724738949,0.370821919889054,8.63374440024433,9.26198777354932,9.16977590434799,4.03242531953742,11.9204825319537,1.03853171028604,-24.0189100035316,22.67691170172,53.1402859869405,-8.10570541692027,10.1318037735849,-0.198809738283614,-13.4779212972356,7.08822674571506,-58.3591112313368,-3.34105229377747,10.5835914611816,-0.929267644882202,-9.3100004196167,-15.1900005340576,-192.535003662109,561,0.276696145534515,0.0593786425888538
92.7,-9.97786521136144,-13.5316970953126,-9.66676945113946,0.333832589056314,0.718194878252747,-0.0558762396265295,0.00317189843821321,-9.82757639837933,-53.7009488682158,-37.2932079654715,-0.286114554435701,-3.49426382726189,-1.64709318350236,-1.50724733280759,2.47900718198419,12.9188547778454,2.09187948874011,-13.2412581621995,29.2624491482759,12.1780191309183,1.97476104686549,14.8825283018868,-2.99453244065734,-13.8498392732355,-10.8282121683461,-53.9624643267735,-2.20729618338935,11.9090049755493,0.591215920073189,75.6810406790865,4.51900827397389,74.1176998694496,850.260450395618,0.19924276831922,-0.160085971169332,-16.730931987449,-37.1520933787183,-41.1250781487688,-0.0134315875467472,-1.8190664859478,-1.43369679590876,-1.46911944538908,-57.8080307040937,-47.723453712208,-54.602267284979,0.35254577979525,8.38631295379018,9.20588034208998,9.11303013709752,4.22899793061472,12.3595797930615,0.972156542909291,-23.1994634927076,23.2473725419475,54.7382066830474,-8.64181253804018,9.65696603773584,-0.597060742544114,-15.4635032273093,10.5614192646694,-53.6000180338586,-3.34105229377747,10.5835914611816,-0.929267644882202,-9.3100004196167,-15.1900005340576,-192.535003662109,561,0.276696145534515,0.0593786425888538
92.705,-10.1117749767338,-14.0811741581648,-10.9618288274612,0.335953576327067,0.832669956477292,0.00920535376747787,0.048950555789998,-10.3297380185258,-56.2651749992255,-41.2444134370314,-0.269173453523416,-3.67407516952721,-1.89395437818145,-1.7841830914053,3.03040535605601,13.1434984783932,2.43650334753499,-14.3506097698429,32.3793489777057,16.6658506345664,2.46744552647595,15.2782075471698,-2.99708520998174,-11.6027719543443,-6.87929863318381,-58.6835117933921,-2.25804185144653,11.3349067337979,0.233550861521385,54.7917283431394,3.73275534153275,46.5720420557046,906.166098600122,0.170119536567844,-0.158913237010642,-17.06570640088,-36.0531387661117,-41.4764421281603,-0.0163649706838605,-1.84496208201875,-1.5257086957437,-1.57989398839209,-58.232078619041,-45.7087044005995,-53.627808563028,0.334270511155771,8.13889330551676,9.14977558598022,9.05748380810594,4.42556116859402,12.7986561168594,0.905784540474723,-22.3800560552437,23.817806181105,56.3360511861019,-9.17789409616556,9.18215094339622,-0.99529275715154,-17.4489904796255,14.0344461726892,-48.841151762434,-3.34105229377747,10.5835914611816,-0.929267644882202,-9.3100004196167,-15.1900005340576,-192.535003662109,561,0.276696145534515,0.0593786425888538
92.71,-10.2456911275797,-14.6306774227748,-12.2569499585575,0.338074664736882,0.947150493434288,0.0742900505706405,0.0947402142664991,-10.831923584198,-58.8295234050971,-45.195807321422,-0.252231544776458,-3.85389508607808,-2.14082734441148,-2.0630864175864,3.58182982349363,13.3681528910529,2.78114363968349,-15.4600142768047,35.4963974361864,21.1538961400029,2.96015349969565,15.6739056603774,-2.99963810103469,-9.3555974842767,-2.93019679448165,-63.4047843826785,-2.30878993930573,10.7607811162302,-0.124131252252323,33.9014199024602,2.94646491670057,19.0250707300712,962.074412659769,0.140994916078127,-0.157740446930242,-17.4004967779948,-34.9541317499663,-41.8278228623073,-0.0192984936990501,-1.87085891291857,-1.61772498315671,-1.68932605101749,-58.65614675467,-43.6938590158752,-52.653303374112,0.315994371061968,7.8914618590626,9.09366815452088,9.00298088043189,4.62213377967131,13.2377533779671,0.839409373097975,-21.5606095444197,24.3882670213325,57.9339718822089,-9.71400121728547,8.70731320754716,-1.39354376141204,-19.4345724096992,17.5076386916436,-44.0820585649557,-3.34105229377747,10.5835914611816,-0.929267644882202,-9.3100004196167,-15.1900005340576,-192.535003662109,561,0.276696145534515,0.0593786425888538
92.715,-10.3437764086313,-12.7610855266251,-12.6217001963377,0.339159534717079,1.13812839350199,0.165045021238955,0.166417441563762,-11.5655912837828,-62.2765723226609,-48.8230425808396,-0.235198389876287,-3.94327194506843,-2.41643275445359,-2.37211128007368,3.56499937165408,13.1986891446955,2.71690401387386,-12.8890178161674,33.3608001186565,22.0470328573729,2.66356900495135,14.9089231407244,-2.68333123884686,-8.71310779282393,-12.5657640826289,-64.5348354990323,-2.31598401069641,10.6793928146362,-0.174836426973343,30.9400005340576,2.83500003814697,15.1199998855591,970,0.136866196990013,-0.157574191689491,-17.7495328759074,-33.6623004297362,-40.7770280968492,-0.0249493935245361,-1.80494479704363,-1.67849327045168,-1.76588428045855,-59.0771644268955,-41.4607439204849,-50.8331462189195,0.29770882315073,7.53431038637681,8.99225475166887,8.90403612514455,4.71559567195313,13.0557126699676,1.09916844698015,-20.7910009690491,25.2622039520943,57.2808583795129,-9.91214366501622,7.94785256490812,-1.60607246085404,-20.5565899215793,17.6676932753331,-39.7576184230409,-3.70022207774649,10.6220546836819,-0.664359606973433,-14.1708656358327,-13.2979045222254,-197.997538411435,511.237766104507,0.280922855577286,0.0504404679813881
92.72,-10.4359389007965,-10.4920257476364,-12.8327655727855,0.340073202876352,1.34173210119454,0.2600355714209,0.242734005598737,-12.3374574336411,-65.8692507249465,-52.3965642630608,-0.218150976220014,-4.01770624638137,-2.69677070224025,-2.68667727360276,3.45431221253175,12.9641377836982,2.58513358634728,-9.71025960151385,30.3577358073718,22.3463632112605,2.23663281976525,13.9522698368814,-2.31437404177245,-8.3356912596614,-24.4446241048398,-65.071677981548,-2.31598401069641,10.6793928146362,-0.174836426973343,30.9400005340576,2.83500003814697,15.1199998855591,970,0.136866196990013,-0.157574191689491,-18.1009052676068,-32.3386823091035,-39.4946889592775,-0.0310488475038477,-1.7238695966918,-1.73409749150027,-1.83541179947364,-59.4976581850544,-39.1916841414963,-48.8734012374661,0.279422593272325,7.15905370992942,8.88336308928234,8.79826707925264,4.79202251991855,12.7710885465102,1.41278206449341,-20.0296607211177,26.1862237401819,56.2559772765284,-10.0544557267449,7.14141754844546,-1.78791565084071,-21.5359207533201,17.2805159697612,-35.505175243356,-4.11869807861401,10.6668689644226,-0.355709878489363,-19.8343582992732,-11.0933850786933,-204.362048452443,453.258777992812,0.285847481184649,0.0400264194401822
92.725,-10.5281057877207,-8.22285776876326,-13.0438410138644,0.340986914603799,1.54534551770917,0.35503065121756,0.319624150815138,-13.1093603898581,-69.4621004437359,-55.9702563482996,-0.201102749659556,-4.0921440970864,-2.97712201791341,-3.00148640978066,3.3436197753035,12.7295752381431,2.45335687536128,-6.53134980809848,27.3545282952711,22.6457078386854,1.80967627617062,12.9955709151231,-1.94539925101165,-7.95825672942991,-36.3240505692814,-65.6085460633428,-2.31598401069641,10.6793928146362,-0.174836426973343,30.9400005340576,2.83500003814697,15.1199998855591,970,0.136866196990013,-0.157574191689491,-18.4522944144628,-31.0150010718756,-38.2122886734945,-0.0371485923350013,-1.64279053027731,-1.78970436403049,-1.90287683441854,-59.9181719944153,-36.9225161626231,-46.9135628057727,0.26113549141691,6.78377913940561,8.77446623440797,8.69291258092292,4.86845301229044,12.4864508507804,1.72641063664009,-19.2682841687542,27.110287590059,55.2310473021928,-10.1967745746098,6.33494407721113,-1.96976751200139,-22.5152982843518,16.8933202016789,-31.252529286351,-4.53719403446702,10.7116853821277,-0.0470454320744121,-25.4981210257848,-8.88876051287594,-210.726861984464,395.277025158972,0.290772341622283,0.0296118743061318
92.73,-10.6203494520835,-6.2455525527589,-13.2099520403912,0.341885285594196,1.75570323578528,0.45460376745592,0.40180818577214,-13.8651268958819,-72.4214800077881,-59.4165980663157,-0.183447613904431,-4.15827479707016,-3.25545696376131,-3.31394652977771,3.2174823232645,12.4566058119832,2.34296472296891,-3.44751619748115,24.6893683843475,22.9124473315463,1.29007631253745,12.08549998089,-1.57799408864487,-7.59503992885741,-47.7807774948242,-66.171132976708,-2.31598401069641,10.6793928146362,-0.174836426973343,30.9400005340576,2.83500003814697,15.1199998855591,970,0.136866196990013,-0.157574191689491,-18.7946543387997,-29.6412607258626,-36.8972679685791,-0.0432565610200112,-1.5550407411338,-1.84460764068385,-1.9674198160644,-60.3297141964551,-34.7248985702697,-44.939684213034,0.242786603132032,6.40538534636683,8.65828036983125,8.58043595404597,4.92089409246684,12.1787175926516,2.01129998853399,-18.4081334295281,28.0485984989146,54.1014376842285,-10.3281235269387,5.54605289643661,-2.1391470576994,-23.4314669563206,16.4289323275348,-27.1930500054027,-4.93552816977414,10.7259377181798,0.229844386681214,-31.0489731154258,-6.75335265926952,-216.401394243648,339.259997706802,0.295387259587744,0.0198646154695437
92.735,-10.7137876932486,-8.54597135126137,-12.7169329134764,0.342559406413757,2.06510089857628,0.621372988652978,0.552035770019496,-14.3848702326108,-66.0953280571007,-60.9983422730556,-0.156880979683695,-4.10265803457452,-3.50443639245929,-3.59618570863851,2.86480068286345,11.6203228313353,2.54602384926043,-1.75535681171852,26.978566461773,22.7013397278644,-0.588220605659087,11.8583943791166,-1.23332794007111,-7.44000778240352,-53.0485719179488,-67.1112215243539,-2.31598401069641,10.6793928146362,-0.174836426973343,30.9400005340576,2.83500003814697,15.1199998855591,970,0.136866196990013,-0.157574191689491,-19.0048863045311,-27.5325434089668,-35.1029947699277,-0.049489666872752,-1.36942136393569,-1.88923601742852,-2.01936277253483,-60.6100248430604,-33.5746891710185,-42.7584790181794,0.223518118079787,5.98097589223255,8.4351385498093,8.36090542090429,4.62164906424776,11.5321345852497,1.87503662746995,-16.0991440142575,29.1964960939349,51.4362041877447,-10.2987333902386,5.01435860522593,-2.1257879046539,-23.421571287398,14.8324310746905,-25.9626885026942,-5.03855347250339,10.29207967434,0.0410713223979207,-34.9485102155568,-5.63118385440911,-211.959475856022,312.007325493993,0.295461344322622,0.0198936205111802
92.74,-10.8072214790331,-10.8462804597582,-12.2239372950074,0.343233495089469,2.37448380847472,0.788134257855892,0.70322279080457,-14.9045887866133,-59.769477753941,-62.5800110580805,-0.130315612229801,-4.04704392403207,-3.75340394916469,-3.87705559559665,2.51213585924861,10.7840797268546,2.74907329315988,-0.0632781125563897,29.2676553842263,22.4902421903471,-2.46642796172906,11.6312996063343,-0.888678226083866,-7.28498302828925,-58.3161151588103,-68.0512652461106,-2.31598401069641,10.6793928146362,-0.174836426973343,30.9400005340576,2.83500003814697,15.1199998855591,970,0.136866196990013,-0.157574191689491,-19.2151082458507,-25.4239266412469,-33.3088071269314,-0.0557224755146472,-1.18381083755663,-1.93386226617506,-2.06891858320243,-60.8903221237183,-32.4245346167701,-40.577377828913,0.204250551799479,5.55658667505488,8.21200736977496,8.14101858326238,4.32241830481698,10.8855824086224,1.73877976380058,-13.7902646976619,30.3443389541853,48.7710977765887,-10.2693446549374,4.48268966659445,-2.11242938860788,-23.4116760903268,13.2360059472159,-24.7323856668512,-5.14157386271583,9.85824231799032,-0.147692740690241,-38.8478613755248,-4.50906855750238,-207.517769270721,284.755952760119,0.295535425524945,0.0199226241697801
92.745,-10.9006597201981,-13.1466992582607,-11.7309181680926,0.34390761590903,2.68388147126572,0.95490347905295,0.855496966249962,-15.4243321233422,-53.4433258032535,-64.1617552648204,-0.103748978009065,-3.99142716153643,-4.00238337786267,-4.15613725809196,2.15945421884756,9.94779674620666,2.95213241945139,1.62888127320624,31.5568534616517,22.2791345866652,-4.3447248799256,11.4041940045609,-0.544012077510102,-7.12995088183536,-63.5839095819349,-68.9913537937565,-2.31598401069641,10.6793928146362,-0.174836426973343,30.9400005340576,2.83500003814697,15.1199998855591,970,0.136866196990013,-0.157574191689491,-19.4253402115821,-23.3152093243511,-31.5145339282799,-0.061955581367388,-0.998191460358527,-1.97849064291973,-2.11607720893909,-61.1706327703235,-31.2743252175188,-38.3961726340584,0.184982066747234,5.1321772209206,7.98886554975302,7.92048979983523,4.02317327659791,10.2389994012205,1.60251640273654,-11.4812752823913,31.4922365492055,46.1058642801049,-10.2399545182373,3.95099537538377,-2.09907023556238,-23.4017804214042,11.6395046943716,-23.5020241641427,-5.24459916544509,9.42438427415049,-0.336465804973534,-42.7473984756558,-3.38689975264197,-203.075850883094,257.50328054731,0.295609510259823,0.0199516292114165
92.75,-10.9640998840332,-14.7085752487183,-11.4295471356539,0.344702444768445,2.98345199919504,1.06813192367554,0.955416405547633,-15.7772133636475,-49.1481666564941,-64.7682142928866,-0.0783904771241124,-3.90384425797269,-4.17142868041992,-4.35309698921216,1.90899961483246,9.42635876606324,3.01142582023178,2.96014747896816,32.3719317903288,22.2318375777414,-5.75907629818972,10.8995591582338,-0.223568402254981,-6.92865624941913,-63.4034839723181,-69.0378981523629,-2.28286315121776,10.6001661829873,-0.084694997819725,27.7911402198997,2.34823298099483,12.7604172881016,981.078959347316,0.132946603275918,-0.156374452191556,-19.5680778121948,-21.8834896087646,-29.8217091958315,-0.0677498200996159,-0.818299941426296,-2.00879120826721,-2.14653766870102,-61.3609504938126,-30.49338722229,-36.4770996425533,0.166649454242037,4.7379686227376,7.83736276626587,7.77071851778751,3.79092755348576,9.7394978815785,1.48171329528344,-9.71762982329411,32.4083822141644,43.7365765218982,-10.1610693651739,3.46585279596622,-2.13557302426553,-23.0051009843603,8.52232739760313,-22.8141145101823,-5.31454849243164,9.12981510162354,-0.464633822441101,-45.3950004577637,-2.625,-200.059997558594,239,0.295659810304642,0.0199713222682476
92.755,-10.9640998840332,-14.7085752487183,-11.5334904000385,0.345752703902421,3.26228143936923,1.06813192367554,0.943397805282863,-15.7772133636475,-49.1481666564941,-63.3119164581916,-0.0555835585426873,-3.74863606243446,-4.17142868041992,-4.37849358455592,1.8747304410752,9.5707788554688,2.76664600767998,3.52827840192789,30.0691883685452,22.5310129041936,-6.19233656640639,9.80784119425284,0.0456893915519969,-6.62948092296694,-51.699382564749,-67.1944946257383,-2.17968271969872,10.3533538064365,0.196119923780048,17.9815890451344,0.831822000217227,5.40967958253454,1015.59291291712,0.120736009192139,-0.152636939305239,-19.5680778121948,-21.8834896087646,-28.3432088670569,-0.0726166621161204,-0.650496818561932,-2.00879120826721,-2.14439611258665,-61.3609504938126,-30.49338722229,-35.1121831231966,0.150293602964546,4.40757995611907,7.83736276626587,7.7713422074187,3.70035902284159,9.5510174259136,1.39359256276479,-9.10719127841186,32.8344804063842,41.9928981040909,-9.97748450576003,3.07910069213439,-2.27754531554558,-21.7902678405847,2.18827200120116,-23.2734544053412,-5.31454849243164,9.12981510162354,-0.464633822441101,-45.3950004577637,-2.625,-200.059997558594,239,0.295659810304642,0.0199713222682476
92.76,-10.9640998840332,-14.7085752487183,-11.6374287081354,0.346802912957286,3.54109758422394,1.06813192367554,0.932773109699455,-15.7772133636475,-49.1481666564941,-61.8556880635993,-0.0327777274549959,-3.59343526763034,-4.17142868041992,-4.40109998535517,1.84046290136208,9.71519205854548,2.52187786687206,4.09638223491417,27.7665547476115,22.830173965181,-6.6255761756364,8.71617528624953,0.314934346440712,-6.33031986197948,-39.9958392394519,-65.3511789974318,-2.07650720809345,10.1065531985475,0.476921455387375,8.17250561551381,-0.684516674105061,-1.9407076205671,1050.10522077104,0.108525997341533,-0.148899604633345,-19.5680778121948,-21.8834896087646,-26.8647790370583,-0.0774832720688248,-0.482701696990857,-2.00879120826721,-2.14005794662923,-61.3609504938126,-30.49338722229,-33.7473316866416,0.13393853157697,4.07720704329926,7.83736276626587,7.77066542331375,3.60979481074266,9.3625459574915,1.30547603207394,-8.4967818408415,33.2605582811239,40.2493028294469,-9.79390840015409,2.69236702965789,-2.41951083721419,-20.5754926232417,-4.14548137081608,-23.7327723979684,-5.31454849243164,9.12981510162354,-0.464633822441101,-45.3950004577637,-2.625,-200.059997558594,239,0.295659810304642,0.0199713222682476
92.765,-10.9640998840332,-14.7085752487183,-11.7413719725199,0.347853172091263,3.81992702439813,1.06813192367554,0.923645478640272,-15.7772133636475,-49.1481666564941,-60.3993902289043,-0.00997080887357087,-3.43822707209211,-4.17142868041992,-4.42069919695039,1.80619372760482,9.85961214795105,2.27709805432027,4.6645131578739,25.463811325828,23.1293492916332,-7.05883644385307,7.62445732226854,0.584192140247691,-6.03114453552729,-28.2917378318828,-63.5077754708072,-1.97332677657441,9.85974082199662,0.757736376987148,-1.63704555925149,-2.20092765488266,-9.29144532613419,1084.61917434084,0.0963154032577541,-0.145162091747027,-19.5680778121948,-21.8834896087646,-25.3862787082837,-0.0823501140853293,-0.314898574126494,-2.00879120826721,-2.13365954178108,-61.3609504938126,-30.49338722229,-32.3824151672848,0.117582680299479,3.74681837668074,7.83736276626587,7.76853807537347,3.5192262800985,9.17406550182661,1.21735529955529,-7.88634329595925,33.6866564733437,38.5056244116397,-9.61032354074025,2.30561492582606,-2.56148312849424,-19.3606594794662,-10.479536767218,-24.1921122931273,-5.31454849243164,9.12981510162354,-0.464633822441101,-45.3950004577637,-2.625,-200.059997558594,239,0.295659810304642,0.0199713222682476
92.77,-10.9859851826384,-13.7656391610963,-11.7874481013474,0.347667265278789,4.08120555922173,1.10224229722682,0.950227432925468,-15.8661229562138,-46.8581789780914,-58.3466529041708,0.00881995265874261,-3.26261800786612,-4.18958418690565,-4.45528112882804,1.84383316656743,9.96311603105648,2.12504566007622,4.38719019113264,23.6836158033073,21.9881844066317,-7.40314212252858,6.79000000000002,0.828174736868788,-6.02884432103927,-18.0925030722294,-60.3549811553772,-1.90959884385293,9.64381031527848,0.953942225623152,-9.17223625942392,-3.33152552455644,-15.0326597197487,1106.93220016972,0.0881746641269265,-0.14240585980734,-19.6132165688212,-21.5691776025599,-24.0125468145188,-0.0863531341579515,-0.16428154824139,-1.97963234055402,-2.09620544317242,-61.4621708950975,-30.0443700023605,-31.1458369232203,0.103657447376885,3.43499532054496,7.73393131098134,7.66142887884606,3.44186440033943,9.02749673856596,1.12246412422578,-7.38421295494912,33.272183810559,36.3840031098358,-9.33670132863858,1.97933504743327,-2.58739237267743,-17.8541853232576,-16.7433655246996,-24.8414379362749,-5.15327329936871,9.04483085057146,-0.476474658343832,-47.1253797807906,-2.34025401486461,-197.637466840577,233.868314060264,0.295263922002144,0.0203092148946234
92.775,-11.0788770025832,-9.76336115469924,-11.6457962182641,0.343470849251905,4.28559687804953,1.24702326345176,1.08917842911042,-16.2434983812899,-37.138360805361,-54.3584819096047,0.0145849690512613,-3.02078722048101,-4.26664496043705,-4.54547640796453,2.11477207959164,9.93389712867151,2.27379643585422,1.366919809926,23.5983530129583,16.1739179724521,-7.45892366344534,6.79000000000002,0.990206831912663,-6.98969038150999,-12.7734166896918,-52.9535150854712,-1.97385306611876,9.52802561769044,0.875692046378039,-9.33028402961794,-3.21066547617224,-15.5532876984256,1089.66648512406,0.0932360367460841,-0.142832622674889,-19.8048073407233,-20.2350850313951,-22.9784352974614,-0.0875544819495858,-0.0693905935061886,-1.85586796620044,-1.96243518403787,-61.8917993621585,-28.1385231826152,-30.3253740352965,0.0976150088271046,3.18334124092859,7.29491805855732,7.21714382823208,3.40733297024811,9.01687168315325,1.00558851468593,-7.23336340279331,30.1305779200096,33.0357989195948,-8.77091712791155,1.84917811862753,-2.23676554405788,-15.4012404316805,-22.7806269490225,-26.1072624391476,-4.46874317410746,8.68411647836661,-0.526732907797805,-54.4699487268586,-1.13165397433445,-187.35507173468,212.0869504642,0.293583580071364,0.0217433950525578
92.78,-11.1717643932023,-5.76127398742131,-11.5041510895143,0.33927463332115,4.48997845096284,1.39179732614027,1.2299142517378,-16.6208558121154,-27.4190060990702,-50.3705010814984,0.0203497105526684,-2.77896796422252,-4.34370205950852,-4.63229821262165,2.38569807353742,9.90467961952049,2.42254011880483,-1.6532065568623,23.513094288163,10.3599287777554,-7.51470254455183,6.79000000000002,1.152231200841,-7.95049062631886,-7.45458393515256,-45.5524019368923,-2.03810422457464,9.41224644102066,0.797445598306836,-9.48832426367948,-3.08981119071234,-16.0738908521941,1072.40159335301,0.0982971680257119,-0.143259365193264,-19.9963889770746,-18.9010560732653,-21.9443730895551,-0.0887557724578046,0.0254958365792547,-1.73210949325704,-1.82716524747679,-62.3214073434066,-26.2327672386481,-29.5049502691964,0.0915728583966523,2.93169916083919,6.85592573943734,6.77130187881317,3.37280318670601,9.00624713437108,0.888718478081875,-7.08252104354004,26.9891218294741,29.6877543805168,-8.20515990526009,1.71902739604573,-1.88615543424571,-12.9484125029534,-28.8176005008762,-27.373026584186,-3.78424568903909,8.3234193059697,-0.576988760806543,-61.8141674646037,0.0768884369738536,-177.073166920367,190.306625460717,0.291903318263697,0.0231775068250183
92.785,-11.2646562131472,-1.75899598102425,-11.362499206431,0.335078217294266,4.69436976979065,1.53657829236521,1.37253201520206,-16.9982312371915,-17.6991879263397,-46.3823300869324,0.0261147269451871,-2.53713717683741,-4.42076283303992,-4.71571236613426,2.65663698656163,9.87546071713553,2.57129089458283,-4.67347693806894,23.4278314978141,4.54566234357585,-7.57048408546859,6.79000000000002,1.31426329588488,-8.91133668678959,-2.13549755261493,-38.1509358669864,-2.10235844684046,9.29646174343262,0.719195419061723,-9.6463720338735,-2.96895114232814,-16.5945188308709,1055.13587830735,0.10335854064487,-0.143686128060813,-20.1879797489768,-17.5669635021004,-20.9102615724978,-0.089957120249439,0.120386791314457,-1.60834511890346,-1.69060450095973,-62.7510358104675,-24.3269204189028,-28.6844873812725,0.085530419846872,2.68004508122282,6.41691248701331,6.32393858672984,3.33827175661469,8.99562207895837,0.771842868542023,-6.93167149138423,23.8475159389247,26.3395501902757,-7.63937570453306,1.58887046723999,-1.53552860562615,-10.4954676113762,-34.8548619251991,-28.6388510870587,-3.09971556377784,7.96270493376485,-0.627247010260515,-69.1587364106716,1.28548847750401,-166.79077181447,168.525261864654,0.290222976332917,0.0246116869829527
92.79,-11.2736392802569,1.98763633918774,-10.3791915609556,0.328381641122827,4.83823809157787,1.73768867175359,1.57342285070154,-17.2120908363147,-11.0047764130634,-41.9077329019252,0.0245737210115062,-2.28964337207133,-4.4168697431208,-4.7147520042335,2.80972967646577,9.82972989543988,2.56783828762247,-6.77210269885585,23.4574570482967,-0.810464664405306,-7.42270367329065,6.93594514698639,1.39891892483712,-9.24758185677876,2.60626238910209,-33.0213613295783,-2.11253694094297,9.14094927548618,0.711450133156214,-8.98459912162961,-2.71202805842738,-16.4954081757065,1040.05408660426,0.107873107346906,-0.144265866839038,-20.3248004550446,-16.0078211917962,-19.9471256902346,-0.0897930499721347,0.170387615778432,-1.47442867391482,-1.54284029534285,-63.0516164977464,-22.1549787035728,-27.7294984412544,0.0784400245037989,2.46980057298457,6.01829634034367,5.91560946416426,3.25837871571686,8.89270323534243,0.665675918322641,-6.36470069821651,21.8848865288346,23.6536586585673,-7.22108173208516,1.6248642907976,-1.27216258827396,-9.30697304117861,-37.8772114864084,-27.2973083081074,-2.15338468712957,7.64237885851836,-0.576941234555328,-67.0704365535708,-3.94740037668278,-145.806306719058,144.351420594515,0.258054686228604,0.0226278122946626
92.795,-11.188321512128,5.44733797808766,-8.4498805426921,0.31887455515796,4.9141015693467,2.00212582937307,1.83963299604818,-17.242203092821,-7.7098223930471,-36.886007295558,0.0148216080533399,-2.0357600597418,-4.32199539780362,-4.61940946060838,2.83039513877484,9.76543734603383,2.39332993923467,-7.8351408834794,23.6162040838671,-5.65224924930406,-7.04613302676959,7.24592708162261,1.39662276235833,-8.88189672126825,6.69966809202588,-30.4445567700508,-2.06194288319879,8.94077258026253,0.782941737680487,-7.40139498739607,-2.30216306362819,-15.699787622791,1027.42519297093,0.111773597616332,-0.145017587936439,-20.4000810963102,-14.1955964328855,-19.0636589879825,-0.0880944234479914,0.169943253408768,-1.32908915375073,-1.38284572625601,-63.207195905751,-19.6837634417552,-26.6232242481442,0.0701711536765744,2.30607335956855,5.66504054068736,5.55147179632131,3.12749745442601,8.6860486122516,0.571533256692386,-5.33001019851624,21.2470636180605,21.7118422413216,-6.96850385941861,1.84759205123993,-1.10683888980129,-9.53942405754963,-37.5115263508979,-23.0253121901669,-0.912730408717228,7.36741115933746,-0.41361041398819,-54.38069519266,-16.4201550556141,-112.792081127521,117.486319592708,0.191618933173936,0.0168023193662224
92.8,-11.1030078121742,8.90687464933361,-6.52066151904135,0.309367922515903,4.98996142974581,2.26655037793488,2.10784715551231,-17.2723139134958,-4.41502548508595,-31.8645211382469,0.00506996010151334,-1.78188885323491,-4.22712557634423,-4.52071727013449,2.85105961570044,9.70114786226528,2.2188299118629,-8.89812837965242,23.7749435499623,-10.4938029652068,-6.66958033612525,7.55589423550665,1.3943267093666,-8.51622902258473,10.7928786106228,-27.8678750793274,-2.01135123791206,8.74060542998907,0.85442993329743,-5.8182663444907,-1.89231761226763,-14.9042050071516,1014.7969015164,0.115673901900146,-0.145769273189806,-20.4753581479973,-12.3834580856075,-18.1802344117414,-0.0863958779188187,0.169498912227469,-1.18375656375641,-1.22230352419552,-63.3627678953212,-17.2126660139669,-25.517002805091,0.0619026771308122,2.14235395309577,5.31180158519468,5.18642713292622,2.99662243389719,8.47940384299556,0.477395084031311,-4.2953690355745,20.6092711203567,19.7701184149789,-6.71593803032791,2.07030919143811,-0.94152307439646,-9.77186399004613,-37.1458586522144,-18.7535197722129,0.327864712043082,7.09245657133809,-0.25028738146323,-41.6915589119209,-28.8923150008683,-79.7794297409037,90.6224995894236,0.125186347950332,0.0109771042125738
92.805,-11.0176900440453,12.3665762882335,-4.59135050077787,0.299860836551036,5.06582490751464,2.53098753555437,2.37808523795931,-17.302426170002,-1.12007146506968,-26.8427955318797,-0.00468215285665299,-1.52800554090538,-4.13225123102705,-4.41873927384637,2.87172507800952,9.63685531285924,2.0443215634751,-9.96116656427598,23.9336905855327,-15.3355875501055,-6.29300968960419,7.86587617014287,1.39203054688782,-8.15054388707422,14.8862843135466,-25.2910705197999,-1.96075718016788,8.54042873476542,0.925921537821703,-4.23506221025717,-1.48245261746844,-14.1085844542362,1002.16800788307,0.119574392169572,-0.146520994287208,-20.5506387892629,-10.5712333266969,-17.2967677094894,-0.0846972513946754,0.169054549857806,-1.03841704359233,-1.06145933434592,-63.5183473033258,-14.7414507521493,-24.4107286119809,0.0536338063035877,1.97862673967975,4.95854578553837,4.82073052464295,2.86574117260634,8.27274921990473,0.383252422401056,-3.26067853587424,19.9714482095825,17.8283019977332,-6.46336015766136,2.29303695188044,-0.776199375923798,-10.0043150064172,-36.7801735167039,-14.4815236542723,1.56851899045542,6.81748887215719,-0.0869565608960926,-29.00181755101,-41.3650696797997,-46.7652041493662,63.757398587617,0.058750594895664,0.00515161128413366
92.81,-10.9101364063886,15.7980333912909,-2.46845122167314,0.290956322114603,5.13254642230442,2.80433432546204,2.65920570001235,-17.3221304953872,2.14503085561289,-21.7803944767357,-0.0144321094776421,-1.27064548623571,-4.03037455810898,-4.30657682727263,2.89806442034751,9.57654381985105,1.86868688908154,-10.9609710149199,24.0207379606646,-20.0034374117021,-5.8819479316365,8.15612884069502,1.38481572977658,-7.74928976824925,18.5627091197203,-22.8061127071622,-1.91642962419595,8.37368614211457,0.988177410333413,-2.55476143052137,-1.07967790285911,-13.2668965323226,989.876741451596,0.12322732934286,-0.147168744797845,-20.6190996513551,-8.76199488019723,-16.3404569092764,-0.0833859831515006,0.16002278090323,-0.888874514320557,-0.896381413112488,-63.6615952044086,-12.1014745499553,-23.1536791587193,0.04536605159024,1.8161476767235,4.60640152063894,4.45583404707681,2.7678569307695,8.08740786488827,0.312672660546111,-2.23118415555992,19.0852572824139,15.9688814753524,-6.2143666638954,2.51390524603015,-0.607822844044321,-10.1892532460249,-36.5812410547457,-10.0153122666316,2.63875454410441,6.57522563649346,0.0621711202103411,-19.3263533036638,-52.9716065257955,-16.0901785302913,39.4527714764184,0,0
92.815,-10.632482154339,19.0148959769737,1.13585456664423,0.286656503369677,5.12937922620971,3.14593323380545,3.01047640336386,-17.2622448058252,5.18317873772968,-16.4048267106358,-0.0241695953882523,-0.986589751774237,-3.87490322772319,-4.13776403630095,2.96780752283335,9.54665391878569,1.68436583251183,-11.477586588889,23.559474055335,-23.3429880862885,-5.20693433257716,8.2956150456667,1.33998087817854,-7.07584446646802,19.0516488593696,-21.0225589398878,-1.92000896072385,8.46257329120493,0.979825600357505,-0.131188614387666,-0.730962388945278,-12.0725458832491,980.162523605354,0.124988527636224,-0.147021612524314,-20.6354321985242,-6.97484918071922,-14.8266521084108,-0.0850366264178509,0.0853122184258702,-0.707126397650618,-0.699334087715147,-63.710592845916,-8.16975386263898,-20.7430070150568,0.0371034233483348,1.66314726092762,4.26261287608427,4.09933066171984,2.92228808627386,8.06499043908926,0.422268964452426,-1.24100430545236,16.2992232942231,14.7388443944734,-5.99268323099399,2.72064372839888,-0.416029312208274,-10.0108978692974,-37.6575235005148,-4.06193279517745,2.40609713531735,6.58298084089314,0.102737029458171,-32.6995933383474,-57.9582384675538,-3.29231895809141,34.7202038077366,0,0
92.82,-10.3548411415729,22.231605174206,4.7399884922023,0.282356889651394,5.12621218113522,3.48751585381639,3.3635167310972,-17.20236197177,8.22118175298198,-11.0295152657149,-0.0339066169899788,-0.702547561835676,-3.71943931061846,-3.9660583277303,3.03754729978503,9.51676544294926,1.50005356485384,-11.9941775292718,23.0982321442789,-26.6823795223342,-4.53195291993775,8.43509459957004,1.29514816442389,-6.40243127632621,19.540565285089,-19.2390902171377,-1.9235881265796,8.55145620192275,0.971474188617815,2.29226863943361,-0.382263502702337,-10.8782521839491,970.448768958514,0.126749641951032,-0.146874487266435,-20.6517639669147,-5.18778869703844,-13.312919489731,-0.0866871909771982,0.0106052183442033,-0.525386947207872,-0.502798349255056,-63.7595881510873,-4.2382206500836,-18.3324498185688,0.028841189090229,1.51015414059309,3.91884062427443,3.74324471247909,3.07671187809542,8.04257408221194,0.53186004251934,-0.25087166971874,13.5133221514446,13.5088659649907,-5.77101036854046,2.92737235293419,-0.224244925591178,-9.83255099702241,-38.7337546263122,1.89116280351914,2.17345082024613,6.59073567550432,0.143301004416984,-46.0721957018488,-62.9446326336139,9.50493037857669,29.9878618003017,0,0
92.825,-10.0771868895234,25.4484677598889,8.34429428051968,0.278057070906468,5.12304498504052,3.82911476215979,3.71820933726255,-17.142476282208,11.2593296350988,-5.65394749961495,-0.0436441029005891,-0.418491827374206,-3.56396798023268,-3.7916311470911,3.10729040227087,9.4868755418839,1.31573250828412,-12.510793103241,22.6369682389493,-30.0219301969206,-3.85693932087841,8.57458080454172,1.25031331282585,-5.72898597454498,20.0295050247384,-17.4555364498632,-1.92716746310751,8.64034335101312,0.963122378641907,4.71584145556731,-0.0335479887885059,-9.6839015348757,960.734551112272,0.128510840244397,-0.146727354992904,-20.6680965140838,-3.40064299756043,-11.7991146888653,-0.0883378342435485,-0.0641053441331568,-0.343638830537933,-0.307020097941655,-63.8085857925947,-0.306499962767228,-15.9217776749062,0.0205785608483237,1.3571537247972,3.57505197971976,3.38791081661755,3.23114303359978,8.02015665641293,0.641456346425654,0.739308180388815,10.7272881632538,12.2788288841117,-5.54932693563906,3.13411083530292,-0.0324513937551315,-9.65419562029496,-39.8100370720812,7.84454227497328,1.94079341145906,6.59849087990399,0.183866913664813,-59.4454357365324,-67.9312645753721,22.3027899507766,25.2552941316199,0,0
92.83,-9.79863694606112,28.4407652326947,11.8989907587314,0.274535747131492,5.11678146393438,4.15339214823605,4.05703008813492,-17.065816675669,14.3738480144972,-0.449606430341726,-0.0521727806491251,-0.146781901068293,-3.40113409643116,-3.60734656304728,3.1577068749863,9.4493304952711,1.1632209080336,-13.0795410553224,21.9192609768341,-33.2073844341661,-3.23399574290667,8.70069583726492,1.19376379715168,-5.08708998656552,19.9439647967586,-15.3009090955885,-1.93116354759209,8.72509931222087,0.953612986157895,7.05979744027919,0.305166115800513,-8.53531312844147,951.257773584078,0.130387802390885,-0.146415128910239,-20.6843028318719,-1.7105191572845,-10.2795093782609,-0.0901456272351403,-0.142590559078669,-0.174102533544504,-0.124475552545232,-63.8445306531573,3.44505643900062,-13.4518437719943,0.0128799144240299,1.20897976257982,3.24533924774777,3.04778156853999,3.35561936319151,7.99953610849005,0.738376379715179,1.62877057127786,8.27176125384051,11.2135016014896,-5.35255140330475,3.35525575475631,0.142319457549744,-9.63929437472553,-40.5936529377168,13.7430329175664,1.6842693638974,6.54974586767827,0.145069569874431,-70.7694090253283,-72.0318265176898,34.1095592485972,20.6288867920388,0,0
92.835,-9.51196561995296,29.4313446184381,15.0128508773484,0.277956976963229,5.08289558508854,4.3233139676115,4.24272492042263,-16.8394965147116,18.1710688468851,3.22984462900158,-0.0499228553539109,0.0149312445077087,-3.17254879179514,-3.35506955051717,3.03575256193633,9.34348335564283,1.29437932018168,-14.1135818181966,18.9137249133153,-35.0197965405224,-3.07522503346427,8.70759891158851,1.03269206293474,-4.72631202809019,14.7339901838157,-9.83526506325363,-1.93887893780201,8.77304493570806,0.933773393698576,8.69467554696995,0.554827305756888,-7.79438319932098,943.894494305589,0.13329827255085,-0.14463010898419,-20.6993908426024,-0.885036317544746,-8.70744436214314,-0.0933560598491881,-0.254783014708618,-0.113416164338652,-0.0520464077111002,-63.7640609700042,5.59131181135184,-10.4521232427487,0.0102083760831201,1.10378794850231,3.04102848873681,2.83452545288577,3.21295582717079,7.994934058941,0.722269206293487,1.62024825729813,8.76321469333839,11.6168911298636,-5.37786267582455,3.70501152048451,0.165329705295026,-11.0824062086268,-38.7670369747275,19.1547022946963,1.21473219835084,5.99699265776224,-0.601670848601545,-63.8191632725373,-68.2305334848375,37.0813320777935,16.9472471527945,0,0
92.84,-9.22529429384479,30.4219240041815,18.1267109959654,0.281378206794965,5.04900970624269,4.49323578698695,4.42939966882365,-16.6131763537541,21.968289679273,6.90929568834489,-0.0476729300586968,0.176644390083711,-2.94396348715911,-3.10084103230326,2.91379824888635,9.23763621601456,1.42553773232977,-15.1476225810707,15.9081888497965,-36.8322086468788,-2.91645432402186,8.7145019859121,0.87162032871781,-4.36553406961487,9.52401557087283,-4.36962103091879,-1.94659432801194,8.82099055919524,0.913933801239258,10.3295536536607,0.804488495713264,-7.0534532702005,936.531215027101,0.136208742710816,-0.142845089058142,-20.7144788533329,-0.05955347780499,-7.13537934602537,-0.0965664924632359,-0.366975470338567,-0.0527297951327993,0.018891048142568,-63.6835912868511,7.73756718370307,-7.45240271350318,0.00753683774221031,0.998596134424802,2.83671772972585,2.6230547470811,3.07029229115008,7.99033200939195,0.706162032871795,1.61172594331841,9.25466813283627,12.0202806582376,-5.40317394834434,4.05476728621271,0.188339953040308,-12.5255180425281,-36.9404210117383,24.5663716718262,0.745195032804286,5.44423944784622,-1.34841126707752,-56.8689175197463,-64.4292404519853,40.0531049069898,13.2656075135503,0,0
92.845,-8.93863663697781,31.4124561565001,21.2404226375597,0.284799273493484,5.01512544316449,4.6631495040441,4.61677187925171,-16.3868669843359,25.765329450206,10.5885713018051,-0.0454231120458256,0.338349824752523,-2.71538908207033,-2.84499710490855,2.79184975093809,9.1317941234557,1.55668989050055,-16.1816140381675,12.902796098125,-38.6445343326693,-2.75769118518356,8.72140473107899,0.710556274823889,-4.00477331397945,4.31428938319283,1.09576238516426,-1.95430935033181,8.86893389650927,0.894095154783776,11.9643538050727,1.05413778116888,-6.31255867056357,929.168286849093,0.139119074091926,-0.141060154246528,-20.7295661446274,0.765890000746527,-5.56338929009338,-0.0997767719954311,-0.479162576337788,0.00795368038770063,0.088130738158761,-63.6031254407037,9.88372021696539,-4.45282521880506,0.00486542678725995,0.893409336169058,2.63241671278809,2.41365562585549,2.92763555770117,7.9857301792807,0.690055627482404,1.60320403570498,9.74609813854436,12.4236509519401,-5.42848401395624,4.40450637466808,0.211349103596588,-13.9685610650698,-35.113892146592,29.9777830063575,0.275680256022061,4.89151259465391,-2.09511607901056,-49.9190031729133,-60.6281286747611,43.0247360342583,9.58414342454631,0,0
92.85,-8.65196531086965,32.4030355422435,24.3542827561767,0.28822050332522,4.98123956431865,4.83307132341955,4.80456478589479,-16.1605468233784,29.562550282594,14.2680223611484,-0.0431731867506115,0.500062970328525,-2.4868037774343,-2.58787563577608,2.66989543788812,9.02594698382743,1.68784830264864,-17.2156548010417,9.89726003460617,-40.4569464390257,-2.59892047574115,8.72830780540257,0.549484540606955,-3.64399535550412,-0.895685229750047,6.56140641749909,-1.96202474054173,8.91687951999646,0.874255562324458,13.5992319117634,1.30379897112526,-5.57162874144308,921.805007570604,0.142029544251891,-0.13927513432048,-20.7446541553579,1.59137284048628,-3.99132427397561,-0.102987204609479,-0.591355031967737,0.0686400495935528,0.155504203566252,-63.5226557575506,12.0299755893166,-1.45310468955949,0.00219388844635017,0.788217522091548,2.42810595377713,2.20653844152925,2.78497202168045,7.98112812973164,0.673948454060712,1.59468172172525,10.2375515780422,12.8270404803141,-5.45379528647603,4.75426214039628,0.23435935134187,-15.4116728989711,-33.2872761836028,35.3894523834873,-0.193856909524494,4.33875938473789,-2.84185649748654,-42.9687574201223,-56.8268356419089,45.9965088634546,5.90250378530206,0,0
92.855,-8.35308810153406,31.645288424119,26.2520737253131,0.291999620980807,4.95739126124773,4.9390889401334,4.92856117740842,-15.8307431516504,30.9936742999034,17.2530906839152,-0.0501543473344349,0.525500271441802,-2.21315894405083,-2.2848194442649,2.54238187003776,8.99302727643127,1.66944775412673,-17.4691358024691,6.89005451697197,-41.35962658029,-2.45540914646904,8.9025749083261,0.304304654722435,-3.11007599421997,-2.55160473706687,9.65732791113708,-1.96391606330872,8.92863273620605,0.869392156600952,14,1.36500000953674,-5.3899998664856,920,0.14274300634861,-0.138837561011314,-20.7902632213252,-0.332490934248773,-3.16708601878958,-0.107059489790719,-0.704557829705575,0.111100886574949,0.202643607541251,-63.3390975456957,15.3076792734822,1.62225723804321,-0.000485885190996479,0.705632312903504,2.25695709195236,2.03505034145954,2.91037264208081,8.01660679873585,0.736240873902956,1.4785326082893,8.561041919787,13.1927832476922,-5.49486361784364,4.81559546750942,0.299268150334215,-16.7962761078463,-29.8136884760385,40.652194878768,-0.464683267323507,4.57691774730491,-2.98817018455678,-37.7690503896638,-49.8609798393716,47.1032690735095,5,0,0
92.86,-8.05022799119522,30.3197014889697,27.755050183615,0.295895206129765,4.93680128595671,5.02435952663458,5.03160850984727,-15.4673110192438,31.6564677674781,20.012837681324,-0.0601338650670084,0.506681812663622,-1.92486315159446,-1.96665606207796,2.41305480613581,8.98378962900969,1.60247481032035,-17.4691358024691,3.88211685346761,-41.9669163644857,-2.31684443514551,9.13120668200991,0.0317940557861814,-2.5198929645087,-3.05340286860882,11.9838465210134,-1.96391606330872,8.92863273620605,0.869392156600952,14,1.36500000953674,-5.3899998664856,920,0.14274300634861,-0.138837561011314,-20.8457872812304,-3.14936259330409,-2.58566223863166,-0.111411930141454,-0.818095900442426,0.147645425367529,0.241759215946961,-63.1220483872667,18.9530426844149,4.72237897555632,-0.0031685026333096,0.630383677974939,2.09656717924776,1.87690303683955,3.12283853277687,8.06510444769908,0.82399852440785,1.32742294367723,6.18035192071009,13.5463228403695,-5.54105185495149,4.78326370153394,0.377788153417536,-18.1619653408497,-25.8050056751976,45.866903870758,-0.67099279402509,5.0719500550708,-2.93949666300606,-33.1375252836829,-41.8669507547906,47.6044119042343,5,0,0
92.865,-7.74738232202128,28.9941777612843,29.2579549760549,0.299790605526999,4.91621229244975,5.10962604721041,5.13414254756485,-15.1038962162351,32.3192296313207,22.7724530867532,-0.0701129069499857,0.487864251198944,-1.6365811058381,-1.64849079383442,2.28373390888767,8.97455242206339,1.53550505995971,-17.4691358024691,0.874322616325239,-42.5741771915106,-2.17828633095108,9.35982755393072,-0.240703549129524,-1.92973807627318,-3.55517707309891,14.3102541963766,-1.96391606330872,8.92863273620605,0.869392156600952,14,1.36500000953674,-5.3899998664856,920,0.14274300634861,-0.138837561011314,-20.9013086936027,-5.96609993652596,-2.0042661822855,-0.115764162956411,-0.931628557386089,0.18418822162059,0.278712067404229,-62.9050095783111,22.598232274853,7.82235289112886,-0.00585099216138267,0.555138631098774,1.93618491435513,1.72139388126753,3.33529429254166,8.11359978416712,0.911751990397652,1.17632048437055,3.79977543918035,13.8998455753511,-5.58723788968298,4.75093347722191,0.456304412461039,-19.5275894542063,-21.7965140188733,51.0813642117376,-0.877292483346991,5.56695875839707,-2.89082546233658,-28.5062210209743,-33.8733028464962,48.1055308391538,5,0,0
92.87,-7.44452221168244,27.668590826135,30.7609314343568,0.303686190675957,4.89562231715873,5.19489663371159,5.23587402747675,-14.7404640838285,32.9820230988954,25.532200084162,-0.0800924246825593,0.469045792420764,-1.34828531338172,-1.33075096487865,2.15440684498572,8.96531477464182,1.46853211615334,-17.4691358024691,-2.13361504717912,-43.1814669757063,-2.03972161962756,9.58845932761452,-0.513214148065778,-1.33955504656191,-4.05697520464086,16.636772806253,-1.96391606330872,8.92863273620605,0.869392156600952,14,1.36500000953674,-5.3899998664856,920,0.14274300634861,-0.138837561011314,-20.9568327535079,-8.78297159558128,-1.42284240212758,-0.120116603307146,-1.04516662812294,0.22073276041317,0.313501674343238,-62.6879604198821,26.2435956857857,10.922474628642,-0.00853360960369579,0.479889996170209,1.77579500165053,1.56848658320681,3.54776018323773,8.16209743313035,0.999509640902546,1.02521081975848,1.41908544010344,14.2533851680284,-5.63342612679083,4.71860171124642,0.53482441554436,-20.8932786872096,-17.7878312180324,56.2960732037276,-1.08360201004857,6.06199106616295,-2.84215194078586,-23.8746959149934,-25.8792737619152,48.6066736698786,5,0,0
92.875,-7.17923254635516,26.4304673600196,31.4536000658331,0.304089189347301,4.87448673589604,5.24728505845058,5.30363615614118,-14.4092882029205,33.0237378166511,27.6774245504234,-0.0893396259890522,0.405762587149157,-1.07755508349901,-1.03147612445503,2.06106648523376,9.002600408224,1.41106648523378,-17.1746144616611,-3.69239341539287,-42.9838959931732,-1.8284120723747,9.78532062594351,-0.800641251886988,-1.06194298040803,-3.63158163443423,17.3909409022769,-1.9974722024689,8.93724853125177,0.879141572360936,14.4804380094187,1.41801384546526,-5.01558963049125,924.070705674739,0.139393974557116,-0.13614844292427,-21.0446451301835,-11.0149350304608,-1.56737537607669,-0.123109845013624,-1.13891790561975,0.21179751525626,0.300694953400667,-62.4534191695005,28.2050672992058,13.7451795099299,-0.0114016751137463,0.410192196771074,1.6352464456337,1.43793750126045,3.64822645801885,8.20420013607467,1.01970637637405,1.24331156506084,0.69686217163519,14.7816985867291,-5.74993419513961,4.82022781876554,0.583786702953232,-21.6217443071885,-15.1729353149207,61.16861053429,-1.25286078536579,6.35451105638423,-2.78762068536937,-19.7720004496273,-18.6193684771747,49.845936063556,4.71599727850658,0,0
92.88,-6.96481988269482,25.3107151565542,31.0484043997412,0.299759886453207,4.85260950193987,5.25512505248796,5.32550548213639,-14.1217813567908,32.2239146926778,28.9902308654935,-0.0975955995812517,0.282223917038138,-0.830595246405062,-0.757326821681641,2.01647651648841,9.10292783790104,1.36647651648843,-16.4809927256224,-3.28778073603692,-41.6957413405298,-1.51851178959452,9.93915601811497,-1.1083120362299,-1.20782374235269,-1.94982417126089,16.0147072990254,-2.07649964216202,8.95753943003882,0.902102240223752,15.6119086364291,1.54286574519494,-4.13382304213939,933.657548954989,0.13150673202694,-0.129815350894904,-21.1762170399896,-12.4546165260399,-2.69557356372927,-0.12426175066172,-1.20586921725953,0.141237563936553,0.224249211424018,-62.195150336553,27.8851377944706,16.1923100978624,-0.0145213391022728,0.34800778127971,1.52156653209174,1.33660940844438,3.5969479939617,8.23764261263367,0.94836242638149,1.96170550595813,2.22172900403788,15.546884470137,-5.96173654668001,5.10337412029851,0.592704696702306,-21.4868734140699,-14.4462839724039,65.5780629991078,-1.37193594390271,6.37266595918236,-2.72514625779346,-16.3853920980392,-12.3533630086713,52.0854668355578,4.04714774732635,0,0
92.885,-6.75041744279301,24.1910163458126,30.6432280544421,0.295430789991638,4.83073331114764,5.26296467269384,5.34580216974692,-13.834288219742,31.4241297063701,30.3029745825131,-0.105851179506963,0.15869113757513,-0.583647185004277,-0.484984854533653,1.9718886739098,9.20325048370294,1.32188867390982,-15.7874040632884,-2.88318734967541,-40.4076481104809,-1.20862628367315,10.0929840750112,-1.41596815002234,-1.35369754831977,-0.268146898697083,14.6385393182039,-2.15552331361942,8.97782936130256,0.925061813261665,16.7433253119506,1.66771169165838,-3.25209849873262,943.243935109391,0.123619865581187,-0.123482560843988,-21.3077826761018,-13.8942293738269,-3.82371795593136,-0.125413601383932,-1.27281733648505,0.0706809771005056,0.145948169262921,-61.9368938185413,27.5652235448139,18.639324000186,-0.017640854337033,0.285826330904476,1.4078920391064,1.23740439957339,3.54567197499629,8.27108349456763,0.877021878255708,2.68006519194693,3.74652312678805,16.3120338674737,-6.17352879892843,5.38650692067273,0.601622265218034,-21.3520089519494,-13.7196672785302,69.9873052096597,-1.49100542462356,6.39081999630707,-2.6626748091622,-12.9989452288253,-6.08765631975349,54.3248908208548,3.37833010864712,0,0
