X[s],"Avanti sensor 2: ACC.X 2",X[s],"Avanti sensor 2: ACC.Y 2",X[s],"Avanti sensor 2: ACC.Z 2",X[s],"Avanti sensor 2: GYRO.X 2",X[s],"Avanti sensor 2: GYRO.Y 2",X[s],"Avanti sensor 2: GYRO.Z 2",X[s],"L RECTUS FEMORIS: EMG 4",X[s],"L BICEPS FEMORIS: EMG 5",X[s],"Avanti sensor 7: ACC.X 7",X[s],"Avanti sensor 7: ACC.Y 7",X[s],"Avanti sensor 7: ACC.Z 7",X[s],"Avanti sensor 7: GYRO.X 7",X[s],"Avanti sensor 7: GYRO.Y 7",X[s],"Avanti sensor 7: GYRO.Z 7",X[s],"R RECTUS FEMORIS: EMG 10",X[s],"R BICEPS FEMORIS: EMG 15"
0.000000,0,0.000000,0,0.000000,0,0.000000,0,0.000000,0,0.000000,0,0.000000,0,0.000000,0,0.000000,0,0.000000,0,0.000000,0,0.000000,0,0.000000,0,0.000000,0,0.000000,0,0.000000,0
0.0027,0,0.0027,0,0.0027,0,0.0027,0,0.0027,0,0.0027,0,0.0004655172,0,0.0004655172,0,0.0027,0,0.0027,0,0.0027,0,0.0027,0,0.0027,0,0.0027,0,0.0004655172,0,0.0004655172,0
0.0054,0,0.0054,0,0.0054,0,0.0054,0,0.0054,0,0.0054,0,0.0009310344,0,0.0009310344,0,0.0054,0,0.0054,0,0.0054,0,0.0054,0,0.0054,0,0.0054,0,0.0009310344,0,0.0009310344,0
0.0081,0,0.0081,0,0.0081,0,0.0081,0,0.0081,0,0.0081,0,0.001396552,0,0.001396552,0,0.0081,0,0.0081,0,0.0081,0,0.0081,0,0.0081,0,0.0081,0,0.001396552,0,0.001396552,0
0.0108,0,0.0108,0,0.0108,0,0.0108,0,0.0108,0,0.0108,0,0.001862069,0,0.001862069,0,0.0108,0,0.0108,0,0.0108,0,0.0108,0,0.0108,0,0.0108,0,0.001862069,0,0.001862069,0
0.0135,0,0.0135,0,0.0135,0,0.0135,0,0.0135,0,0.0135,0,0.002327586,0,0.002327586,0,0.0135,0,0.0135,0,0.0135,0,0.0135,0,0.0135,0,0.0135,0,0.002327586,0,0.002327586,0
0.0162,0,0.0162,0,0.0162,0,0.0162,0,0.0162,0,0.0162,0,0.002793103,0,0.002793103,0,0.0162,0,0.0162,0,0.0162,0,0.0162,0,0.0162,0,0.0162,0,0.002793103,0,0.002793103,0
0.0189,0,0.0189,0,0.0189,0,0.0189,0,0.0189,0,0.0189,0,0.003258621,0,0.003258621,0,0.0189,0,0.0189,0,0.0189,0,0.0189,0,0.0189,0,0.0189,0,0.003258621,0,0.003258621,0
0.0216,0,0.0216,0,0.0216,0,0.0216,0,0.0216,0,0.0216,0,0.003724138,0,0.003724138,0,0.0216,0,0.0216,0,0.0216,0,0.0216,0,0.0216,0,0.0216,0,0.003724138,0,0.003724138,0
0.0243,0,0.0243,0,0.0243,0,0.0243,0,0.0243,0,0.0243,0,0.004189655,0,0.004189655,0,0.0243,0,0.0243,0,0.0243,0,0.0243,0,0.0243,0,0.0243,0,0.004189655,0,0.004189655,0
0.027,0,0.027,0,0.027,0,0.027,0,0.027,0,0.027,0,0.004655172,0,0.004655172,0,0.027,0,0.027,0,0.027,0,0.027,0,0.027,0,0.027,0,0.004655172,0,0.004655172,0
0.0297,0,0.0297,0,0.0297,0,0.0297,0,0.0297,0,0.0297,0,0.00512069,0,0.00512069,0,0.0297,0,0.0297,0,0.0297,0,0.0297,0,0.0297,0,0.0297,0,0.00512069,0,0.00512069,0
0.0324,0,0.0324,0,0.0324,0,0.0324,0,0.0324,0,0.0324,0,0.005586207,0,0.005586207,0,0.0324,0,0.0324,0,0.0324,0,0.0324,0,0.0324,0,0.0324,0,0.005586207,0,0.005586207,0
0.0351,0,0.0351,0,0.0351,0,0.0351,0,0.0351,0,0.0351,0,0.006051724,0,0.006051724,0,0.0351,0,0.0351,0,0.0351,0,0.0351,0,0.0351,0,0.0351,0,0.006051724,0,0.006051724,0
0.0378,0,0.0378,0,0.0378,0,0.0378,0,0.0378,0,0.0378,0,0.006517241,0,0.006517241,0,0.0378,0,0.0378,0,0.0378,0,0.0378,0,0.0378,0,0.0378,0,0.006517241,0,0.006517241,0
0.0405,0,0.0405,0,0.0405,0,0.0405,0,0.0405,0,0.0405,0,0.006982759,0,0.006982759,0,0.0405,0,0.0405,0,0.0405,0,0.0405,0,0.0405,0,0.0405,0,0.006982759,0,0.006982759,0
0.0432,0,0.0432,0,0.0432,0,0.0432,0,0.0432,0,0.0432,0,0.007448276,0,0.007448276,0,0.0432,0,0.0432,0,0.0432,0,0.0432,0,0.0432,0,0.0432,0,0.007448276,0,0.007448276,0
0.0459,0,0.0459,0,0.0459,0,0.0459,0,0.0459,0,0.0459,0,0.007913793,0,0.007913793,0,0.0459,0,0.0459,0,0.0459,0,0.0459,0,0.0459,0,0.0459,0,0.007913793,0,0.007913793,0
0.0486,0,0.0486,0,0.0486,0,0.0486,0,0.0486,0,0.0486,0,0.00837931,0,0.00837931,0,0.0486,0,0.0486,0,0.0486,0,0.0486,0,0.0486,0,0.0486,0,0.00837931,0,0.00837931,0
0.0513,0,0.0513,0,0.0513,0,0.0513,0,0.0513,0,0.0513,0,0.008844827,0,0.008844827,0,0.0513,0,0.0513,0,0.0513,0,0.0513,0,0.0513,0,0.0513,0,0.008844827,0,0.008844827,0
0.054,0,0.054,0,0.054,0,0.054,0,0.054,0,0.054,0,0.009310344,0,0.009310344,0,0.054,0,0.054,0,0.054,0,0.054,0,0.054,0,0.054,0,0.009310344,0,0.009310344,0
0.0567,0,0.0567,0,0.0567,0,0.0567,0,0.0567,0,0.0567,0,0.009775862,0,0.009775862,0,0.0567,0,0.0567,0,0.0567,0,0.0567,0,0.0567,0,0.0567,0,0.009775862,0,0.009775862,0
0.0594,0,0.0594,0,0.0594,0,0.0594,0,0.0594,0,0.0594,0,0.01024138,0,0.01024138,0,0.0594,0,0.0594,0,0.0594,0,0.0594,0,0.0594,0,0.0594,0,0.01024138,0,0.01024138,0
0.0621,0,0.0621,0,0.0621,0,0.0621,0,0.0621,0,0.0621,0,0.0107069,0,0.0107069,0,0.0621,0,0.0621,0,0.0621,0,0.0621,0,0.0621,0,0.0621,0,0.0107069,0,0.0107069,0
0.0648,0,0.0648,0,0.0648,0,0.0648,0,0.0648,0,0.0648,0,0.01117241,0,0.01117241,0,0.0648,0,0.0648,0,0.0648,0,0.0648,0,0.0648,0,0.0648,0,0.01117241,0,0.01117241,0
0.0675,0,0.0675,0,0.0675,0,0.0675,0,0.0675,0,0.0675,0,0.01163793,0,0.01163793,0,0.0675,0,0.0675,0,0.0675,0,0.0675,0,0.0675,0,0.0675,0,0.01163793,0,0.01163793,0
0.0702,0,0.0702,0,0.0702,0,0.0702,0,0.0702,0,0.0702,0,0.01210345,0,0.01210345,0,0.0702,0,0.0702,0,0.0702,0,0.0702,0,0.0702,0,0.0702,0,0.01210345,0,0.01210345,0
0.0729,0,0.0729,0,0.0729,0,0.0729,0,0.0729,0,0.0729,0,0.01256897,0,0.01256897,0,0.0729,0,0.0729,0,0.0729,0,0.0729,0,0.0729,0,0.0729,0,0.01256897,0,0.01256897,0
0.0756,0,0.0756,0,0.0756,0,0.0756,0,0.0756,0,0.0756,0,0.01303448,0,0.01303448,0,0.0756,0,0.0756,0,0.0756,0,0.0756,0,0.0756,0,0.0756,0,0.01303448,0,0.01303448,0
0.0783,0,0.0783,0,0.0783,0,0.0783,0,0.0783,0,0.0783,0,0.0135,0,0.0135,0,0.0783,0,0.0783,0,0.0783,0,0.0783,0,0.0783,0,0.0783,0,0.0135,0,0.0135,0
0.081,0,0.081,0,0.081,0,0.081,0,0.081,0,0.081,0,0.01396552,0,0.01396552,0,0.081,0,0.081,0,0.081,0,0.081,0,0.081,0,0.081,0,0.01396552,0,0.01396552,0
0.0837,0,0.0837,0,0.0837,0,0.0837,0,0.0837,0,0.0837,0,0.01443103,0,0.01443103,0,0.0837,0,0.0837,0,0.0837,0,0.0837,0,0.0837,0,0.0837,0,0.01443103,0,0.01443103,0
0.0864,0,0.0864,0,0.0864,0,0.0864,0,0.0864,0,0.0864,0,0.01489655,0,0.01489655,0,0.0864,0,0.0864,0,0.0864,0,0.0864,0,0.0864,0,0.0864,0,0.01489655,0,0.01489655,0
0.0891,0,0.0891,0,0.0891,0,0.0891,0,0.0891,0,0.0891,0,0.01536207,0,0.01536207,0,0.0891,0,0.0891,0,0.0891,0,0.0891,0,0.0891,0,0.0891,0,0.01536207,0,0.01536207,0
0.0918,0,0.0918,0,0.0918,0,0.0918,0,0.0918,0,0.0918,0,0.01582759,0,0.01582759,0,0.0918,0,0.0918,0,0.0918,0,0.0918,0,0.0918,0,0.0918,0,0.01582759,0,0.01582759,0
0.09450001,-0.2304688,0.09450001,0.9384766,0.09450001,-0.2807617,0.09450001,-3.536585,0.09450001,5.731708,0.09450001,1.219512,0.0162931,0,0.0162931,0,0.09450001,0,0.09450001,0,0.09450001,0,0.09450001,0,0.09450001,0,0.09450001,0,0.0162931,0,0.0162931,0
0.0972,-0.2304688,0.0972,0.9399414,0.0972,-0.2802734,0.0972,-3.780488,0.0972,5.853659,0.0972,0.9756098,0.01675862,0,0.01675862,0,0.0972,0,0.0972,0,0.0972,0,0.0972,0,0.0972,0,0.0972,0,0.01675862,0,0.01675862,0
0.0999,-0.2294922,0.0999,0.9423828,0.0999,-0.2890625,0.0999,-3.536585,0.0999,6.036585,0.0999,0.9756098,0.01722414,0,0.01722414,0,0.0999,0,0.0999,0,0.0999,0,0.0999,0,0.0999,0,0.0999,0,0.01722414,0,0.01722414,0
0.1026,-0.2260742,0.1026,0.9360352,0.1026,-0.2836914,0.1026,-3.719512,0.1026,5.914634,0.1026,0.8536586,0.01768965,0,0.01768965,0,0.1026,0,0.1026,0,0.1026,0,0.1026,0,0.1026,0,0.1026,0,0.01768965,0,0.01768965,0
0.1053,-0.2226563,0.1053,0.9355469,0.1053,-0.28125,0.1053,-3.963415,0.1053,6.036585,0.1053,0.7926829,0.01815517,0,0.01815517,0,0.1053,0,0.1053,0,0.1053,0,0.1053,0,0.1053,0,0.1053,0,0.01815517,0,0.01815517,0
0.108,-0.2255859,0.108,0.9379883,0.108,-0.2827148,0.108,-3.963415,0.108,6.158537,0.108,1.158537,0.01862069,0,0.01862069,0,0.108,-0.1582031,0.108,-0.9716797,0.108,-0.3066406,0.108,-2.987805,0.108,0.2439024,0.108,0.1219512,0.01862069,0,0.01862069,0
0.1107,-0.2270508,0.1107,0.9355469,0.1107,-0.2832031,0.1107,-4.268293,0.1107,6.158537,0.1107,1.097561,0.01908621,0,0.01908621,0,0.1107,-0.1586914,0.1107,-0.9716797,0.1107,-0.3071289,0.1107,-2.865854,0.1107,0,0.1107,0.3048781,0.01908621,0,0.01908621,0
0.1134,-0.2226563,0.1134,0.9370117,0.1134,-0.2817383,0.1134,-4.085366,0.1134,6.219512,0.1134,1.158537,0.01955172,0,0.01955172,0,0.1134,-0.1567383,0.1134,-0.9716797,0.1134,-0.309082,0.1134,-2.804878,0.1134,-0.3048781,0.1134,0,0.01955172,0,0.01955172,0
0.1161,-0.2236328,0.1161,0.9345703,0.1161,-0.2836914,0.1161,-4.085366,0.1161,6.402439,0.1161,0.8536586,0.02001724,0,0.02001724,0,0.1161,-0.15625,0.1161,-0.9736328,0.1161,-0.3071289,0.1161,-2.926829,0.1161,-0.3658537,0.1161,0.1219512,0.02001724,0,0.02001724,0
0.1188,-0.2275391,0.1188,0.9350586,0.1188,-0.2875977,0.1188,-4.207317,0.1188,6.463415,0.1188,1.341463,0.02048276,0,0.02048276,0,0.1188,-0.1557617,0.1188,-0.9726563,0.1188,-0.3071289,0.1188,-2.743902,0.1188,-0.4878049,0.1188,0.3658537,0.02048276,0,0.02048276,0
0.1215,-0.2265625,0.1215,0.9384766,0.1215,-0.2895508,0.1215,-4.02439,0.1215,6.768293,0.1215,0.9146342,0.02094828,0,0.02094828,0,0.1215,-0.1523438,0.1215,-0.9755859,0.1215,-0.309082,0.1215,-2.5,0.1215,-0.6707317,0.1215,0.1829268,0.02094828,0,0.02094828,0
0.1242,-0.2255859,0.1242,0.9350586,0.1242,-0.2807617,0.1242,-4.085366,0.1242,6.95122,0.1242,1.036585,0.02141379,0,0.02141379,0,0.1242,-0.1533203,0.1242,-0.9760742,0.1242,-0.3071289,0.1242,-2.439024,0.1242,-0.4878049,0.1242,0,0.02141379,0,0.02141379,0
0.1269,-0.2255859,0.1269,0.9379883,0.1269,-0.28125,0.1269,-3.841464,0.1269,6.890244,0.1269,1.097561,0.02187931,0,0.02187931,0,0.1269,-0.1469727,0.1269,-0.9736328,0.1269,-0.3066406,0.1269,-2.134146,0.1269,-0.6707317,0.1269,0.06097561,0.02187931,0,0.02187931,0
0.1296,-0.2270508,0.1296,0.9370117,0.1296,-0.2822266,0.1296,-4.02439,0.1296,6.890244,0.1296,0.9756098,0.02234483,0,0.02234483,0,0.1296,-0.1469727,0.1296,-0.9741211,0.1296,-0.3071289,0.1296,-2.073171,0.1296,-0.6097561,0.1296,0.4268293,0.02234483,0,0.02234483,0
0.1323,-0.2333984,0.1323,0.9370117,0.1323,-0.2827148,0.1323,-3.963415,0.1323,7.195122,0.1323,0.8536586,0.02281034,0,0.02281034,0,0.1323,-0.1479492,0.1323,-0.9711914,0.1323,-0.3129883,0.1323,-1.829268,0.1323,-0.5487805,0.1323,0.2439024,0.02281034,0,0.02281034,0
0.135,-0.2275391,0.135,0.9365234,0.135,-0.2797852,0.135,-3.719512,0.135,7.378049,0.135,1.280488,0.02327586,0,0.02327586,0,0.135,-0.1445313,0.135,-0.9736328,0.135,-0.3085938,0.135,-1.95122,0.135,-0.6097561,0.135,0.3658537,0.02327586,0,0.02327586,0
0.1377,-0.230957,0.1377,0.940918,0.1377,-0.2822266,0.1377,-3.658537,0.1377,7.134147,0.1377,0.9756098,0.02374138,0,0.02374138,0,0.1377,-0.1445313,0.1377,-0.9760742,0.1377,-0.3110352,0.1377,-1.707317,0.1377,-0.4878049,0.1377,0.1219512,0.02374138,0,0.02374138,0
0.1404,-0.234375,0.1404,0.9389648,0.1404,-0.2773438,0.1404,-4.085366,0.1404,6.95122,0.1404,1.097561,0.0242069,0,0.0242069,0,0.1404,-0.1420898,0.1404,-0.9711914,0.1404,-0.3125,0.1404,-1.341463,0.1404,-0.6097561,0.1404,0.1829268,0.0242069,0,0.0242069,0
0.1431,-0.2329102,0.1431,0.9423828,0.1431,-0.2729492,0.1431,-3.963415,0.1431,6.768293,0.1431,1.036585,0.02467241,0,0.02467241,0,0.1431,-0.1430664,0.1431,-0.9711914,0.1431,-0.3076172,0.1431,-1.52439,0.1431,-0.3658537,0.1431,0.06097561,0.02467241,0,0.02467241,0
0.1458,-0.2338867,0.1458,0.9423828,0.1458,-0.2744141,0.1458,-3.658537,0.1458,6.890244,0.1458,1.219512,0.02513793,0,0.02513793,0,0.1458,-0.144043,0.1458,-0.9648438,0.1458,-0.3125,0.1458,-1.341463,0.1458,-0.4878049,0.1458,0.2439024,0.02513793,0,0.02513793,0
0.1485,-0.2368164,0.1485,0.940918,0.1485,-0.2705078,0.1485,-3.841464,0.1485,6.829268,0.1485,1.280488,0.02560345,0,0.02560345,0,0.1485,-0.1435547,0.1485,-0.9633789,0.1485,-0.3100586,0.1485,-1.280488,0.1485,-0.3658537,0.1485,0.4268293,0.02560345,0,0.02560345,0
0.1512,-0.2407227,0.1512,0.9448242,0.1512,-0.2661133,0.1512,-3.719512,0.1512,6.890244,0.1512,1.158537,0.02606896,0,0.02606896,0,0.1512,-0.1386719,0.1512,-0.9628906,0.1512,-0.3120117,0.1512,-1.341463,0.1512,-0.6097561,0.1512,0.3048781,0.02606896,0,0.02606896,0
0.1539,-0.2397461,0.1539,0.940918,0.1539,-0.2700195,0.1539,-3.170732,0.1539,6.707317,0.1539,1.219512,0.02653448,0,0.02653448,0,0.1539,-0.1435547,0.1539,-0.9648438,0.1539,-0.3144531,0.1539,-1.341463,0.1539,-0.06097561,0.1539,0.3048781,0.02653448,0,0.02653448,0
0.1566,-0.2397461,0.1566,0.9414063,0.1566,-0.2724609,0.1566,-3.47561,0.1566,6.585366,0.1566,1.219512,0.027,0,0.027,0,0.1566,-0.1411133,0.1566,-0.9619141,0.1566,-0.3134766,0.1566,-1.52439,0.1566,-0.2439024,0.1566,0.2439024,0.027,0,0.027,0
0.1593,-0.2446289,0.1593,0.9443359,0.1593,-0.2695313,0.1593,-3.719512,0.1593,6.280488,0.1593,1.097561,0.02746552,0,0.02746552,0,0.1593,-0.1401367,0.1593,-0.9619141,0.1593,-0.3134766,0.1593,-1.463415,0.1593,-0.4268293,0.1593,0.1829268,0.02746552,0,0.02746552,0
0.162,-0.2397461,0.162,0.9414063,0.162,-0.269043,0.162,-3.597561,0.162,6.219512,0.162,1.097561,0.02793103,0,0.02793103,0,0.162,-0.1401367,0.162,-0.9628906,0.162,-0.3149414,0.162,-1.646341,0.162,-0.1219512,0.162,0.3048781,0.02793103,0,0.02793103,0
0.1647,-0.2441406,0.1647,0.9399414,0.1647,-0.2646484,0.1647,-3.353659,0.1647,6.036585,0.1647,1.463415,0.02839655,0,0.02839655,0,0.1647,-0.1352539,0.1647,-0.9609375,0.1647,-0.3173828,0.1647,-1.219512,0.1647,-0.06097561,0.1647,0.06097561,0.02839655,0,0.02839655,0
0.1674,-0.2460938,0.1674,0.9389648,0.1674,-0.2666016,0.1674,-3.170732,0.1674,6.219512,0.1674,1.219512,0.02886207,0,0.02886207,0,0.1674,-0.1411133,0.1674,-0.9643555,0.1674,-0.3193359,0.1674,-1.585366,0.1674,0,0.1674,0.2439024,0.02886207,0,0.02886207,0
0.1701,-0.2456055,0.1701,0.9389648,0.1701,-0.2670898,0.1701,-3.658537,0.1701,6.158537,0.1701,1.097561,0.02932759,0,0.02932759,0,0.1701,-0.1391602,0.1701,-0.9628906,0.1701,-0.3183594,0.1701,-1.829268,0.1701,-0.1219512,0.1701,0.2439024,0.02932759,0,0.02932759,0
0.1728,-0.2480469,0.1728,0.9389648,0.1728,-0.2700195,0.1728,-3.414634,0.1728,6.219512,0.1728,1.219512,0.0297931,0,0.0297931,0,0.1728,-0.1420898,0.1728,-0.9604492,0.1728,-0.3203125,0.1728,-1.402439,0.1728,0.1219512,0.1728,0.2439024,0.0297931,0,0.0297931,0
0.1755,-0.2456055,0.1755,0.9399414,0.1755,-0.2695313,0.1755,-3.47561,0.1755,6.036585,0.1755,1.097561,0.03025862,0,0.03025862,0,0.1755,-0.140625,0.1755,-0.9594727,0.1755,-0.3203125,0.1755,-1.463415,0.1755,0,0.1755,0.5487805,0.03025862,0,0.03025862,0
0.1782,-0.2416992,0.1782,0.9360352,0.1782,-0.2719727,0.1782,-3.414634,0.1782,5.731708,0.1782,1.097561,0.03072414,0,0.03072414,0,0.1782,-0.1411133,0.1782,-0.9594727,0.1782,-0.3217773,0.1782,-1.646341,0.1782,-0.1829268,0.1782,0.3048781,0.03072414,0,0.03072414,0
0.1809,-0.2421875,0.1809,0.9345703,0.1809,-0.2709961,0.1809,-3.47561,0.1809,5.853659,0.1809,1.036585,0.03118965,0,0.03118965,0,0.1809,-0.1445313,0.1809,-0.9599609,0.1809,-0.3178711,0.1809,-1.707317,0.1809,0.06097561,0.1809,0.3048781,0.03118965,0,0.03118965,0
0.1836,-0.246582,0.1836,0.9414063,0.1836,-0.2700195,0.1836,-3.47561,0.1836,5.426829,0.1836,1.158537,0.03165517,0,0.03165517,0,0.1836,-0.1435547,0.1836,-0.9633789,0.1836,-0.3222656,0.1836,-1.585366,0.1836,-0.1219512,0.1836,0.4268293,0.03165517,0,0.03165517,0
0.1863,-0.2426758,0.1863,0.9379883,0.1863,-0.2695313,0.1863,-3.658537,0.1863,5.670732,0.1863,1.036585,0.03212069,0,0.03212069,0,0.1863,-0.1459961,0.1863,-0.9594727,0.1863,-0.3242188,0.1863,-1.646341,0.1863,0.06097561,0.1863,0.06097561,0.03212069,0,0.03212069,0
0.189,-0.2490234,0.189,0.9370117,0.189,-0.2695313,0.189,-3.597561,0.189,5.365854,0.189,1.158537,0.03258621,0,0.03258621,0,0.189,-0.1450195,0.189,-0.9599609,0.189,-0.328125,0.189,-1.585366,0.189,0.06097561,0.189,-0.06097561,0.03258621,0,0.03258621,0
0.1917,-0.2426758,0.1917,0.9379883,0.1917,-0.2729492,0.1917,-3.536585,0.1917,5.365854,0.1917,0.9756098,0.03305172,0,0.03305172,0,0.1917,-0.1450195,0.1917,-0.9584961,0.1917,-0.3310547,0.1917,-1.463415,0.1917,-0.1219512,0.1917,0.2439024,0.03305172,0,0.03305172,0
0.1944,-0.246582,0.1944,0.9365234,0.1944,-0.2744141,0.1944,-3.597561,0.1944,5.670732,0.1944,0.9756098,0.03351724,0,0.03351724,0,0.1944,-0.1459961,0.1944,-0.9570313,0.1944,-0.3305664,0.1944,-1.585366,0.1944,0.2439024,0.1944,0.2439024,0.03351724,0,0.03351724,0
0.1971,-0.2412109,0.1971,0.9418945,0.1971,-0.2729492,0.1971,-3.597561,0.1971,5.609756,0.1971,0.8536586,0.03398276,0,0.03398276,0,0.1971,-0.1469727,0.1971,-0.9614258,0.1971,-0.3266602,0.1971,-1.95122,0.1971,0.1829268,0.1971,0.2439024,0.03398276,0,0.03398276,0
0.1998,-0.2402344,0.1998,0.9399414,0.1998,-0.2739258,0.1998,-3.780488,0.1998,5.609756,0.1998,1.280488,0.03444827,0,0.03444827,0,0.1998,-0.1455078,0.1998,-0.9604492,0.1998,-0.3291016,0.1998,-1.890244,0.1998,0.1829268,0.1998,0.2439024,0.03444827,0,0.03444827,0
0.2025,-0.237793,0.2025,0.940918,0.2025,-0.2763672,0.2025,-3.719512,0.2025,5.304878,0.2025,1.036585,0.03491379,0,0.03491379,0,0.2025,-0.1455078,0.2025,-0.9614258,0.2025,-0.3256836,0.2025,-1.95122,0.2025,0.3658537,0.2025,0.1829268,0.03491379,0,0.03491379,0
0.2052,-0.237793,0.2052,0.9438477,0.2052,-0.2788086,0.2052,-3.780488,0.2052,5.182927,0.2052,1.036585,0.03537931,0,0.03537931,0,0.2052,-0.1464844,0.2052,-0.9580078,0.2052,-0.3276367,0.2052,-2.012195,0.2052,0.2439024,0.2052,0.1219512,0.03537931,0,0.03537931,0
0.2079,-0.2338867,0.2079,0.9433594,0.2079,-0.2773438,0.2079,-3.841464,0.2079,5.670732,0.2079,1.097561,0.03584483,0,0.03584483,0,0.2079,-0.1450195,0.2079,-0.9609375,0.2079,-0.3295898,0.2079,-1.95122,0.2079,0.2439024,0.2079,0.2439024,0.03584483,0,0.03584483,0
0.2106,-0.2333984,0.2106,0.9472656,0.2106,-0.2753906,0.2106,-3.658537,0.2106,5.853659,0.2106,0.9756098,0.03631034,0,0.03631034,0,0.2106,-0.1469727,0.2106,-0.9589844,0.2106,-0.3305664,0.2106,-2.012195,0.2106,0.3658537,0.2106,0.3048781,0.03631034,0,0.03631034,0
0.2133,-0.2280273,0.2133,0.9511719,0.2133,-0.2758789,0.2133,-3.597561,0.2133,6.036585,0.2133,0.9756098,0.03677586,0,0.03677586,0,0.2133,-0.1459961,0.2133,-0.9624023,0.2133,-0.3349609,0.2133,-1.707317,0.2133,0.1219512,0.2133,0.3048781,0.03677586,0,0.03677586,0
0.216,-0.2260742,0.216,0.9511719,0.216,-0.2792969,0.216,-3.780488,0.216,6.463415,0.216,1.097561,0.03724138,0,0.03724138,0,0.216,-0.1445313,0.216,-0.9633789,0.216,-0.3334961,0.216,-2.073171,0.216,-0.1219512,0.216,0.2439024,0.03724138,0,0.03724138,0
0.2187,-0.2265625,0.2187,0.9448242,0.2187,-0.2836914,0.2187,-3.841464,0.2187,6.890244,0.2187,0.9146342,0.0377069,0,0.0377069,0,0.2187,-0.1425781,0.2187,-0.9643555,0.2187,-0.3354492,0.2187,-1.646341,0.2187,0.4878049,0.2187,0.2439024,0.0377069,0,0.0377069,0
0.2214,-0.2270508,0.2214,0.9477539,0.2214,-0.2792969,0.2214,-3.658537,0.2214,6.95122,0.2214,0.9146342,0.03817241,0,0.03817241,0,0.2214,-0.1396484,0.2214,-0.9619141,0.2214,-0.3344727,0.2214,-1.463415,0.2214,0.6097561,0.2214,0.3658537,0.03817241,0,0.03817241,0
0.2241,-0.2290039,0.2241,0.9487305,0.2241,-0.277832,0.2241,-3.841464,0.2241,6.95122,0.2241,0.9146342,0.03863793,0,0.03863793,0,0.2241,-0.1416016,0.2241,-0.9677734,0.2241,-0.3359375,0.2241,-1.402439,0.2241,0.6097561,0.2241,0.06097561,0.03863793,0,0.03863793,0
0.2268,-0.2265625,0.2268,0.9501953,0.2268,-0.2758789,0.2268,-3.780488,0.2268,7.073171,0.2268,1.036585,0.03910345,0,0.03910345,0,0.2268,-0.1416016,0.2268,-0.9692383,0.2268,-0.3344727,0.2268,-1.585366,0.2268,0.7926829,0.2268,0,0.03910345,0,0.03910345,0
0.2295,-0.2280273,0.2295,0.9487305,0.2295,-0.2749023,0.2295,-4.02439,0.2295,6.646342,0.2295,1.219512,0.03956896,0,0.03956896,0,0.2295,-0.1401367,0.2295,-0.9599609,0.2295,-0.3330078,0.2295,-1.463415,0.2295,0.8536586,0.2295,0.3048781,0.03956896,0,0.03956896,0
0.2322,-0.2290039,0.2322,0.9506836,0.2322,-0.269043,0.2322,-4.02439,0.2322,6.463415,0.2322,0.9756098,0.04003448,0,0.04003448,0,0.2322,-0.1401367,0.2322,-0.9633789,0.2322,-0.3334961,0.2322,-1.585366,0.2322,1.158537,0.2322,0.2439024,0.04003448,0,0.04003448,0
0.2349,-0.2280273,0.2349,0.9482422,0.2349,-0.2641602,0.2349,-4.329268,0.2349,5.54878,0.2349,1.158537,0.0405,0,0.0405,0,0.2349,-0.1337891,0.2349,-0.9609375,0.2349,-0.3291016,0.2349,-1.707317,0.2349,1.402439,0.2349,0.4268293,0.0405,0,0.0405,0
0.2376,-0.237793,0.2376,0.9438477,0.2376,-0.2587891,0.2376,-4.45122,0.2376,4.756098,0.2376,1.52439,0.04096552,0,0.04096552,0,0.2376,-0.1347656,0.2376,-0.9599609,0.2376,-0.3266602,0.2376,-1.890244,0.2376,1.463415,0.2376,0.3658537,0.04096552,0,0.04096552,0
0.2403,-0.2407227,0.2403,0.9472656,0.2403,-0.2558594,0.2403,-4.512195,0.2403,4.329268,0.2403,1.463415,0.04143103,0,0.04143103,0,0.2403,-0.1396484,0.2403,-0.9541016,0.2403,-0.3266602,0.2403,-1.95122,0.2403,1.768293,0.2403,0.4268293,0.04143103,0,0.04143103,0
0.243,-0.2421875,0.243,0.940918,0.243,-0.2539063,0.243,-4.695122,0.243,3.780488,0.243,1.890244,0.04189655,0,0.04189655,0,0.243,-0.1445313,0.243,-0.9536133,0.243,-0.3251953,0.243,-2.012195,0.243,1.768293,0.243,0.4268293,0.04189655,0,0.04189655,0
0.2457,-0.2441406,0.2457,0.940918,0.2457,-0.2573242,0.2457,-4.573171,0.2457,3.597561,0.2457,1.890244,0.04236207,0,0.04236207,0,0.2457,-0.1450195,0.2457,-0.9521484,0.2457,-0.3256836,0.2457,-1.95122,0.2457,1.585366,0.2457,0.3048781,0.04236207,0,0.04236207,0
0.2484,-0.2470703,0.2484,0.940918,0.2484,-0.2617188,0.2484,-4.45122,0.2484,3.47561,0.2484,1.585366,0.04282758,0,0.04282758,0,0.2484,-0.1435547,0.2484,-0.9492188,0.2484,-0.3203125,0.2484,-2.195122,0.2484,1.707317,0.2484,0.9146342,0.04282758,0,0.04282758,0
0.2511,-0.2490234,0.2511,0.9404297,0.2511,-0.2675781,0.2511,-4.390244,0.2511,3.47561,0.2511,1.52439,0.0432931,0,0.0432931,0,0.2511,-0.1503906,0.2511,-0.9477539,0.2511,-0.3251953,0.2511,-2.073171,0.2511,1.52439,0.2511,0.5487805,0.0432931,0,0.0432931,0
0.2538,-0.2451172,0.2538,0.9423828,0.2538,-0.2700195,0.2538,-4.390244,0.2538,3.841464,0.2538,1.52439,0.04375862,0,0.04375862,0,0.2538,-0.1494141,0.2538,-0.9545898,0.2538,-0.3227539,0.2538,-2.378049,0.2538,1.52439,0.2538,0.6097561,0.04375862,0,0.04375862,0
0.2565,-0.2412109,0.2565,0.9443359,0.2565,-0.2749023,0.2565,-4.390244,0.2565,4.02439,0.2565,1.097561,0.04422414,0,0.04422414,0,0.2565,-0.1484375,0.2565,-0.9506836,0.2565,-0.3222656,0.2565,-2.5,0.2565,1.646341,0.2565,0.5487805,0.04422414,0,0.04422414,0
0.2592,-0.2412109,0.2592,0.9477539,0.2592,-0.277832,0.2592,-4.085366,0.2592,4.207317,0.2592,0.9146342,0.04468966,0,0.04468966,0,0.2592,-0.1435547,0.2592,-0.9536133,0.2592,-0.3203125,0.2592,-2.439024,0.2592,1.402439,0.2592,0.6707317,0.04468966,0,0.04468966,0
0.2619,-0.230957,0.2619,0.9414063,0.2619,-0.2802734,0.2619,-4.268293,0.2619,4.390244,0.2619,0.7317073,0.04515517,0,0.04515517,0,0.2619,-0.1469727,0.2619,-0.9541016,0.2619,-0.3217773,0.2619,-2.5,0.2619,1.707317,0.2619,0.6707317,0.04515517,0,0.04515517,0
0.2646,-0.2329102,0.2646,0.9418945,0.2646,-0.2797852,0.2646,-4.146341,0.2646,4.634146,0.2646,0.6707317,0.04562069,0,0.04562069,0,0.2646,-0.1435547,0.2646,-0.9584961,0.2646,-0.3232422,0.2646,-2.560976,0.2646,1.768293,0.2646,0.7926829,0.04562069,0,0.04562069,0
0.2673,-0.234375,0.2673,0.9365234,0.2673,-0.2822266,0.2673,-4.02439,0.2673,5,0.2673,0.7317073,0.04608621,0,0.04608621,0,0.2673,-0.1416016,0.2673,-0.9604492,0.2673,-0.3232422,0.2673,-2.560976,0.2673,1.890244,0.2673,0.7926829,0.04608621,0,0.04608621,0
0.27,-0.2304688,0.27,0.9379883,0.27,-0.2836914,0.27,-4.02439,0.27,5,0.27,0.7317073,0.04655172,0,0.04655172,0,0.27,-0.1455078,0.27,-0.965332,0.27,-0.3203125,0.27,-2.439024,0.27,1.707317,0.27,0.4268293,0.04655172,0,0.04655172,0
0.2727,-0.230957,0.2727,0.9370117,0.2727,-0.2763672,0.2727,-3.902439,0.2727,5.54878,0.2727,0.9756098,0.04701724,0,0.04701724,0,0.2727,-0.1469727,0.2727,-0.9614258,0.2727,-0.3227539,0.2727,-2.621951,0.2727,1.402439,0.2727,0.3658537,0.04701724,0,0.04701724,0
0.2754,-0.2294922,0.2754,0.9375,0.2754,-0.2783203,0.2754,-3.963415,0.2754,6.219512,0.2754,0.9146342,0.04748276,0,0.04748276,0,0.2754,-0.140625,0.2754,-0.9677734,0.2754,-0.3037109,0.2754,-2.743902,0.2754,0.9756098,0.2754,0.2439024,0.04748276,0,0.04748276,0
0.2781,-0.2241211,0.2781,0.9345703,0.2781,-0.2827148,0.2781,-3.963415,0.2781,6.585366,0.2781,0.6707317,0.04794827,0,0.04794827,0,0.2781,-0.1591797,0.2781,-0.9638672,0.2781,-0.3081055,0.2781,-2.317073,0.2781,-0.4268293,0.2781,-0.1219512,0.04794827,0,0.04794827,0
0.2808,-0.2241211,0.2808,0.9389648,0.2808,-0.2832031,0.2808,-3.902439,0.2808,6.646342,0.2808,0.7926829,0.04841379,0,0.04841379,0,0.2808,-0.1665039,0.2808,-0.9682617,0.2808,-0.3178711,0.2808,-2.5,0.2808,-0.6707317,0.2808,0,0.04841379,0,0.04841379,0
0.2835,-0.2207031,0.2835,0.9384766,0.2835,-0.2827148,0.2835,-4.329268,0.2835,7.073171,0.2835,0.7926829,0.04887931,0,0.04887931,0,0.2835,-0.1552734,0.2835,-0.9711914,0.2835,-0.3208008,0.2835,-2.682927,0.2835,-0.2439024,0.2835,-0.06097561,0.04887931,0,0.04887931,0
0.2862,-0.2197266,0.2862,0.9438477,0.2862,-0.2880859,0.2862,-4.268293,0.2862,7.5,0.2862,0.9146342,0.04934483,0,0.04934483,0,0.2862,-0.1523438,0.2862,-0.9716797,0.2862,-0.3129883,0.2862,-2.743902,0.2862,-0.06097561,0.2862,-0.2439024,0.04934483,0,0.04934483,0
0.2889,-0.2172852,0.2889,0.9428711,0.2889,-0.2807617,0.2889,-4.512195,0.2889,7.256098,0.2889,0.9146342,0.04981034,0,0.04981034,0,0.2889,-0.1533203,0.2889,-0.9726563,0.2889,-0.3149414,0.2889,-2.134146,0.2889,-0.5487805,0.2889,-0.1219512,0.04981034,0,0.04981034,0
0.2916,-0.2207031,0.2916,0.9350586,0.2916,-0.2705078,0.2916,-4.512195,0.2916,6.829268,0.2916,0.8536586,0.05027586,0,0.05027586,0,0.2916,-0.1503906,0.2916,-0.9692383,0.2916,-0.3144531,0.2916,-2.256098,0.2916,-0.6097561,0.2916,-0.06097561,0.05027586,0,0.05027586,0
0.2943,-0.2280273,0.2943,0.9331055,0.2943,-0.2680664,0.2943,-4.817073,0.2943,6.219512,0.2943,1.158537,0.05074138,0,0.05074138,0,0.2943,-0.1499023,0.2943,-0.9692383,0.2943,-0.3129883,0.2943,-2.012195,0.2943,-0.5487805,0.2943,0,0.05074138,0,0.05074138,0
0.297,-0.230957,0.297,0.925293,0.297,-0.2661133,0.297,-5.182927,0.297,6.158537,0.297,1.097561,0.05120689,0,0.05120689,0,0.297,-0.1513672,0.297,-0.9672852,0.297,-0.3120117,0.297,-2.195122,0.297,-0.7926829,0.297,0,0.05120689,0,0.05120689,0
0.2997,-0.2319336,0.2997,0.9311523,0.2997,-0.2675781,0.2997,-5.060976,0.2997,6.402439,0.2997,1.219512,0.05167241,0,0.05167241,0,0.2997,-0.1542969,0.2997,-0.9633789,0.2997,-0.3120117,0.2997,-2.195122,0.2997,-0.7317073,0.2997,0,0.05167241,0,0.05167241,0
0.3024,-0.2319336,0.3024,0.9389648,0.3024,-0.2666016,0.3024,-5.121951,0.3024,6.402439,0.3024,1.219512,0.05213793,0,0.05213793,0,0.3024,-0.1518555,0.3024,-0.9643555,0.3024,-0.315918,0.3024,-2.012195,0.3024,-0.2439024,0.3024,-0.06097561,0.05213793,0,0.05213793,0
0.3051,-0.2358398,0.3051,0.940918,0.3051,-0.2685547,0.3051,-4.939024,0.3051,6.219512,0.3051,1.097561,0.05260345,0,0.05260345,0,0.3051,-0.1474609,0.3051,-0.9658203,0.3051,-0.3120117,0.3051,-2.012195,0.3051,-0.3048781,0.3051,-0.2439024,0.05260345,0,0.05260345,0
0.3078,-0.2392578,0.3078,0.9399414,0.3078,-0.2749023,0.3078,-4.512195,0.3078,6.158537,0.3078,1.402439,0.05306897,0,0.05306897,0,0.3078,-0.1459961,0.3078,-0.9663086,0.3078,-0.3095703,0.3078,-2.073171,0.3078,-0.5487805,0.3078,0.2439024,0.05306897,0,0.05306897,0
0.3105,-0.2382813,0.3105,0.9443359,0.3105,-0.2768555,0.3105,-4.512195,0.3105,6.219512,0.3105,1.341463,0.05353448,0,0.05353448,0,0.3105,-0.1469727,0.3105,-0.9648438,0.3105,-0.3125,0.3105,-2.256098,0.3105,-0.06097561,0.3105,0,0.05353448,0,0.05353448,0
0.3132,-0.2387695,0.3132,0.9404297,0.3132,-0.2807617,0.3132,-4.939024,0.3132,6.280488,0.3132,1.402439,0.054,0,0.054,0,0.3132,-0.1479492,0.3132,-0.9663086,0.3132,-0.3110352,0.3132,-1.890244,0.3132,-0.1219512,0.3132,0.3048781,0.054,0,0.054,0
0.3159,-0.2392578,0.3159,0.9458008,0.3159,-0.2827148,0.3159,-5.243903,0.3159,6.402439,0.3159,1.341463,0.05446552,0,0.05446552,0,0.3159,-0.144043,0.3159,-0.9643555,0.3159,-0.3144531,0.3159,-1.768293,0.3159,-0.3658537,0.3159,0.1829268,0.05446552,0,0.05446552,0
0.3186,-0.2382813,0.3186,0.9443359,0.3186,-0.2827148,0.3186,-5.182927,0.3186,6.402439,0.3186,0.9756098,0.05493103,0,0.05493103,0,0.3186,-0.1474609,0.3186,-0.9638672,0.3186,-0.3193359,0.3186,-1.52439,0.3186,-0.1829268,0.3186,0.4268293,0.05493103,0,0.05493103,0
0.3213,-0.2416992,0.3213,0.9345703,0.3213,-0.2641602,0.3213,-5.182927,0.3213,5.853659,0.3213,0.9756098,0.05539655,0,0.05539655,0,0.3213,-0.1469727,0.3213,-0.9589844,0.3213,-0.3183594,0.3213,-1.646341,0.3213,-0.3048781,0.3213,0.3048781,0.05539655,0,0.05539655,0
0.324,-0.246582,0.324,0.9350586,0.324,-0.2758789,0.324,-4.756098,0.324,6.097561,0.324,0.7926829,0.05586207,0,0.05586207,0,0.324,-0.1479492,0.324,-0.9619141,0.324,-0.3164063,0.324,-1.707317,0.324,-0.3048781,0.324,0.3048781,0.05586207,0,0.05586207,0
0.3267,-0.2387695,0.3267,0.9443359,0.3267,-0.284668,0.3267,-4.512195,0.3267,6.890244,0.3267,0.4268293,0.05632759,0,0.05632759,0,0.3267,-0.1455078,0.3267,-0.9624023,0.3267,-0.3144531,0.3267,-1.829268,0.3267,-0.1829268,0.3267,0.4268293,0.05632759,0,0.05632759,0
0.3294,-0.2373047,0.3294,0.9458008,0.3294,-0.2797852,0.3294,-4.512195,0.3294,7.073171,0.3294,0.1829268,0.0567931,0,0.0567931,0,0.3294,-0.1464844,0.3294,-0.9643555,0.3294,-0.3164063,0.3294,-1.768293,0.3294,-0.6097561,0.3294,0.1219512,0.0567931,0,0.0567931,0
0.3321,-0.2392578,0.3321,0.9477539,0.3321,-0.2749023,0.3321,-4.817073,0.3321,6.890244,0.3321,0.5487805,0.05725862,0,0.05725862,0,0.3321,-0.1464844,0.3321,-0.9643555,0.3321,-0.3193359,0.3321,-1.646341,0.3321,-0.4878049,0.3321,0.1219512,0.05725862,0,0.05725862,0
0.3348,-0.2392578,0.3348,0.9458008,0.3348,-0.2729492,0.3348,-4.634146,0.3348,6.829268,0.3348,0.5487805,0.05772414,0,0.05772414,0,0.3348,-0.1464844,0.3348,-0.9648438,0.3348,-0.3168945,0.3348,-1.95122,0.3348,-0.4268293,0.3348,0.2439024,0.05772414,0,0.05772414,0
0.3375,-0.2451172,0.3375,0.9399414,0.3375,-0.2749023,0.3375,-4.756098,0.3375,5.914634,0.3375,0.7317073,0.05818965,0,0.05818965,0,0.3375,-0.1464844,0.3375,-0.9589844,0.3375,-0.3183594,0.3375,-2.073171,0.3375,-0.4268293,0.3375,0.06097561,0.05818965,0,0.05818965,0
0.3402,-0.25,0.3402,0.9384766,0.3402,-0.2670898,0.3402,-4.817073,0.3402,5.853659,0.3402,0.6707317,0.05865517,0,0.05865517,0,0.3402,-0.1435547,0.3402,-0.9609375,0.3402,-0.3183594,0.3402,-2.073171,0.3402,-0.7317073,0.3402,0.3048781,0.05865517,0,0.05865517,0
0.3429,-0.25,0.3429,0.9350586,0.3429,-0.2709961,0.3429,-4.817073,0.3429,5.609756,0.3429,0.6097561,0.05912069,0,0.05912069,0,0.3429,-0.1435547,0.3429,-0.9589844,0.3429,-0.3164063,0.3429,-2.256098,0.3429,-0.7317073,0.3429,0.2439024,0.05912069,0,0.05912069,0
0.3456,-0.2460938,0.3456,0.9379883,0.3456,-0.2788086,0.3456,-4.756098,0.3456,5.609756,0.3456,0.6097561,0.0595862,0,0.0595862,0,0.3456,-0.144043,0.3456,-0.9545898,0.3456,-0.3164063,0.3456,-2.378049,0.3456,-1.097561,0.3456,0.3048781,0.0595862,0,0.0595862,0
0.3483,-0.2436523,0.3483,0.940918,0.3483,-0.2797852,0.3483,-4.756098,0.3483,6.219512,0.3483,0.5487805,0.06005172,0,0.06005172,0,0.3483,-0.1450195,0.3483,-0.9594727,0.3483,-0.3173828,0.3483,-2.743902,0.3483,-1.219512,0.3483,0.4268293,0.06005172,0,0.06005172,0
0.351,-0.2421875,0.351,0.9428711,0.351,-0.2817383,0.351,-4.573171,0.351,6.341464,0.351,0.4268293,0.06051724,0,0.06051724,0,0.351,-0.1484375,0.351,-0.9633789,0.351,-0.3193359,0.351,-2.560976,0.351,-1.158537,0.351,-0.1219512,0.06051724,0,0.06051724,0
0.3537,-0.2421875,0.3537,0.9433594,0.3537,-0.2807617,0.3537,-4.634146,0.3537,6.463415,0.3537,0.1829268,0.06098276,0,0.06098276,0,0.3537,-0.1474609,0.3537,-0.9599609,0.3537,-0.3212891,0.3537,-2.865854,0.3537,-1.097561,0.3537,0.2439024,0.06098276,0,0.06098276,0
0.3564,-0.2368164,0.3564,0.9423828,0.3564,-0.269043,0.3564,-4.634146,0.3564,6.158537,0.3564,0.4268293,0.06144828,0,0.06144828,0,0.3564,-0.1445313,0.3564,-0.9624023,0.3564,-0.3212891,0.3564,-2.682927,0.3564,-1.768293,0.3564,0.1219512,0.06144828,0,0.06144828,0
0.3591,-0.2353516,0.3591,0.9399414,0.3591,-0.2695313,0.3591,-4.939024,0.3591,5.792683,0.3591,0.6707317,0.06191379,0,0.06191379,0,0.3591,-0.1484375,0.3591,-0.965332,0.3591,-0.3212891,0.3591,-2.621951,0.3591,-1.829268,0.3591,0.06097561,0.06191379,0,0.06191379,0
0.3618,-0.2338867,0.3618,0.9389648,0.3618,-0.2675781,0.3618,-5.121951,0.3618,6.036585,0.3618,0.6097561,0.06237931,0,0.06237931,0,0.3618,-0.1416016,0.3618,-0.9624023,0.3618,-0.3276367,0.3618,-2.439024,0.3618,-1.95122,0.3618,-0.1829268,0.06237931,0,0.06237931,0
0.3645,-0.2290039,0.3645,0.9375,0.3645,-0.2695313,0.3645,-5.060976,0.3645,6.219512,0.3645,0.5487805,0.06284483,0,0.06284483,0,0.3645,-0.1430664,0.3645,-0.9638672,0.3645,-0.324707,0.3645,-2.439024,0.3645,-2.012195,0.3645,-0.1219512,0.06284483,0,0.06284483,0
0.3672,-0.2290039,0.3672,0.9360352,0.3672,-0.2753906,0.3672,-4.939024,0.3672,6.280488,0.3672,0.5487805,0.06331034,0,0.06331034,0,0.3672,-0.1420898,0.3672,-0.9648438,0.3672,-0.3256836,0.3672,-2.621951,0.3672,-1.95122,0.3672,-0.1829268,0.06331034,0,0.06331034,0
0.3699,-0.2226563,0.3699,0.9379883,0.3699,-0.2724609,0.3699,-4.878049,0.3699,6.158537,0.3699,0.6097561,0.06377586,0,0.06377586,0,0.3699,-0.1425781,0.3699,-0.9667969,0.3699,-0.3305664,0.3699,-2.439024,0.3699,-2.134146,0.3699,0,0.06377586,0,0.06377586,0
0.3726,-0.2226563,0.3726,0.9394531,0.3726,-0.2744141,0.3726,-5,0.3726,6.341464,0.3726,0.7317073,0.06424138,0,0.06424138,0,0.3726,-0.1411133,0.3726,-0.9648438,0.3726,-0.3291016,0.3726,-2.439024,0.3726,-1.829268,0.3726,0.1219512,0.06424138,0,0.06424138,0
0.3753,-0.2216797,0.3753,0.9399414,0.3753,-0.2695313,0.3753,-4.939024,0.3753,6.341464,0.3753,0.7317073,0.06470689,0,0.06470689,0,0.3753,-0.1416016,0.3753,-0.9677734,0.3753,-0.3256836,0.3753,-2.256098,0.3753,-1.95122,0.3753,0.2439024,0.06470689,0,0.06470689,0
0.378,-0.2241211,0.378,0.9414063,0.378,-0.2700195,0.378,-5.426829,0.378,6.585366,0.378,0.5487805,0.06517241,0,0.06517241,0,0.378,-0.1411133,0.378,-0.9677734,0.378,-0.3251953,0.378,-2.317073,0.378,-1.890244,0.378,-0.06097561,0.06517241,0,0.06517241,0
0.3807,-0.2255859,0.3807,0.9423828,0.3807,-0.2670898,0.3807,-5.487805,0.3807,7.012195,0.3807,0.7317073,0.06563793,0,0.06563793,0,0.3807,-0.1401367,0.3807,-0.9667969,0.3807,-0.3227539,0.3807,-2.5,0.3807,-2.012195,0.3807,0.1829268,0.06563793,0,0.06563793,0
0.3834,-0.2236328,0.3834,0.9384766,0.3834,-0.2675781,0.3834,-5.365854,0.3834,7.195122,0.3834,0.5487805,0.06610344,0,0.06610344,0,0.3834,-0.140625,0.3834,-0.9677734,0.3834,-0.328125,0.3834,-2.317073,0.3834,-1.829268,0.3834,0.1219512,0.06610344,0,0.06610344,0
0.3861,-0.2304688,0.3861,0.9389648,0.3861,-0.2670898,0.3861,-5.121951,0.3861,7.439024,0.3861,0.7926829,0.06656896,0,0.06656896,0,0.3861,-0.1401367,0.3861,-0.965332,0.3861,-0.3286133,0.3861,-2.560976,0.3861,-1.890244,0.3861,-0.06097561,0.06656896,0,0.06656896,0
0.3888,-0.230957,0.3888,0.9370117,0.3888,-0.269043,0.3888,-5.243903,0.3888,7.621952,0.3888,0.8536586,0.06703448,0,0.06703448,0,0.3888,-0.1381836,0.3888,-0.9667969,0.3888,-0.328125,0.3888,-2.5,0.3888,-1.341463,0.3888,-0.06097561,0.06703448,0,0.06703448,0
0.3915,-0.2324219,0.3915,0.9399414,0.3915,-0.2695313,0.3915,-5.243903,0.3915,7.743903,0.3915,0.7317073,0.0675,0,0.0675,0,0.3915,-0.1347656,0.3915,-0.9658203,0.3915,-0.3251953,0.3915,-2.195122,0.3915,-1.280488,0.3915,-0.1219512,0.0675,0,0.0675,0
0.3942,-0.2368164,0.3942,0.9438477,0.3942,-0.2700195,0.3942,-5.243903,0.3942,7.926829,0.3942,0.6707317,0.06796551,0,0.06796551,0,0.3942,-0.1318359,0.3942,-0.9658203,0.3942,-0.3261719,0.3942,-2.256098,0.3942,-1.280488,0.3942,0.06097561,0.06796551,0,0.06796551,0
0.3969,-0.2363281,0.3969,0.9414063,0.3969,-0.2670898,0.3969,-5.304878,0.3969,7.987805,0.3969,0.9146342,0.06843103,0,0.06843103,0,0.3969,-0.140625,0.3969,-0.9663086,0.3969,-0.324707,0.3969,-2.5,0.3969,-1.219512,0.3969,0.1219512,0.06843103,0,0.06843103,0
0.3996,-0.2407227,0.3996,0.9443359,0.3996,-0.2695313,0.3996,-5.54878,0.3996,7.865854,0.3996,0.9146342,0.06889655,0,0.06889655,0,0.3996,-0.1376953,0.3996,-0.965332,0.3996,-0.3310547,0.3996,-2.439024,0.3996,-0.9756098,0.3996,0.2439024,0.06889655,0,0.06889655,0
0.4023,-0.2421875,0.4023,0.9448242,0.4023,-0.2729492,0.4023,-5.243903,0.4023,7.621952,0.4023,0.9756098,0.06936207,0,0.06936207,0,0.4023,-0.1342773,0.4023,-0.965332,0.4023,-0.3325195,0.4023,-2.317073,0.4023,-0.9146342,0.4023,0,0.06936207,0,0.06936207,0
0.405,-0.2412109,0.405,0.9438477,0.405,-0.2661133,0.405,-5.365854,0.405,7.682927,0.405,0.6097561,0.06982759,0,0.06982759,0,0.405,-0.1381836,0.405,-0.9633789,0.405,-0.331543,0.405,-2.134146,0.405,-1.036585,0.405,-0.06097561,0.06982759,0,0.06982759,0
0.4077,-0.2446289,0.4077,0.9433594,0.4077,-0.2685547,0.4077,-5.426829,0.4077,7.743903,0.4077,0.6707317,0.0702931,0,0.0702931,0,0.4077,-0.1396484,0.4077,-0.9624023,0.4077,-0.328125,0.4077,-2.439024,0.4077,-1.036585,0.4077,-0.06097561,0.0702931,0,0.0702931,0
0.4104,-0.2568359,0.4104,0.940918,0.4104,-0.2705078,0.4104,-5,0.4104,7.743903,0.4104,0.7317073,0.07075862,0,0.07075862,0,0.4104,-0.1367188,0.4104,-0.9624023,0.4104,-0.3276367,0.4104,-2.256098,0.4104,-1.219512,0.4104,0.1219512,0.07075862,0,0.07075862,0
0.4131,-0.2543945,0.4131,0.9379883,0.4131,-0.2675781,0.4131,-5.121951,0.4131,7.439024,0.4131,0.6097561,0.07122414,0,0.07122414,0,0.4131,-0.1342773,0.4131,-0.9624023,0.4131,-0.3286133,0.4131,-2.195122,0.4131,-0.9146342,0.4131,0.1219512,0.07122414,0,0.07122414,0
0.4158,-0.2543945,0.4158,0.9418945,0.4158,-0.2695313,0.4158,-4.939024,0.4158,7.317073,0.4158,0.6097561,0.07168965,0,0.07168965,0,0.4158,-0.1401367,0.4158,-0.9638672,0.4158,-0.3310547,0.4158,-2.195122,0.4158,-1.219512,0.4158,0.1219512,0.07168965,0,0.07168965,0
0.4185,-0.2548828,0.4185,0.940918,0.4185,-0.2695313,0.4185,-5.060976,0.4185,7.256098,0.4185,0.4878049,0.07215517,0,0.07215517,0,0.4185,-0.1391602,0.4185,-0.9628906,0.4185,-0.3320313,0.4185,-2.256098,0.4185,-0.9756098,0.4185,0,0.07215517,0,0.07215517,0
0.4212,-0.2519531,0.4212,0.9389648,0.4212,-0.2714844,0.4212,-5.060976,0.4212,7.317073,0.4212,0.6707317,0.07262069,0,0.07262069,0,0.4212,-0.137207,0.4212,-0.9624023,0.4212,-0.3320313,0.4212,-2.073171,0.4212,-1.097561,0.4212,-0.1219512,0.07262069,0,0.07262069,0
0.4239,-0.2504883,0.4239,0.9414063,0.4239,-0.2729492,0.4239,-4.817073,0.4239,7.378049,0.4239,0.5487805,0.0730862,0,0.0730862,0,0.4239,-0.1342773,0.4239,-0.9604492,0.4239,-0.3305664,0.4239,-2.256098,0.4239,-1.280488,0.4239,-0.1829268,0.0730862,0,0.0730862,0
0.4266,-0.25,0.4266,0.9404297,0.4266,-0.2714844,0.4266,-4.573171,0.4266,7.134147,0.4266,0.3658537,0.07355172,0,0.07355172,0,0.4266,-0.1352539,0.4266,-0.9614258,0.4266,-0.3310547,0.4266,-2.134146,0.4266,-0.9756098,0.4266,0.2439024,0.07355172,0,0.07355172,0
0.4293,-0.2485352,0.4293,0.9404297,0.4293,-0.2763672,0.4293,-4.512195,0.4293,7.134147,0.4293,0.6097561,0.07401724,0,0.07401724,0,0.4293,-0.1381836,0.4293,-0.9609375,0.4293,-0.3334961,0.4293,-2.134146,0.4293,-1.097561,0.4293,0.2439024,0.07401724,0,0.07401724,0
0.432,-0.2475586,0.432,0.9394531,0.432,-0.2700195,0.432,-4.512195,0.432,6.707317,0.432,0.6097561,0.07448275,0,0.07448275,0,0.432,-0.1357422,0.432,-0.9599609,0.432,-0.3325195,0.432,-2.317073,0.432,-1.341463,0.432,0.06097561,0.07448275,0,0.07448275,0
0.4347,-0.2504883,0.4347,0.9350586,0.4347,-0.2744141,0.4347,-4.146341,0.4347,6.463415,0.4347,0.3048781,0.07494827,0,0.07494827,0,0.4347,-0.1362305,0.4347,-0.9614258,0.4347,-0.3300781,0.4347,-2.439024,0.4347,-1.280488,0.4347,0,0.07494827,0,0.07494827,0
0.4374,-0.2456055,0.4374,0.9335938,0.4374,-0.2680664,0.4374,-4.268293,0.4374,6.463415,0.4374,0.4878049,0.07541379,0,0.07541379,0,0.4374,-0.1381836,0.4374,-0.9584961,0.4374,-0.3330078,0.4374,-2.378049,0.4374,-1.280488,0.4374,-0.06097561,0.07541379,0,0.07541379,0
0.4401,-0.2480469,0.4401,0.934082,0.4401,-0.269043,0.4401,-4.146341,0.4401,6.341464,0.4401,0.4878049,0.07587931,0,0.07587931,0,0.4401,-0.140625,0.4401,-0.9589844,0.4401,-0.3305664,0.4401,-2.439024,0.4401,-1.52439,0.4401,0,0.07587931,0,0.07587931,0
0.4428,-0.2451172,0.4428,0.9345703,0.4428,-0.2670898,0.4428,-4.207317,0.4428,6.036585,0.4428,0.6097561,0.07634483,0,0.07634483,0,0.4428,-0.1401367,0.4428,-0.9570313,0.4428,-0.3305664,0.4428,-2.439024,0.4428,-1.646341,0.4428,0.1219512,0.07634483,0,0.07634483,0
0.4455,-0.2412109,0.4455,0.9287109,0.4455,-0.2709961,0.4455,-4.207317,0.4455,6.036585,0.4455,0.5487805,0.07681035,0,0.07681035,0,0.4455,-0.1401367,0.4455,-0.9604492,0.4455,-0.3232422,0.4455,-2.5,0.4455,-2.012195,0.4455,0.1829268,0.07681035,0,0.07681035,0
0.4482,-0.2456055,0.4482,0.9277344,0.4482,-0.2744141,0.4482,-4.085366,0.4482,6.402439,0.4482,0.6097561,0.07727586,0,0.07727586,0,0.4482,-0.1455078,0.4482,-0.9599609,0.4482,-0.328125,0.4482,-2.256098,0.4482,-2.5,0.4482,0.1219512,0.07727586,0,0.07727586,0
0.4509,-0.2431641,0.4509,0.9238281,0.4509,-0.2724609,0.4509,-3.963415,0.4509,6.280488,0.4509,0.6707317,0.07774138,0,0.07774138,0,0.4509,-0.1489258,0.4509,-0.9619141,0.4509,-0.3383789,0.4509,-2.317073,0.4509,-1.463415,0.4509,0.3658537,0.07774138,0,0.07774138,0
0.4536,-0.2451172,0.4536,0.9267578,0.4536,-0.2797852,0.4536,-3.780488,0.4536,6.219512,0.4536,0.6707317,0.0782069,0,0.0782069,0,0.4536,-0.1347656,0.4536,-0.9638672,0.4536,-0.3271484,0.4536,-2.012195,0.4536,-1.341463,0.4536,0.3658537,0.0782069,0,0.0782069,0
0.4563,-0.246582,0.4563,0.9296875,0.4563,-0.2817383,0.4563,-3.780488,0.4563,6.768293,0.4563,0.8536586,0.07867241,0,0.07867241,0,0.4563,-0.1376953,0.4563,-0.9521484,0.4563,-0.3188477,0.4563,-2.621951,0.4563,-1.829268,0.4563,0.4268293,0.07867241,0,0.07867241,0
0.459,-0.2436523,0.459,0.9375,0.459,-0.2792969,0.459,-4.146341,0.459,6.707317,0.459,0.6097561,0.07913793,0,0.07913793,0,0.459,-0.1430664,0.459,-0.9506836,0.459,-0.3276367,0.459,-2.5,0.459,-2.012195,0.459,0.2439024,0.07913793,0,0.07913793,0
0.4617,-0.2460938,0.4617,0.9379883,0.4617,-0.2739258,0.4617,-4.085366,0.4617,6.646342,0.4617,0.6097561,0.07960345,0,0.07960345,0,0.4617,-0.137207,0.4617,-0.9541016,0.4617,-0.3266602,0.4617,-2.621951,0.4617,-1.463415,0.4617,0.4878049,0.07960345,0,0.07960345,0
0.4644,-0.2431641,0.4644,0.9375,0.4644,-0.2744141,0.4644,-4.02439,0.4644,6.52439,0.4644,0.9146342,0.08006896,0,0.08006896,0,0.4644,-0.1342773,0.4644,-0.9580078,0.4644,-0.3271484,0.4644,-2.560976,0.4644,-1.341463,0.4644,0.5487805,0.08006896,0,0.08006896,0
0.4671,-0.2441406,0.4671,0.9375,0.4671,-0.2807617,0.4671,-3.841464,0.4671,6.646342,0.4671,0.9146342,0.08053448,0,0.08053448,0,0.4671,-0.1357422,0.4671,-0.9584961,0.4671,-0.3291016,0.4671,-2.5,0.4671,-1.341463,0.4671,0.3048781,0.08053448,0,0.08053448,0
0.4698,-0.2441406,0.4698,0.9370117,0.4698,-0.2734375,0.4698,-3.780488,0.4698,6.646342,0.4698,0.6707317,0.081,0,0.081,0,0.4698,-0.1396484,0.4698,-0.9545898,0.4698,-0.3271484,0.4698,-2.865854,0.4698,-1.52439,0.4698,0.3658537,0.081,0,0.081,0
0.4725,-0.2441406,0.4725,0.9370117,0.4725,-0.2719727,0.4725,-3.841464,0.4725,6.585366,0.4725,0.7317073,0.08146551,0,0.08146551,0,0.4725,-0.1347656,0.4725,-0.9560547,0.4725,-0.3256836,0.4725,-2.682927,0.4725,-1.646341,0.4725,0.4878049,0.08146551,0,0.08146551,0
0.4752,-0.2451172,0.4752,0.9384766,0.4752,-0.2724609,0.4752,-4.02439,0.4752,6.280488,0.4752,0.9146342,0.08193103,0,0.08193103,0,0.4752,-0.1416016,0.4752,-0.956543,0.4752,-0.3286133,0.4752,-2.804878,0.4752,-1.280488,0.4752,0.6707317,0.08193103,0,0.08193103,0
0.4779,-0.2470703,0.4779,0.9399414,0.4779,-0.2661133,0.4779,-3.902439,0.4779,6.402439,0.4779,0.8536586,0.08239655,0,0.08239655,0,0.4779,-0.1352539,0.4779,-0.9594727,0.4779,-0.3291016,0.4779,-2.682927,0.4779,-1.219512,0.4779,0.4268293,0.08239655,0,0.08239655,0
0.4806,-0.2436523,0.4806,0.9414063,0.4806,-0.2626953,0.4806,-3.719512,0.4806,6.158537,0.4806,0.9146342,0.08286206,0,0.08286206,0,0.4806,-0.137207,0.4806,-0.9609375,0.4806,-0.3291016,0.4806,-2.804878,0.4806,-0.7317073,0.4806,0.4268293,0.08286206,0,0.08286206,0
0.4833,-0.2441406,0.4833,0.9389648,0.4833,-0.2666016,0.4833,-3.780488,0.4833,6.280488,0.4833,1.036585,0.08332758,0,0.08332758,0,0.4833,-0.137207,0.4833,-0.9672852,0.4833,-0.3310547,0.4833,-2.560976,0.4833,-0.7926829,0.4833,0.5487805,0.08332758,0,0.08332758,0
0.486,-0.2407227,0.486,0.9394531,0.486,-0.2685547,0.486,-3.841464,0.486,5.731708,0.486,0.9756098,0.0837931,0,0.0837931,0,0.486,-0.1362305,0.486,-0.9658203,0.486,-0.3300781,0.486,-2.682927,0.486,-1.036585,0.486,0.6097561,0.0837931,0,0.0837931,0
0.4887,-0.2475586,0.4887,0.9365234,0.4887,-0.2592773,0.4887,-3.780488,0.4887,5.487805,0.4887,1.097561,0.08425862,0,0.08425862,0,0.4887,-0.1362305,0.4887,-0.9643555,0.4887,-0.3266602,0.4887,-2.439024,0.4887,-0.8536586,0.4887,0.4878049,0.08425862,0,0.08425862,0
0.4914,-0.25,0.4914,0.9370117,0.4914,-0.2646484,0.4914,-3.780488,0.4914,5.54878,0.4914,1.158537,0.08472414,0,0.08472414,0,0.4914,-0.1362305,0.4914,-0.9658203,0.4914,-0.3276367,0.4914,-2.317073,0.4914,-1.036585,0.4914,0.5487805,0.08472414,0,0.08472414,0
0.4941,-0.2446289,0.4941,0.9384766,0.4941,-0.2666016,0.4941,-3.780488,0.4941,5.54878,0.4941,0.9146342,0.08518966,0,0.08518966,0,0.4941,-0.1352539,0.4941,-0.9628906,0.4941,-0.331543,0.4941,-2.256098,0.4941,-0.7317073,0.4941,0.5487805,0.08518966,0,0.08518966,0
0.4968,-0.2451172,0.4968,0.940918,0.4968,-0.2636719,0.4968,-3.414634,0.4968,5.609756,0.4968,0.9146342,0.08565517,0,0.08565517,0,0.4968,-0.1347656,0.4968,-0.9643555,0.4968,-0.3295898,0.4968,-1.768293,0.4968,-1.219512,0.4968,0.7317073,0.08565517,0,0.08565517,0
0.4995,-0.246582,0.4995,0.9360352,0.4995,-0.2685547,0.4995,-3.353659,0.4995,5.060976,0.4995,0.9146342,0.08612069,0,0.08612069,0,0.4995,-0.1333008,0.4995,-0.9663086,0.4995,-0.3276367,0.4995,-1.890244,0.4995,-0.9756098,0.4995,0.7317073,0.08612069,0,0.08612069,0
0.5022,-0.2446289,0.5022,0.9370117,0.5022,-0.269043,0.5022,-3.292683,0.5022,5.243903,0.5022,0.9146342,0.08658621,0,0.08658621,0,0.5022,-0.1342773,0.5022,-0.9614258,0.5022,-0.3320313,0.5022,-1.52439,0.5022,-0.7926829,0.5022,0.5487805,0.08658621,0,0.08658621,0
0.5049,-0.2441406,0.5049,0.9379883,0.5049,-0.2670898,0.5049,-3.47561,0.5049,5.060976,0.5049,1.036585,0.08705172,0,0.08705172,0,0.5049,-0.1298828,0.5049,-0.9677734,0.5049,-0.3330078,0.5049,-1.890244,0.5049,-0.3048781,0.5049,0.6707317,0.08705172,0,0.08705172,0
0.5076,-0.2475586,0.5076,0.9350586,0.5076,-0.2636719,0.5076,-3.414634,0.5076,4.878049,0.5076,1.036585,0.08751724,0,0.08751724,0,0.5076,-0.1318359,0.5076,-0.965332,0.5076,-0.3305664,0.5076,-1.585366,0.5076,-0.2439024,0.5076,0.6707317,0.08751724,0,0.08751724,0
0.5103,-0.2460938,0.5103,0.9350586,0.5103,-0.2666016,0.5103,-3.231707,0.5103,4.695122,0.5103,1.158537,0.08798276,0,0.08798276,0,0.5103,-0.1337891,0.5103,-0.9648438,0.5103,-0.3325195,0.5103,-1.585366,0.5103,-0.4268293,0.5103,0.6707317,0.08798276,0,0.08798276,0
0.513,-0.2470703,0.513,0.9350586,0.513,-0.2651367,0.513,-3.353659,0.513,4.390244,0.513,1.036585,0.08844827,0,0.08844827,0,0.513,-0.1357422,0.513,-0.9624023,0.513,-0.3339844,0.513,-1.585366,0.513,-0.5487805,0.513,0.6097561,0.08844827,0,0.08844827,0
0.5157,-0.2495117,0.5157,0.9394531,0.5157,-0.2636719,0.5157,-2.987805,0.5157,4.756098,0.5157,1.219512,0.08891379,0,0.08891379,0,0.5157,-0.1333008,0.5157,-0.9628906,0.5157,-0.3334961,0.5157,-1.52439,0.5157,-0.4268293,0.5157,0.6707317,0.08891379,0,0.08891379,0
0.5184,-0.2475586,0.5184,0.940918,0.5184,-0.2666016,0.5184,-2.682927,0.5184,4.878049,0.5184,1.036585,0.08937931,0,0.08937931,0,0.5184,-0.1333008,0.5184,-0.96875,0.5184,-0.3349609,0.5184,-1.463415,0.5184,-0.2439024,0.5184,0.7317073,0.08937931,0,0.08937931,0
0.5211,-0.2470703,0.5211,0.9418945,0.5211,-0.269043,0.5211,-2.682927,0.5211,4.695122,0.5211,1.158537,0.08984482,0,0.08984482,0,0.5211,-0.1308594,0.5211,-0.9702148,0.5211,-0.3354492,0.5211,-1.341463,0.5211,-0.06097561,0.5211,0.7317073,0.08984482,0,0.08984482,0
0.5238,-0.25,0.5238,0.9394531,0.5238,-0.269043,0.5238,-2.743902,0.5238,4.939024,0.5238,1.219512,0.09031034,0,0.09031034,0,0.5238,-0.1323242,0.5238,-0.9750977,0.5238,-0.3369141,0.5238,-1.463415,0.5238,-0.06097561,0.5238,0.6707317,0.09031034,0,0.09031034,0
0.5265,-0.2539063,0.5265,0.9399414,0.5265,-0.2680664,0.5265,-2.743902,0.5265,4.878049,0.5265,1.097561,0.09077586,0,0.09077586,0,0.5265,-0.1245117,0.5265,-0.9726563,0.5265,-0.3344727,0.5265,-0.7926829,0.5265,0,0.5265,0.6097561,0.09077586,0,0.09077586,0
0.5292,-0.2495117,0.5292,0.9438477,0.5292,-0.2695313,0.5292,-2.926829,0.5292,5.243903,0.5292,1.219512,0.09124137,0,0.09124137,0,0.5292,-0.1323242,0.5292,-0.9633789,0.5292,-0.3295898,0.5292,-0.8536586,0.5292,-0.1219512,0.5292,0.5487805,0.09124137,0,0.09124137,0
0.5319,-0.2504883,0.5319,0.9443359,0.5319,-0.2685547,0.5319,-2.865854,0.5319,5,0.5319,1.280488,0.09170689,0,0.09170689,0,0.5319,-0.1362305,0.5319,-0.9575195,0.5319,-0.3320313,0.5319,-1.036585,0.5319,0,0.5319,0.7926829,0.09170689,0,0.09170689,0
0.5346,-0.2436523,0.5346,0.9418945,0.5346,-0.2670898,0.5346,-2.743902,0.5346,5.060976,0.5346,1.341463,0.09217241,0,0.09217241,0,0.5346,-0.1386719,0.5346,-0.9643555,0.5346,-0.3364258,0.5346,-0.8536586,0.5346,0.1829268,0.5346,1.036585,0.09217241,0,0.09217241,0
0.5373,-0.2480469,0.5373,0.9370117,0.5373,-0.2695313,0.5373,-2.621951,0.5373,5,0.5373,0.9756098,0.09263793,0,0.09263793,0,0.5373,-0.1323242,0.5373,-0.9682617,0.5373,-0.3354492,0.5373,-0.8536586,0.5373,0.4268293,0.5373,0.7926829,0.09263793,0,0.09263793,0
0.54,-0.2470703,0.54,0.9370117,0.54,-0.2675781,0.54,-2.5,0.54,4.817073,0.54,1.158537,0.09310345,0,0.09310345,0,0.54,-0.1303711,0.54,-0.9692383,0.54,-0.3334961,0.54,-0.9756098,0.54,0.5487805,0.54,0.6707317,0.09310345,0,0.09310345,0
0.5427,-0.2470703,0.5427,0.9379883,0.5427,-0.2705078,0.5427,-2.439024,0.5427,4.939024,0.5427,1.280488,0.09356897,0,0.09356897,0,0.5427,-0.1357422,0.5427,-0.9648438,0.5427,-0.3344727,0.5427,-1.036585,0.5427,0.1829268,0.5427,0.9146342,0.09356897,0,0.09356897,0
0.5454,-0.2426758,0.5454,0.9360352,0.5454,-0.2695313,0.5454,-2.682927,0.5454,5.182927,0.5454,1.402439,0.09403448,0,0.09403448,0,0.5454,-0.1362305,0.5454,-0.9628906,0.5454,-0.3325195,0.5454,-1.097561,0.5454,0.06097561,0.5454,0.8536586,0.09403448,0,0.09403448,0
0.5481,-0.2446289,0.5481,0.9394531,0.5481,-0.2719727,0.5481,-2.5,0.5481,4.634146,0.5481,1.341463,0.0945,0,0.0945,0,0.5481,-0.1333008,0.5481,-0.9609375,0.5481,-0.3369141,0.5481,-1.036585,0.5481,0.6097561,0.5481,1.158537,0.0945,0,0.0945,0
0.5508,-0.2431641,0.5508,0.9418945,0.5508,-0.2695313,0.5508,-2.378049,0.5508,4.634146,0.5508,1.097561,0.09496552,0,0.09496552,0,0.5508,-0.1342773,0.5508,-0.9658203,0.5508,-0.3359375,0.5508,-1.036585,0.5508,0.7926829,0.5508,1.036585,0.09496552,0,0.09496552,0
0.5535,-0.2431641,0.5535,0.9438477,0.5535,-0.2695313,0.5535,-2.804878,0.5535,4.329268,0.5535,1.463415,0.09543103,0,0.09543103,0,0.5535,-0.1352539,0.5535,-0.9633789,0.5535,-0.3300781,0.5535,-1.158537,0.5535,1.097561,0.5535,1.341463,0.09543103,0,0.09543103,0
0.5562,-0.2451172,0.5562,0.9414063,0.5562,-0.2714844,0.5562,-2.865854,0.5562,4.695122,0.5562,1.585366,0.09589655,0,0.09589655,0,0.5562,-0.1352539,0.5562,-0.9648438,0.5562,-0.3364258,0.5562,-1.158537,0.5562,1.097561,0.5562,1.341463,0.09589655,0,0.09589655,0
0.5589,-0.2436523,0.5589,0.9404297,0.5589,-0.269043,0.5589,-2.5,0.5589,4.45122,0.5589,1.402439,0.09636207,0,0.09636207,0,0.5589,-0.1333008,0.5589,-0.9599609,0.5589,-0.3359375,0.5589,-0.9146342,0.5589,1.158537,0.5589,1.219512,0.09636207,0,0.09636207,0
0.5616,-0.2421875,0.5616,0.9404297,0.5616,-0.2729492,0.5616,-2.682927,0.5616,4.207317,0.5616,1.768293,0.09682758,0,0.09682758,0,0.5616,-0.1352539,0.5616,-0.9624023,0.5616,-0.3334961,0.5616,-1.036585,0.5616,1.52439,0.5616,1.219512,0.09682758,0,0.09682758,0
0.5643,-0.2431641,0.5643,0.9433594,0.5643,-0.2709961,0.5643,-2.378049,0.5643,4.45122,0.5643,1.707317,0.0972931,0,0.0972931,0,0.5643,-0.1381836,0.5643,-0.9570313,0.5643,-0.3325195,0.5643,-0.9756098,0.5643,1.463415,0.5643,1.341463,0.0972931,0,0.0972931,0
0.567,-0.2441406,0.567,0.9375,0.567,-0.2729492,0.567,-2.621951,0.567,4.573171,0.567,1.646341,0.09775862,0,0.09775862,0,0.567,-0.1337891,0.567,-0.9594727,0.567,-0.3330078,0.567,-1.158537,0.567,1.707317,0.567,1.707317,0.09775862,0,0.09775862,0
0.5697,-0.2426758,0.5697,0.940918,0.5697,-0.2714844,0.5697,-2.743902,0.5697,4.207317,0.5697,1.707317,0.09822413,0,0.09822413,0,0.5697,-0.1352539,0.5697,-0.9555664,0.5697,-0.3359375,0.5697,-0.8536586,0.5697,1.829268,0.5697,1.463415,0.09822413,0,0.09822413,0
0.5724,-0.2436523,0.5724,0.9370117,0.5724,-0.2675781,0.5724,-2.621951,0.5724,4.329268,0.5724,1.707317,0.09868965,0,0.09868965,0,0.5724,-0.1347656,0.5724,-0.9545898,0.5724,-0.3325195,0.5724,-0.8536586,0.5724,2.073171,0.5724,1.52439,0.09868965,0,0.09868965,0
0.5751,-0.2402344,0.5751,0.9414063,0.5751,-0.2646484,0.5751,-2.621951,0.5751,4.45122,0.5751,2.134146,0.09915517,0,0.09915517,0,0.5751,-0.1337891,0.5751,-0.9555664,0.5751,-0.3383789,0.5751,-0.7317073,0.5751,1.95122,0.5751,1.585366,0.09915517,0,0.09915517,0
0.5778,-0.2475586,0.5778,0.9394531,0.5778,-0.2661133,0.5778,-2.682927,0.5778,3.963415,0.5778,1.95122,0.09962068,0,0.09962068,0,0.5778,-0.1342773,0.5778,-0.9550781,0.5778,-0.3388672,0.5778,-0.9756098,0.5778,2.439024,0.5778,1.707317,0.09962068,0,0.09962068,0
0.5805,-0.2456055,0.5805,0.9404297,0.5805,-0.2636719,0.5805,-2.743902,0.5805,4.085366,0.5805,1.95122,0.1000862,0,0.1000862,0,0.5805,-0.1337891,0.5805,-0.9584961,0.5805,-0.3364258,0.5805,-0.7317073,0.5805,2.5,0.5805,1.768293,0.1000862,0,0.1000862,0
0.5832,-0.2495117,0.5832,0.9418945,0.5832,-0.269043,0.5832,-2.743902,0.5832,4.207317,0.5832,2.012195,0.1005517,0,0.1005517,0,0.5832,-0.1318359,0.5832,-0.956543,0.5832,-0.3378906,0.5832,-1.036585,0.5832,2.804878,0.5832,1.646341,0.1005517,0,0.1005517,0
0.5859,-0.2485352,0.5859,0.9428711,0.5859,-0.265625,0.5859,-2.439024,0.5859,3.963415,0.5859,2.012195,0.1010172,0,0.1010172,0,0.5859,-0.1323242,0.5859,-0.9575195,0.5859,-0.3378906,0.5859,-0.9146342,0.5859,2.743902,0.5859,1.890244,0.1010172,0,0.1010172,0
0.5886,-0.2504883,0.5886,0.9443359,0.5886,-0.262207,0.5886,-2.621951,0.5886,3.902439,0.5886,2.134146,0.1014828,0,0.1014828,0,0.5886,-0.1347656,0.5886,-0.9575195,0.5886,-0.3320313,0.5886,-0.7926829,0.5886,2.865854,0.5886,1.829268,0.1014828,0,0.1014828,0
0.5913,-0.2524414,0.5913,0.9365234,0.5913,-0.265625,0.5913,-2.5,0.5913,3.658537,0.5913,2.073171,0.1019483,0,0.1019483,0,0.5913,-0.1367188,0.5913,-0.9545898,0.5913,-0.3339844,0.5913,-0.9756098,0.5913,2.743902,0.5913,1.768293,0.1019483,0,0.1019483,0
0.594,-0.2451172,0.594,0.9404297,0.594,-0.2685547,0.594,-2.5,0.594,3.963415,0.594,1.890244,0.1024138,0,0.1024138,0,0.594,-0.1347656,0.594,-0.9614258,0.594,-0.3374023,0.594,-0.9146342,0.594,3.170732,0.594,1.95122,0.1024138,0,0.1024138,0
0.5967,-0.2456055,0.5967,0.9375,0.5967,-0.2680664,0.5967,-2.256098,0.5967,3.719512,0.5967,1.585366,0.1028793,0,0.1028793,0,0.5967,-0.1318359,0.5967,-0.9550781,0.5967,-0.3359375,0.5967,-0.7926829,0.5967,3.170732,0.5967,1.707317,0.1028793,0,0.1028793,0
0.5994,-0.2490234,0.5994,0.9360352,0.5994,-0.2675781,0.5994,-2.439024,0.5994,3.902439,0.5994,1.463415,0.1033448,0,0.1033448,0,0.5994,-0.1337891,0.5994,-0.9575195,0.5994,-0.3339844,0.5994,-0.6707317,0.5994,2.682927,0.5994,1.585366,0.1033448,0,0.1033448,0
0.6021,-0.2495117,0.6021,0.9370117,0.6021,-0.2641602,0.6021,-2.317073,0.6021,3.658537,0.6021,1.768293,0.1038103,0,0.1038103,0,0.6021,-0.1362305,0.6021,-0.9545898,0.6021,-0.3354492,0.6021,-0.7926829,0.6021,2.926829,0.6021,1.585366,0.1038103,0,0.1038103,0
0.6048,-0.2543945,0.6048,0.9370117,0.6048,-0.2646484,0.6048,-2.256098,0.6048,3.353659,0.6048,1.829268,0.1042759,0,0.1042759,0,0.6048,-0.137207,0.6048,-0.9619141,0.6048,-0.3320313,0.6048,-1.036585,0.6048,3.109756,0.6048,1.768293,0.1042759,0,0.1042759,0
0.6075,-0.2543945,0.6075,0.9316406,0.6075,-0.2631836,0.6075,-2.317073,0.6075,3.292683,0.6075,1.646341,0.1047414,0,0.1047414,0,0.6075,-0.1401367,0.6075,-0.9555664,0.6075,-0.328125,0.6075,-0.6097561,0.6075,2.987805,0.6075,2.073171,0.1047414,0,0.1047414,0
0.6102,-0.2543945,0.6102,0.9345703,0.6102,-0.2661133,0.6102,-2.195122,0.6102,3.231707,0.6102,1.890244,0.1052069,0,0.1052069,0,0.6102,-0.137207,0.6102,-0.9570313,0.6102,-0.3295898,0.6102,-0.7926829,0.6102,2.621951,0.6102,1.707317,0.1052069,0,0.1052069,0
0.6129,-0.2529297,0.6129,0.940918,0.6129,-0.2700195,0.6129,-2.195122,0.6129,3.47561,0.6129,1.829268,0.1056724,0,0.1056724,0,0.6129,-0.1401367,0.6129,-0.9570313,0.6129,-0.3359375,0.6129,-0.9146342,0.6129,2.926829,0.6129,1.585366,0.1056724,0,0.1056724,0
0.6156,-0.2524414,0.6156,0.9370117,0.6156,-0.2685547,0.6156,-1.768293,0.6156,3.109756,0.6156,1.585366,0.1061379,0,0.1061379,0,0.6156,-0.1425781,0.6156,-0.9604492,0.6156,-0.3349609,0.6156,-0.8536586,0.6156,2.926829,0.6156,1.95122,0.1061379,0,0.1061379,0
0.6183,-0.2539063,0.6183,0.9370117,0.6183,-0.2700195,0.6183,-2.012195,0.6183,2.804878,0.6183,1.829268,0.1066034,0,0.1066034,0,0.6183,-0.1352539,0.6183,-0.9609375,0.6183,-0.3334961,0.6183,-0.6097561,0.6183,2.804878,0.6183,1.646341,0.1066034,0,0.1066034,0
0.621,-0.2524414,0.621,0.9296875,0.621,-0.2709961,0.621,-1.95122,0.621,2.865854,0.621,1.585366,0.107069,0,0.107069,0,0.621,-0.1376953,0.621,-0.9609375,0.621,-0.3286133,0.621,-0.9146342,0.621,2.621951,0.621,1.768293,0.107069,0,0.107069,0
0.6237,-0.2514648,0.6237,0.9355469,0.6237,-0.2739258,0.6237,-2.012195,0.6237,2.804878,0.6237,1.768293,0.1075345,0,0.1075345,0,0.6237,-0.1450195,0.6237,-0.9604492,0.6237,-0.331543,0.6237,-1.097561,0.6237,2.560976,0.6237,1.768293,0.1075345,0,0.1075345,0
0.6264,-0.2514648,0.6264,0.9418945,0.6264,-0.2758789,0.6264,-2.195122,0.6264,2.804878,0.6264,1.707317,0.108,2.265965E-05,0.108,-1.19173E-05,0.6264,-0.1435547,0.6264,-0.9614258,0.6264,-0.3320313,0.6264,-1.219512,0.6264,2.560976,0.6264,1.95122,0.108,0,0.108,0
0.6291,-0.2490234,0.6291,0.9399414,0.6291,-0.2734375,0.6291,-2.256098,0.6291,2.865854,0.6291,1.707317,0.1084655,2.836652E-05,0.1084655,-8.224612E-06,0.6291,-0.1430664,0.6291,-0.9624023,0.6291,-0.3295898,0.6291,-0.9146342,0.6291,2.682927,0.6291,1.646341,0.1084655,0,0.1084655,0
0.6318,-0.2431641,0.6318,0.9360352,0.6318,-0.2788086,0.6318,-2.134146,0.6318,2.804878,0.6318,1.52439,0.108931,2.803082E-05,0.108931,-8.89601E-06,0.6318,-0.1401367,0.6318,-0.9628906,0.6318,-0.3286133,0.6318,-0.7317073,0.6318,2.560976,0.6318,1.890244,0.108931,0,0.108931,0
0.6345,-0.2470703,0.6345,0.9360352,0.6345,-0.2773438,0.6345,-2.134146,0.6345,2.560976,0.6345,1.52439,0.1093965,2.769513E-05,0.1093965,-8.560311E-06,0.6345,-0.1420898,0.6345,-0.9609375,0.6345,-0.3310547,0.6345,-0.9146342,0.6345,2.317073,0.6345,1.95122,0.1093965,0,0.1093965,0
0.6372,-0.2451172,0.6372,0.9345703,0.6372,-0.2744141,0.6372,-2.195122,0.6372,2.621951,0.6372,1.95122,0.1098621,2.752728E-05,0.1098621,-8.056763E-06,0.6372,-0.1445313,0.6372,-0.9570313,0.6372,-0.3300781,0.6372,-0.8536586,0.6372,2.5,0.6372,2.012195,0.1098621,0,0.1098621,0
0.6399,-0.2470703,0.6399,0.9365234,0.6399,-0.2714844,0.6399,-2.134146,0.6399,2.804878,0.6399,1.646341,0.1103276,2.668803E-05,0.1103276,-7.888914E-06,0.6399,-0.1430664,0.6399,-0.9624023,0.6399,-0.3300781,0.6399,-1.097561,0.6399,2.621951,0.6399,1.95122,0.1103276,0,0.1103276,0
0.6426,-0.2456055,0.6426,0.9379883,0.6426,-0.2734375,0.6426,-1.463415,0.6426,2.256098,0.6426,1.280488,0.1107931,2.601663E-05,0.1107931,-8.224612E-06,0.6426,-0.1430664,0.6426,-0.9628906,0.6426,-0.3295898,0.6426,-1.036585,0.6426,2.621951,0.6426,1.95122,0.1107931,0,0.1107931,0
0.6453,-0.2446289,0.6453,0.9335938,0.6453,-0.2719727,0.6453,-1.95122,0.6453,2.5,0.6453,1.585366,0.1112586,2.534523E-05,0.1112586,-9.567407E-06,0.6453,-0.140625,0.6453,-0.9614258,0.6453,-0.3276367,0.6453,-0.9756098,0.6453,2.682927,0.6453,2.134146,0.1112586,0,0.1112586,0
0.648,-0.2431641,0.648,0.9345703,0.648,-0.2739258,0.648,-1.707317,0.648,2.439024,0.648,1.52439,0.1117241,2.299535E-05,0.1117241,-8.728161E-06,0.648,-0.1435547,0.648,-0.9609375,0.648,-0.3271484,0.648,-0.9756098,0.648,2.743902,0.648,2.195122,0.1117241,0,0.1117241,0
0.6507,-0.2441406,0.6507,0.9375,0.6507,-0.2729492,0.6507,-1.707317,0.6507,2.439024,0.6507,1.402439,0.1121897,2.131685E-05,0.1121897,-5.874723E-06,0.6507,-0.1416016,0.6507,-0.9619141,0.6507,-0.3251953,0.6507,-0.9756098,0.6507,2.682927,0.6507,2.012195,0.1121897,0,0.1121897,0
0.6534,-0.2460938,0.6534,0.9370117,0.6534,-0.2724609,0.6534,-1.463415,0.6534,2.621951,0.6534,1.463415,0.1126552,2.198825E-05,0.1126552,-4.531929E-06,0.6534,-0.1391602,0.6534,-0.9633789,0.6534,-0.3232422,0.6534,-1.097561,0.6534,2.804878,0.6534,2.073171,0.1126552,0,0.1126552,0
0.6561,-0.2446289,0.6561,0.934082,0.6561,-0.2734375,0.6561,-1.707317,0.6561,2.5,0.6561,1.463415,0.1131207,2.24918E-05,0.1131207,-5.539025E-06,0.6561,-0.1430664,0.6561,-0.9584961,0.6561,-0.3291016,0.6561,-1.097561,0.6561,2.926829,0.6561,2.073171,0.1131207,0,0.1131207,0
0.6588,-0.2441406,0.6588,0.9370117,0.6588,-0.2670898,0.6588,-1.463415,0.6588,2.682927,0.6588,1.52439,0.1135862,2.165255E-05,0.1135862,-6.378271E-06,0.6588,-0.1411133,0.6588,-0.9614258,0.6588,-0.3276367,0.6588,-1.341463,0.6588,2.804878,0.6588,2.134146,0.1135862,0,0.1135862,0
0.6615,-0.2485352,0.6615,0.9379883,0.6615,-0.2709961,0.6615,-1.158537,0.6615,2.560976,0.6615,1.463415,0.1140517,2.1149E-05,0.1140517,-5.706874E-06,0.6615,-0.1435547,0.6615,-0.9599609,0.6615,-0.3261719,0.6615,-1.097561,0.6615,2.743902,0.6615,2.073171,0.1140517,0,0.1140517,0
0.6642,-0.2456055,0.6642,0.9394531,0.6642,-0.2744141,0.6642,-1.280488,0.6642,2.682927,0.6642,1.402439,0.1145172,2.18204E-05,0.1145172,-5.035477E-06,0.6642,-0.1411133,0.6642,-0.9584961,0.6642,-0.3266602,0.6642,-1.402439,0.6642,3.04878,0.6642,2.195122,0.1145172,0,0.1145172,0
0.6669,-0.2470703,0.6669,0.9399414,0.6669,-0.269043,0.6669,-1.280488,0.6669,3.170732,0.6669,1.463415,0.1149828,2.333104E-05,0.1149828,-5.874723E-06,0.6669,-0.1425781,0.6669,-0.956543,0.6669,-0.3295898,0.6669,-1.463415,0.6669,3.04878,0.6669,2.073171,0.1149828,0,0.1149828,0
0.6696,-0.2475586,0.6696,0.9438477,0.6696,-0.2700195,0.6696,-1.341463,0.6696,3.292683,0.6696,1.341463,0.1154483,2.333104E-05,0.1154483,-6.881819E-06,0.6696,-0.1411133,0.6696,-0.9575195,0.6696,-0.3266602,0.6696,-1.402439,0.6696,2.865854,0.6696,2.256098,0.1154483,0,0.1154483,0
0.6723,-0.2460938,0.6723,0.9472656,0.6723,-0.2675781,0.6723,-0.9756098,0.6723,3.597561,0.6723,1.402439,0.1159138,2.1149E-05,0.1159138,-8.560311E-06,0.6723,-0.1391602,0.6723,-0.9575195,0.6723,-0.328125,0.6723,-1.402439,0.6723,3.04878,0.6723,2.378049,0.1159138,0,0.1159138,0
0.675,-0.253418,0.675,0.949707,0.675,-0.2651367,0.675,-0.7926829,0.675,3.719512,0.675,1.402439,0.1163793,1.980621E-05,0.1163793,-9.567407E-06,0.675,-0.1425781,0.675,-0.9594727,0.675,-0.3305664,0.675,-1.585366,0.675,3.170732,0.675,2.195122,0.1163793,0,0.1163793,0
0.6777,-0.2529297,0.6777,0.9453125,0.6777,-0.2617188,0.6777,-0.7317073,0.6777,3.597561,0.6777,1.463415,0.1168448,1.930266E-05,0.1168448,-9.567407E-06,0.6777,-0.1381836,0.6777,-0.9584961,0.6777,-0.3300781,0.6777,-1.707317,0.6777,3.292683,0.6777,2.256098,0.1168448,0,0.1168448,0
0.6804,-0.2524414,0.6804,0.9467773,0.6804,-0.2670898,0.6804,-0.7926829,0.6804,3.841464,0.6804,1.158537,0.1173103,1.863127E-05,0.1173103,-9.231709E-06,0.6804,-0.1381836,0.6804,-0.9609375,0.6804,-0.3251953,0.6804,-1.829268,0.6804,3.292683,0.6804,2.073171,0.1173103,0,0.1173103,0
0.6831,-0.2490234,0.6831,0.9458008,0.6831,-0.2646484,0.6831,-0.6707317,0.6831,4.268293,0.6831,0.9146342,0.1177759,1.863127E-05,0.1177759,-8.89601E-06,0.6831,-0.1455078,0.6831,-0.9589844,0.6831,-0.324707,0.6831,-1.585366,0.6831,3.231707,0.6831,2.134146,0.1177759,0,0.1177759,0
0.6858,-0.2446289,0.6858,0.9453125,0.6858,-0.2700195,0.6858,-0.7317073,0.6858,4.085366,0.6858,0.9756098,0.1182414,1.997406E-05,0.1182414,-8.560311E-06,0.6858,-0.1459961,0.6858,-0.9575195,0.6858,-0.328125,0.6858,-1.585366,0.6858,3.47561,0.6858,2.195122,0.1182414,0,0.1182414,0
0.6885,-0.2407227,0.6885,0.9458008,0.6885,-0.2724609,0.6885,-0.8536586,0.6885,4.146341,0.6885,0.8536586,0.1187069,2.165255E-05,0.1187069,-7.888914E-06,0.6885,-0.1455078,0.6885,-0.9599609,0.6885,-0.3271484,0.6885,-1.219512,0.6885,3.414634,0.6885,2.073171,0.1187069,0,0.1187069,0
0.6912,-0.2412109,0.6912,0.9453125,0.6912,-0.2817383,0.6912,-1.097561,0.6912,4.02439,0.6912,0.8536586,0.1191724,2.232395E-05,0.1191724,-6.881819E-06,0.6912,-0.1445313,0.6912,-0.9580078,0.6912,-0.328125,0.6912,-1.341463,0.6912,3.353659,0.6912,2.134146,0.1191724,0,0.1191724,0
0.6939,-0.2412109,0.6939,0.9443359,0.6939,-0.2827148,0.6939,-0.9756098,0.6939,3.902439,0.6939,0.7926829,0.1196379,1.863127E-05,0.1196379,-6.881819E-06,0.6939,-0.1445313,0.6939,-0.9570313,0.6939,-0.3261719,0.6939,-1.097561,0.6939,3.414634,0.6939,2.134146,0.1196379,0,0.1196379,0
0.6966,-0.234375,0.6966,0.9379883,0.6966,-0.284668,0.6966,-0.9756098,0.6966,3.780488,0.6966,0.5487805,0.1201034,1.309224E-05,0.1201034,-8.89601E-06,0.6966,-0.1459961,0.6966,-0.9643555,0.6966,-0.3300781,0.6966,-1.219512,0.6966,3.231707,0.6966,2.134146,0.1201034,0,0.1201034,0
0.6993,-0.2363281,0.6993,0.9394531,0.6993,-0.2866211,0.6993,-1.097561,0.6993,3.597561,0.6993,0.4878049,0.120569,9.903105E-06,0.120569,-1.040665E-05,0.6993,-0.1474609,0.6993,-0.9638672,0.6993,-0.3266602,0.6993,-0.9756098,0.6993,3.231707,0.6993,2.073171,0.120569,0,0.120569,0
0.702,-0.2358398,0.702,0.9375,0.702,-0.2905273,0.702,-1.158537,0.702,3.04878,0.702,0.4268293,0.1210345,1.19173E-05,0.1210345,-1.040665E-05,0.702,-0.1533203,0.702,-0.9584961,0.702,-0.3310547,0.702,-1.158537,0.702,3.109756,0.702,2.134146,0.1210345,0,0.1210345,0
0.7047,-0.2348633,0.7047,0.934082,0.7047,-0.2905273,0.7047,-1.280488,0.7047,3.04878,0.7047,0.6097561,0.1215,1.728847E-05,0.1215,-9.735256E-06,0.7047,-0.1523438,0.7047,-0.9570313,0.7047,-0.331543,0.7047,-1.280488,0.7047,3.109756,0.7047,2.073171,0.1215,6.54612E-06,0.1215,0
0.7074,-0.2319336,0.7074,0.9311523,0.7074,-0.2929688,0.7074,-1.829268,0.7074,2.439024,0.7074,0.7317073,0.1219655,1.997406E-05,0.1219655,-8.728161E-06,0.7074,-0.1601563,0.7074,-0.9570313,0.7074,-0.3305664,0.7074,-1.158537,0.7074,3.04878,0.7074,1.829268,0.1219655,1.225299E-05,0.1219655,0
0.7101,-0.2294922,0.7101,0.9316406,0.7101,-0.2910156,0.7101,-1.585366,0.7101,2.195122,0.7101,0.7317073,0.122431,2.165255E-05,0.122431,-8.224612E-06,0.7101,-0.1572266,0.7101,-0.9560547,0.7101,-0.3354492,0.7101,-1.158537,0.7101,3.04878,0.7101,1.95122,0.122431,1.258869E-05,0.122431,0
0.7128,-0.2250977,0.7128,0.9335938,0.7128,-0.2910156,0.7128,-1.646341,0.7128,1.890244,0.7128,0.5487805,0.1228966,2.265965E-05,0.1228966,-8.056763E-06,0.7128,-0.1606445,0.7128,-0.953125,0.7128,-0.3325195,0.7128,-1.219512,0.7128,2.804878,0.7128,2.012195,0.1228966,1.19173E-05,0.1228966,0
0.7155,-0.2216797,0.7155,0.9321289,0.7155,-0.2924805,0.7155,-1.402439,0.7155,1.829268,0.7155,0.6707317,0.1233621,2.198825E-05,0.1233621,-8.224612E-06,0.7155,-0.1606445,0.7155,-0.9541016,0.7155,-0.331543,0.7155,-1.402439,0.7155,2.317073,0.7155,2.012195,0.1233621,1.09102E-05,0.1233621,0
0.7182,-0.2197266,0.7182,0.9296875,0.7182,-0.2915039,0.7182,-1.585366,0.7182,1.890244,0.7182,0.8536586,0.1238276,2.131685E-05,0.1238276,-8.89601E-06,0.7182,-0.1611328,0.7182,-0.9575195,0.7182,-0.3369141,0.7182,-1.219512,0.7182,2.621951,0.7182,1.95122,0.1238276,1.12459E-05,0.1238276,0
0.7209,-0.2167969,0.7209,0.9277344,0.7209,-0.2856445,0.7209,-1.280488,0.7209,2.134146,0.7209,0.9146342,0.1242931,2.030976E-05,0.1242931,-8.224612E-06,0.7209,-0.1645508,0.7209,-0.953125,0.7209,-0.3393555,0.7209,-1.341463,0.7209,2.439024,0.7209,2.012195,0.1242931,1.326009E-05,0.1242931,0
0.7236,-0.2167969,0.7236,0.9321289,0.7236,-0.2871094,0.7236,-1.707317,0.7236,2.073171,0.7236,1.402439,0.1247586,1.997406E-05,0.1247586,-7.217518E-06,0.7236,-0.1591797,0.7236,-0.9570313,0.7236,-0.3427734,0.7236,-1.52439,0.7236,2.5,0.7236,2.256098,0.1247586,1.443504E-05,0.1247586,0
0.7263,-0.2119141,0.7263,0.9379883,0.7263,-0.2871094,0.7263,-1.585366,0.7263,2.134146,0.7263,1.585366,0.1252241,2.064546E-05,0.1252241,-6.210422E-06,0.7263,-0.1586914,0.7263,-0.9550781,0.7263,-0.3310547,0.7263,-1.646341,0.7263,2.621951,0.7263,2.256098,0.1252241,1.359579E-05,0.1252241,0
0.729,-0.2143555,0.729,0.934082,0.729,-0.2871094,0.729,-1.52439,0.729,2.439024,0.729,1.463415,0.1256897,2.198825E-05,0.1256897,-6.210422E-06,0.729,-0.1601563,0.729,-0.953125,0.729,-0.3388672,0.729,-1.52439,0.729,2.682927,0.729,2.134146,0.1256897,1.258869E-05,0.1256897,0
0.7317,-0.2099609,0.7317,0.9375,0.7317,-0.2851563,0.7317,-1.341463,0.7317,2.743902,0.7317,1.646341,0.1261552,2.198825E-05,0.1261552,-7.217518E-06,0.7317,-0.159668,0.7317,-0.9604492,0.7317,-0.3442383,0.7317,-1.646341,0.7317,2.682927,0.7317,1.95122,0.1261552,1.326009E-05,0.1261552,0
0.7344,-0.2119141,0.7344,0.9389648,0.7344,-0.2885742,0.7344,-1.52439,0.7344,2.743902,0.7344,1.768293,0.1266207,2.131685E-05,0.1266207,-7.888914E-06,0.7344,-0.1567383,0.7344,-0.9599609,0.7344,-0.3432617,0.7344,-1.585366,0.7344,2.804878,0.7344,2.317073,0.1266207,1.258869E-05,0.1266207,0
0.7371,-0.2119141,0.7371,0.9418945,0.7371,-0.2890625,0.7371,-1.402439,0.7371,2.804878,0.7371,1.890244,0.1270862,2.064546E-05,0.1270862,-8.224612E-06,0.7371,-0.1503906,0.7371,-0.9555664,0.7371,-0.3417969,0.7371,-1.829268,0.7371,2.804878,0.7371,2.195122,0.1270862,1.12459E-05,0.1270862,0
0.7398,-0.2148438,0.7398,0.9438477,0.7398,-0.2890625,0.7398,-1.52439,0.7398,3.170732,0.7398,1.829268,0.1275517,2.098116E-05,0.1275517,-7.553216E-06,0.7398,-0.1464844,0.7398,-0.9580078,0.7398,-0.3427734,0.7398,-1.890244,0.7398,3.170732,0.7398,2.256098,0.1275517,1.19173E-05,0.1275517,0
0.7425,-0.2128906,0.7425,0.9462891,0.7425,-0.2895508,0.7425,-1.646341,0.7425,3.414634,0.7425,1.768293,0.1280172,2.131685E-05,0.1280172,-6.54612E-06,0.7425,-0.1425781,0.7425,-0.956543,0.7425,-0.3466797,0.7425,-2.256098,0.7425,3.04878,0.7425,2.439024,0.1280172,1.443504E-05,0.1280172,0
0.7452,-0.2158203,0.7452,0.9462891,0.7452,-0.2871094,0.7452,-1.768293,0.7452,3.658537,0.7452,1.829268,0.1284828,2.18204E-05,0.1284828,-6.210422E-06,0.7452,-0.1445313,0.7452,-0.9584961,0.7452,-0.3452148,0.7452,-2.195122,0.7452,3.658537,0.7452,2.378049,0.1284828,1.443504E-05,0.1284828,0
0.7479,-0.2133789,0.7479,0.9472656,0.7479,-0.2885742,0.7479,-1.707317,0.7479,3.719512,0.7479,1.890244,0.1289483,2.265965E-05,0.1289483,-6.881819E-06,0.7479,-0.1425781,0.7479,-0.9545898,0.7479,-0.3452148,0.7479,-2.317073,0.7479,3.719512,0.7479,2.073171,0.1289483,1.258869E-05,0.1289483,0
0.7506,-0.2177734,0.7506,0.9501953,0.7506,-0.293457,0.7506,-1.95122,0.7506,4.146341,0.7506,1.646341,0.1294138,2.265965E-05,0.1294138,-7.217518E-06,0.7506,-0.1416016,0.7506,-0.9560547,0.7506,-0.3466797,0.7506,-2.256098,0.7506,3.902439,0.7506,2.317073,0.1294138,1.19173E-05,0.1294138,0
0.7533,-0.21875,0.7533,0.9467773,0.7533,-0.2963867,0.7533,-1.646341,0.7533,4.390244,0.7533,1.707317,0.1298793,2.198825E-05,0.1298793,-7.553216E-06,0.7533,-0.1396484,0.7533,-0.9570313,0.7533,-0.3408203,0.7533,-2.195122,0.7533,3.719512,0.7533,2.012195,0.1298793,1.326009E-05,0.1298793,0
0.756,-0.2177734,0.756,0.9458008,0.756,-0.2866211,0.756,-1.890244,0.756,4.634146,0.756,2.134146,0.1303448,2.131685E-05,0.1303448,-7.217518E-06,0.756,-0.1381836,0.756,-0.9594727,0.756,-0.3359375,0.756,-2.317073,0.756,3.658537,0.756,1.768293,0.1303448,1.359579E-05,0.1303448,0
0.7587,-0.2226563,0.7587,0.940918,0.7587,-0.2861328,0.7587,-1.829268,0.7587,5,0.7587,1.95122,0.1308103,2.131685E-05,0.1308103,-6.881819E-06,0.7587,-0.1455078,0.7587,-0.9555664,0.7587,-0.3295898,0.7587,-2.317073,0.7587,3.231707,0.7587,1.829268,0.1308103,1.107805E-05,0.1308103,0
0.7614,-0.2275391,0.7614,0.9399414,0.7614,-0.2905273,0.7614,-2.012195,0.7614,5.243903,0.7614,2.134146,0.1312759,2.198825E-05,0.1312759,-4.867628E-06,0.7614,-0.1479492,0.7614,-0.9516602,0.7614,-0.3232422,0.7614,-2.317073,0.7614,2.560976,0.7614,1.646341,0.1312759,9.231709E-06,0.1312759,0
0.7641,-0.2255859,0.7641,0.9389648,0.7641,-0.2856445,0.7641,-2.256098,0.7641,5.304878,0.7641,1.95122,0.1317414,2.333104E-05,0.1317414,-3.021286E-06,0.7641,-0.1513672,0.7641,-0.9536133,0.7641,-0.3183594,0.7641,-2.134146,0.7641,2.134146,0.7641,1.585366,0.1317414,8.224612E-06,0.1317414,0
0.7668,-0.2304688,0.7668,0.9379883,0.7668,-0.2856445,0.7668,-1.95122,0.7668,5.853659,0.7668,1.463415,0.1322069,2.534523E-05,0.1322069,-3.021286E-06,0.7668,-0.1552734,0.7668,-0.9560547,0.7668,-0.3154297,0.7668,-2.134146,0.7668,1.280488,0.7668,1.158537,0.1322069,7.888914E-06,0.1322069,0
0.7695,-0.230957,0.7695,0.9399414,0.7695,-0.2856445,0.7695,-1.829268,0.7695,5.97561,0.7695,1.463415,0.1326724,2.601663E-05,0.1326724,-4.531929E-06,0.7695,-0.1645508,0.7695,-0.956543,0.7695,-0.3144531,0.7695,-2.256098,0.7695,0.9146342,0.7695,1.219512,0.1326724,7.217518E-06,0.1326724,0
0.7722,-0.2290039,0.7722,0.940918,0.7722,-0.2861328,0.7722,-1.768293,0.7722,6.097561,0.7722,1.585366,0.1331379,2.668803E-05,0.1331379,-6.210422E-06,0.7722,-0.168457,0.7722,-0.9560547,0.7722,-0.3164063,0.7722,-2.256098,0.7722,0.2439024,0.7722,1.158537,0.1331379,7.217518E-06,0.1331379,0
0.7749,-0.2358398,0.7749,0.9365234,0.7749,-0.2861328,0.7749,-2.195122,0.7749,6.219512,0.7749,1.707317,0.1336034,2.870222E-05,0.1336034,-7.553216E-06,0.7749,-0.1679688,0.7749,-0.9526367,0.7749,-0.3178711,0.7749,-2.073171,0.7749,0.1219512,0.7749,1.280488,0.1336034,9.567407E-06,0.1336034,0
0.7776,-0.2329102,0.7776,0.9384766,0.7776,-0.2836914,0.7776,-2.134146,0.7776,6.097561,0.7776,1.585366,0.134069,2.786297E-05,0.134069,-8.89601E-06,0.7776,-0.1694336,0.7776,-0.9536133,0.7776,-0.3261719,0.7776,-2.621951,0.7776,-0.06097561,0.7776,1.219512,0.134069,1.12459E-05,0.134069,0
0.7803,-0.2348633,0.7803,0.9370117,0.7803,-0.2924805,0.7803,-2.134146,0.7803,6.158537,0.7803,1.707317,0.1345345,2.400244E-05,0.1345345,-9.063859E-06,0.7803,-0.1674805,0.7803,-0.9570313,0.7803,-0.3256836,0.7803,-2.256098,0.7803,0.1219512,0.7803,1.036585,0.1345345,1.12459E-05,0.1345345,0
0.783,-0.2416992,0.783,0.9418945,0.783,-0.2871094,0.783,-2.256098,0.783,6.158537,0.783,1.52439,0.135,2.131685E-05,0.135,-9.063859E-06,0.783,-0.1572266,0.783,-0.956543,0.783,-0.3222656,0.783,-2.317073,0.783,0.3658537,0.783,1.036585,0.135,1.19173E-05,0.135,0
0.7857,-0.2416992,0.7857,0.9418945,0.7857,-0.2856445,0.7857,-2.378049,0.7857,6.219512,0.7857,1.585366,0.1354655,2.131685E-05,0.1354655,-9.567407E-06,0.7857,-0.1606445,0.7857,-0.9584961,0.7857,-0.324707,0.7857,-2.317073,0.7857,0.1829268,0.7857,1.280488,0.1354655,1.258869E-05,0.1354655,0
0.7884,-0.2373047,0.7884,0.9414063,0.7884,-0.2875977,0.7884,-2.195122,0.7884,6.097561,0.7884,1.463415,0.135931,2.131685E-05,0.135931,-9.903105E-06,0.7884,-0.1591797,0.7884,-0.9633789,0.7884,-0.3237305,0.7884,-2.317073,0.7884,-0.06097561,0.7884,1.341463,0.135931,1.19173E-05,0.135931,0
0.7911,-0.2387695,0.7911,0.9414063,0.7911,-0.2832031,0.7911,-2.256098,0.7911,6.219512,0.7911,1.52439,0.1363965,1.896696E-05,0.1363965,-1.040665E-05,0.7911,-0.1621094,0.7911,-0.9609375,0.7911,-0.3232422,0.7911,-2.256098,0.7911,0.06097561,0.7911,1.158537,0.1363965,1.15816E-05,0.1363965,0
0.7938,-0.2353516,0.7938,0.9433594,0.7938,-0.2890625,0.7938,-2.195122,0.7938,6.158537,0.7938,1.402439,0.1368621,1.644922E-05,0.1368621,-1.09102E-05,0.7938,-0.1621094,0.7938,-0.9604492,0.7938,-0.3173828,0.7938,-2.195122,0.7938,0.06097561,0.7938,1.158537,0.1368621,1.19173E-05,0.1368621,0
0.7965,-0.234375,0.7965,0.9448242,0.7965,-0.2885742,0.7965,-2.195122,0.7965,6.036585,0.7965,1.097561,0.1373276,1.795987E-05,0.1373276,-9.735256E-06,0.7965,-0.1591797,0.7965,-0.9614258,0.7965,-0.3232422,0.7965,-2.012195,0.7965,-0.2439024,0.7965,1.219512,0.1373276,1.393149E-05,0.1373276,0
0.7992,-0.2324219,0.7992,0.940918,0.7992,-0.2885742,0.7992,-2.317073,0.7992,6.097561,0.7992,1.219512,0.1377931,2.165255E-05,0.1377931,-7.217518E-06,0.7992,-0.1582031,0.7992,-0.9643555,0.7992,-0.3261719,0.7992,-2.195122,0.7992,-0.1219512,0.7992,1.036585,0.1377931,1.594568E-05,0.1377931,0
0.8019,-0.2314453,0.8019,0.9404297,0.8019,-0.2895508,0.8019,-2.134146,0.8019,6.463415,0.8019,1.036585,0.1382586,2.131685E-05,0.1382586,-3.860533E-06,0.8019,-0.1630859,0.8019,-0.9638672,0.8019,-0.3256836,0.8019,-1.829268,0.8019,-0.2439024,0.8019,0.9146342,0.1382586,1.728847E-05,0.1382586,0
0.8046,-0.2236328,0.8046,0.9404297,0.8046,-0.2866211,0.8046,-2.073171,0.8046,6.341464,0.8046,1.219512,0.1387241,1.963836E-05,0.1387241,-1.846342E-06,0.8046,-0.159668,0.8046,-0.9609375,0.8046,-0.3378906,0.8046,-2.134146,0.8046,0,0.8046,1.036585,0.1387241,1.728847E-05,0.1387241,0
0.8073,-0.2236328,0.8073,0.940918,0.8073,-0.2880859,0.8073,-2.195122,0.8073,6.52439,0.8073,1.280488,0.1391896,1.997406E-05,0.1391896,-2.853437E-06,0.8073,-0.1586914,0.8073,-0.9638672,0.8073,-0.3325195,0.8073,-2.073171,0.8073,0.2439024,0.8073,1.402439,0.1391896,1.695277E-05,0.1391896,0
0.81,-0.2255859,0.81,0.9389648,0.81,-0.2924805,0.81,-2.073171,0.81,6.646342,0.81,0.9146342,0.1396552,2.131685E-05,0.1396552,-4.867628E-06,0.81,-0.1601563,0.81,-0.96875,0.81,-0.3305664,0.81,-2.378049,0.81,0.1829268,0.81,1.402439,0.1396552,1.594568E-05,0.1396552,0
0.8127,-0.2216797,0.8127,0.9365234,0.8127,-0.2949219,0.8127,-1.890244,0.8127,6.707317,0.8127,1.158537,0.1401207,2.198825E-05,0.1401207,-6.54612E-06,0.8127,-0.1542969,0.8127,-0.9624023,0.8127,-0.3369141,0.8127,-2.012195,0.8127,0.6097561,0.8127,1.707317,0.1401207,1.460288E-05,0.1401207,0
0.8154,-0.2236328,0.8154,0.9389648,0.8154,-0.2915039,0.8154,-2.317073,0.8154,7.012195,0.8154,1.280488,0.1405862,2.366674E-05,0.1405862,-8.392462E-06,0.8154,-0.1533203,0.8154,-0.9663086,0.8154,-0.3349609,0.8154,-2.073171,0.8154,0.7926829,0.8154,1.585366,0.1405862,1.326009E-05,0.1405862,0
0.8181,-0.2172852,0.8181,0.9399414,0.8181,-0.2890625,0.8181,-2.317073,0.8181,7.073171,0.8181,1.463415,0.1410517,2.668803E-05,0.1410517,-1.007095E-05,0.8181,-0.1518555,0.8181,-0.9648438,0.8181,-0.3378906,0.8181,-2.012195,0.8181,1.097561,0.8181,1.463415,0.1410517,1.393149E-05,0.1410517,0
0.8208,-0.2148438,0.8208,0.9399414,0.8208,-0.2861328,0.8208,-2.439024,0.8208,6.890244,0.8208,1.402439,0.1415172,2.668803E-05,0.1415172,-1.040665E-05,0.8208,-0.1513672,0.8208,-0.9658203,0.8208,-0.3427734,0.8208,-2.439024,0.8208,1.768293,0.8208,1.768293,0.1415172,1.460288E-05,0.1415172,0
0.8235,-0.2158203,0.8235,0.9428711,0.8235,-0.2861328,0.8235,-2.560976,0.8235,6.890244,0.8235,1.646341,0.1419827,2.534523E-05,0.1419827,-9.735256E-06,0.8235,-0.1484375,0.8235,-0.9599609,0.8235,-0.3496094,0.8235,-2.317073,0.8235,2.378049,0.8235,2.073171,0.1419827,1.393149E-05,0.1419827,0
0.8262,-0.2158203,0.8262,0.9399414,0.8262,-0.2807617,0.8262,-2.987805,0.8262,6.341464,0.8262,1.768293,0.1424483,2.467384E-05,0.1424483,-7.888914E-06,0.8262,-0.1479492,0.8262,-0.9604492,0.8262,-0.3486328,0.8262,-2.134146,0.8262,3.109756,0.8262,1.890244,0.1424483,1.292439E-05,0.1424483,0
0.8289,-0.2172852,0.8289,0.9384766,0.8289,-0.2739258,0.8289,-3.353659,0.8289,5.54878,0.8289,2.012195,0.1429138,2.383459E-05,0.1429138,-5.874723E-06,0.8289,-0.1455078,0.8289,-0.9575195,0.8289,-0.3447266,0.8289,-2.5,0.8289,3.292683,0.8289,1.890244,0.1429138,1.107805E-05,0.1429138,0
0.8316,-0.21875,0.8316,0.9375,0.8316,-0.2661133,0.8316,-3.47561,0.8316,5.060976,0.8316,2.5,0.1433793,2.316319E-05,0.1433793,-4.867628E-06,0.8316,-0.1411133,0.8316,-0.9580078,0.8316,-0.34375,0.8316,-2.682927,0.8316,3.658537,0.8316,1.829268,0.1433793,1.05745E-05,0.1433793,0
0.8343,-0.2226563,0.8343,0.9399414,0.8343,-0.262207,0.8343,-3.414634,0.8343,4.512195,0.8343,2.439024,0.1438448,2.098116E-05,0.1438448,-6.881819E-06,0.8343,-0.1376953,0.8343,-0.9521484,0.8343,-0.3295898,0.8343,-2.682927,0.8343,3.292683,0.8343,1.585366,0.1438448,1.292439E-05,0.1438448,0
0.837,-0.2197266,0.837,0.9355469,0.837,-0.262207,0.837,-3.292683,0.837,4.573171,0.837,2.256098,0.1443103,1.930266E-05,0.1443103,-9.567407E-06,0.837,-0.1376953,0.837,-0.9545898,0.837,-0.3188477,0.837,-2.621951,0.837,1.829268,0.837,1.219512,0.1443103,1.426719E-05,0.1443103,0
0.8397,-0.2255859,0.8397,0.9335938,0.8397,-0.2617188,0.8397,-3.109756,0.8397,4.512195,0.8397,2.134146,0.1447759,1.863127E-05,0.1447759,-1.05745E-05,0.8397,-0.1479492,0.8397,-0.9516602,0.8397,-0.2978516,0.8397,-2.560976,0.8397,0.6707317,0.8397,1.097561,0.1447759,1.326009E-05,0.1447759,0
0.8424,-0.230957,0.8424,0.9306641,0.8424,-0.2695313,0.8424,-3.292683,0.8424,4.817073,0.8424,2.073171,0.1452414,1.997406E-05,0.1452414,-9.567407E-06,0.8424,-0.1518555,0.8424,-0.9492188,0.8424,-0.2944336,0.8424,-2.378049,0.8424,-1.52439,0.8424,0.6707317,0.1452414,1.258869E-05,0.1452414,0
0.8451,-0.2324219,0.8451,0.9287109,0.8451,-0.2783203,0.8451,-2.865854,0.8451,5.792683,0.8451,1.95122,0.1457069,1.913481E-05,0.1457069,-8.560311E-06,0.8451,-0.168457,0.8451,-0.9575195,0.8451,-0.2841797,0.8451,-2.134146,0.8451,-2.804878,0.8451,0.4878049,0.1457069,1.393149E-05,0.1457069,0
0.8478,-0.2368164,0.8478,0.9282227,0.8478,-0.2744141,0.8478,-2.865854,0.8478,6.036585,0.8478,1.829268,0.1461724,1.795987E-05,0.1461724,-8.89601E-06,0.8478,-0.1865234,0.8478,-0.9511719,0.8478,-0.3066406,0.8478,-1.768293,0.8478,-3.963415,0.8478,0.06097561,0.1461724,1.426719E-05,0.1461724,0
0.8505,-0.2387695,0.8505,0.9335938,0.8505,-0.2749023,0.8505,-2.804878,0.8505,6.52439,0.8505,1.585366,0.1466379,1.863127E-05,0.1466379,-9.735256E-06,0.8505,-0.1835938,0.8505,-0.9521484,0.8505,-0.3310547,0.8505,-1.829268,0.8505,-3.719512,0.8505,0.4268293,0.1466379,1.493858E-05,0.1466379,0
0.8532,-0.2382813,0.8532,0.9443359,0.8532,-0.2792969,0.8532,-2.743902,0.8532,6.646342,0.8532,1.52439,0.1471034,1.795987E-05,0.1471034,-9.567407E-06,0.8532,-0.1572266,0.8532,-0.9594727,0.8532,-0.3305664,0.8532,-1.341463,0.8532,-1.463415,0.8532,0.7926829,0.1471034,1.695277E-05,0.1471034,0
0.8559,-0.2382813,0.8559,0.9462891,0.8559,-0.2739258,0.8559,-2.743902,0.8559,6.585366,0.8559,1.585366,0.147569,1.762417E-05,0.147569,-9.231709E-06,0.8559,-0.144043,0.8559,-0.9633789,0.8559,-0.3237305,0.8559,-1.402439,0.8559,-1.219512,0.8559,0.8536586,0.147569,1.863127E-05,0.147569,0
0.8586,-0.2392578,0.8586,0.9511719,0.8586,-0.2739258,0.8586,-2.865854,0.8586,5.97561,0.8586,1.280488,0.1480345,1.728847E-05,0.1480345,-9.063859E-06,0.8586,-0.1396484,0.8586,-0.9677734,0.8586,-0.3251953,0.8586,-1.280488,0.8586,-1.768293,0.8586,0.8536586,0.1480345,1.863127E-05,0.1480345,0
0.8613,-0.2402344,0.8613,0.9501953,0.8613,-0.2719727,0.8613,-3.109756,0.8613,5.426829,0.8613,1.95122,0.1485,1.795987E-05,0.1485,-8.560311E-06,0.8613,-0.1357422,0.8613,-0.9614258,0.8613,-0.3212891,0.8613,-1.463415,0.8613,-1.402439,0.8613,0.7317073,0.1485,1.963836E-05,0.1485,0
0.864,-0.2460938,0.864,0.9482422,0.864,-0.2734375,0.864,-3.04878,0.864,5.487805,0.864,1.829268,0.1489655,1.863127E-05,0.1489655,-7.888914E-06,0.864,-0.1425781,0.864,-0.9589844,0.864,-0.3110352,0.864,-1.52439,0.864,-1.463415,0.864,0.7317073,0.1489655,1.997406E-05,0.1489655,0
0.8667,-0.2451172,0.8667,0.9453125,0.8667,-0.2739258,0.8667,-2.987805,0.8667,5,0.8667,1.95122,0.149431,1.930266E-05,0.149431,-8.728161E-06,0.8667,-0.1484375,0.8667,-0.9609375,0.8667,-0.3168945,0.8667,-1.158537,0.8667,-1.280488,0.8667,0.7926829,0.149431,1.779202E-05,0.149431,0
0.8694,-0.2431641,0.8694,0.9487305,0.8694,-0.2763672,0.8694,-3.109756,0.8694,5.365854,0.8694,1.890244,0.1498965,2.030976E-05,0.1498965,-1.02388E-05,0.8694,-0.1557617,0.8694,-0.9638672,0.8694,-0.3227539,0.8694,-1.097561,0.8694,-0.9756098,0.8694,0.6707317,0.1498965,1.527428E-05,0.1498965,0
0.8721,-0.2421875,0.8721,0.9482422,0.8721,-0.2773438,0.8721,-2.743902,0.8721,5.487805,0.8721,1.768293,0.1503621,2.1149E-05,0.1503621,-9.735256E-06,0.8721,-0.1523438,0.8721,-0.9643555,0.8721,-0.3222656,0.8721,-1.097561,0.8721,-0.5487805,0.8721,0.9756098,0.1503621,1.326009E-05,0.1503621,0
0.8748,-0.2407227,0.8748,0.9448242,0.8748,-0.2783203,0.8748,-2.926829,0.8748,6.036585,0.8748,1.646341,0.1508276,2.131685E-05,0.1508276,-8.89601E-06,0.8748,-0.1508789,0.8748,-0.9638672,0.8748,-0.3212891,0.8748,-0.9756098,0.8748,-0.9756098,0.8748,0.7317073,0.1508276,1.393149E-05,0.1508276,0
0.8775,-0.237793,0.8775,0.9414063,0.8775,-0.2739258,0.8775,-2.926829,0.8775,6.097561,0.8775,1.341463,0.1512931,2.064546E-05,0.1512931,-8.392462E-06,0.8775,-0.1542969,0.8775,-0.9619141,0.8775,-0.324707,0.8775,-0.6707317,0.8775,-0.5487805,0.8775,1.036585,0.1512931,1.577783E-05,0.1512931,0
0.8802,-0.2363281,0.8802,0.9428711,0.8802,-0.2709961,0.8802,-3.231707,0.8802,6.158537,0.8802,1.219512,0.1517586,2.064546E-05,0.1517586,-8.89601E-06,0.8802,-0.1479492,0.8802,-0.9628906,0.8802,-0.3242188,0.8802,-0.9146342,0.8802,-0.2439024,0.8802,1.219512,0.1517586,1.695277E-05,0.1517586,0
0.8829,-0.2416992,0.8829,0.9448242,0.8829,-0.2714844,0.8829,-3.109756,0.8829,6.097561,0.8829,1.585366,0.1522241,2.198825E-05,0.1522241,-1.02388E-05,0.8829,-0.1533203,0.8829,-0.9619141,0.8829,-0.3193359,0.8829,-1.158537,0.8829,-0.4268293,0.8829,0.9756098,0.1522241,1.695277E-05,0.1522241,0
0.8856,-0.2387695,0.8856,0.9433594,0.8856,-0.2739258,0.8856,-3.292683,0.8856,6.219512,0.8856,1.402439,0.1526897,2.265965E-05,0.1526897,-1.225299E-05,0.8856,-0.1606445,0.8856,-0.9643555,0.8856,-0.3271484,0.8856,-1.158537,0.8856,-0.2439024,0.8856,1.280488,0.1526897,1.628138E-05,0.1526897,0
0.8883,-0.2407227,0.8883,0.9394531,0.8883,-0.2714844,0.8883,-3.353659,0.8883,5.914634,0.8883,1.341463,0.1531552,2.131685E-05,0.1531552,-1.326009E-05,0.8883,-0.1606445,0.8883,-0.9624023,0.8883,-0.3291016,0.8883,-0.7926829,0.8883,0.1829268,0.8883,1.341463,0.1531552,1.594568E-05,0.1531552,0
0.891,-0.2392578,0.891,0.9423828,0.891,-0.2705078,0.891,-3.231707,0.891,6.036585,0.891,1.341463,0.1536207,1.980621E-05,0.1536207,-1.292439E-05,0.891,-0.1552734,0.891,-0.965332,0.891,-0.3271484,0.891,-0.8536586,0.891,0,0.891,1.280488,0.1536207,1.460288E-05,0.1536207,0
0.8937,-0.2416992,0.8937,0.9370117,0.8937,-0.2695313,0.8937,-3.231707,0.8937,5.609756,0.8937,1.402439,0.1540862,1.930266E-05,0.1540862,-1.15816E-05,0.8937,-0.1625977,0.8937,-0.9599609,0.8937,-0.3339844,0.8937,-1.036585,0.8937,-0.1219512,0.8937,1.280488,0.1540862,1.460288E-05,0.1540862,0
0.8964,-0.2392578,0.8964,0.9379883,0.8964,-0.2685547,0.8964,-3.109756,0.8964,5.792683,0.8964,1.280488,0.1545517,2.198825E-05,0.1545517,-1.007095E-05,0.8964,-0.1621094,0.8964,-0.9628906,0.8964,-0.3325195,0.8964,-0.8536586,0.8964,0.3048781,0.8964,1.52439,0.1545517,1.460288E-05,0.1545517,0
0.8991,-0.2368164,0.8991,0.9394531,0.8991,-0.2724609,0.8991,-2.926829,0.8991,5.426829,0.8991,1.768293,0.1550172,2.635233E-05,0.1550172,-9.231709E-06,0.8991,-0.1606445,0.8991,-0.9575195,0.8991,-0.3310547,0.8991,-1.158537,0.8991,0.06097561,0.8991,1.219512,0.1550172,1.527428E-05,0.1550172,0
0.9018,-0.237793,0.9018,0.9404297,0.9018,-0.277832,0.9018,-2.926829,0.9018,5.426829,0.9018,1.280488,0.1554828,2.970932E-05,0.1554828,-8.224612E-06,0.9018,-0.1635742,0.9018,-0.9599609,0.9018,-0.3310547,0.9018,-1.280488,0.9018,0,0.9018,1.219512,0.1554828,1.510643E-05,0.1554828,0
0.9045,-0.2338867,0.9045,0.9370117,0.9045,-0.2802734,0.9045,-3.170732,0.9045,5.426829,0.9045,1.463415,0.1559483,3.105211E-05,0.1559483,-7.553216E-06,0.9045,-0.1601563,0.9045,-0.9599609,0.9045,-0.3310547,0.9045,-1.158537,0.9045,0,0.9045,1.402439,0.1559483,1.460288E-05,0.1559483,0
0.9072,-0.2333984,0.9072,0.940918,0.9072,-0.2817383,0.9072,-2.926829,0.9072,5.54878,0.9072,1.341463,0.1564138,3.105211E-05,0.1564138,-8.392462E-06,0.9072,-0.1577148,0.9072,-0.9619141,0.9072,-0.3310547,0.9072,-1.219512,0.9072,0,0.9072,1.463415,0.1564138,1.326009E-05,0.1564138,0
0.9099,-0.2299805,0.9099,0.9399414,0.9099,-0.2817383,0.9099,-3.414634,0.9099,5.243903,0.9099,1.463415,0.1568793,3.138781E-05,0.1568793,-1.05745E-05,0.9099,-0.1552734,0.9099,-0.9594727,0.9099,-0.3286133,0.9099,-1.280488,0.9099,-0.1829268,0.9099,1.463415,0.1568793,1.258869E-05,0.1568793,0
0.9126,-0.230957,0.9126,0.9394531,0.9126,-0.2836914,0.9126,-3.536585,0.9126,5.121951,0.9126,1.402439,0.1573448,3.004501E-05,0.1573448,-1.225299E-05,0.9126,-0.1552734,0.9126,-0.9624023,0.9126,-0.3291016,0.9126,-1.158537,0.9126,-0.1829268,0.9126,1.280488,0.1573448,1.326009E-05,0.1573448,0
0.9153,-0.2324219,0.9153,0.9428711,0.9153,-0.2797852,0.9153,-3.414634,0.9153,5.243903,0.9153,1.585366,0.1578103,3.004501E-05,0.1578103,-1.258869E-05,0.9153,-0.1499023,0.9153,-0.9594727,0.9153,-0.3305664,0.9153,-0.9756098,0.9153,-0.4878049,0.9153,1.402439,0.1578103,1.326009E-05,0.1578103,0
0.918,-0.2329102,0.918,0.9394531,0.918,-0.2802734,0.918,-3.536585,0.918,5.060976,0.918,1.52439,0.1582759,3.172351E-05,0.1582759,-1.19173E-05,0.918,-0.1533203,0.918,-0.9584961,0.918,-0.3271484,0.918,-0.7926829,0.918,-0.2439024,0.918,1.463415,0.1582759,1.242084E-05,0.1582759,0
0.9207,-0.2368164,0.9207,0.9433594,0.9207,-0.2744141,0.9207,-3.658537,0.9207,5.182927,0.9207,1.341463,0.1587414,3.138781E-05,0.1587414,-1.09102E-05,0.9207,-0.1484375,0.9207,-0.9570313,0.9207,-0.3374023,0.9207,-0.7926829,0.9207,-0.3658537,0.9207,1.402439,0.1587414,1.19173E-05,0.1587414,0
0.9234,-0.2314453,0.9234,0.9414063,0.9234,-0.2802734,0.9234,-3.719512,0.9234,5.243903,0.9234,1.768293,0.1592069,3.004501E-05,0.1592069,-1.09102E-05,0.9234,-0.1455078,0.9234,-0.9570313,0.9234,-0.3320313,0.9234,-0.8536586,0.9234,-0.2439024,0.9234,1.646341,0.1592069,1.19173E-05,0.1592069,0
0.9261,-0.2319336,0.9261,0.9423828,0.9261,-0.2807617,0.9261,-3.841464,0.9261,5.426829,0.9261,1.463415,0.1596724,2.769513E-05,0.1596724,-1.09102E-05,0.9261,-0.1435547,0.9261,-0.956543,0.9261,-0.331543,0.9261,-0.6707317,0.9261,-0.6097561,0.9261,1.402439,0.1596724,1.258869E-05,0.1596724,0
0.9288,-0.230957,0.9288,0.9404297,0.9288,-0.2802734,0.9288,-4.146341,0.9288,5.304878,0.9288,1.646341,0.1601379,2.400244E-05,0.1601379,-9.567407E-06,0.9288,-0.1425781,0.9288,-0.9584961,0.9288,-0.3349609,0.9288,-0.8536586,0.9288,-0.5487805,0.9288,1.280488,0.1601379,1.359579E-05,0.1601379,0
0.9315,-0.2304688,0.9315,0.9399414,0.9315,-0.2802734,0.9315,-3.963415,0.9315,5.304878,0.9315,1.829268,0.1606034,1.661708E-05,0.1606034,-6.881819E-06,0.9315,-0.1416016,0.9315,-0.9575195,0.9315,-0.3398438,0.9315,-0.9146342,0.9315,-0.5487805,0.9315,1.463415,0.1606034,1.426719E-05,0.1606034,0
0.9342,-0.2304688,0.9342,0.9394531,0.9342,-0.2788086,0.9342,-3.902439,0.9342,5.304878,0.9342,1.585366,0.161069,1.19173E-05,0.161069,-4.867628E-06,0.9342,-0.1416016,0.9342,-0.9545898,0.9342,-0.3339844,0.9342,-1.036585,0.9342,-0.6707317,0.9342,1.219512,0.161069,1.510643E-05,0.161069,0
0.9369,-0.2333984,0.9369,0.9394531,0.9369,-0.2773438,0.9369,-4.085366,0.9369,5.426829,0.9369,1.585366,0.1615345,1.05745E-05,0.1615345,-5.539025E-06,0.9369,-0.1445313,0.9369,-0.9560547,0.9369,-0.3413086,0.9369,-1.219512,0.9369,-0.4878049,0.9369,1.036585,0.1615345,1.594568E-05,0.1615345,0
0.9396001,-0.2338867,0.9396001,0.9423828,0.9396001,-0.2768555,0.9396001,-4.085366,0.9396001,5.304878,0.9396001,1.402439,0.162,1.258869E-05,0.162,-5.874723E-06,0.9396001,-0.1430664,0.9396001,-0.949707,0.9396001,-0.3354492,0.9396001,-1.463415,0.9396001,0,0.9396001,1.158537,0.162,1.527428E-05,0.162,0
0.9423,-0.234375,0.9423,0.9433594,0.9423,-0.2724609,0.9423,-4.085366,0.9423,5.121951,0.9423,1.585366,0.1624655,1.712062E-05,0.1624655,-5.203327E-06,0.9423,-0.1420898,0.9423,-0.9536133,0.9423,-0.3359375,0.9423,-1.585366,0.9423,0.3048781,0.9423,1.341463,0.1624655,1.326009E-05,0.1624655,0
0.9450001,-0.234375,0.9450001,0.9370117,0.9450001,-0.2724609,0.9450001,-4.146341,0.9450001,5.243903,0.9450001,1.280488,0.162931,1.997406E-05,0.162931,-3.860533E-06,0.9450001,-0.1455078,0.9450001,-0.9536133,0.9450001,-0.3349609,0.9450001,-1.829268,0.9450001,-0.06097561,0.9450001,1.52439,0.162931,1.292439E-05,0.162931,0
0.9477,-0.2382813,0.9477,0.9389648,0.9477,-0.2744141,0.9477,-4.207317,0.9477,5.487805,0.9477,1.646341,0.1633966,1.997406E-05,0.1633966,-3.189136E-06,0.9477,-0.1435547,0.9477,-0.9536133,0.9477,-0.3359375,0.9477,-1.768293,0.9477,0.3658537,0.9477,1.52439,0.1633966,1.326009E-05,0.1633966,0
0.9504,-0.2382813,0.9504,0.9389648,0.9504,-0.2758789,0.9504,-4.207317,0.9504,5.54878,0.9504,1.463415,0.1638621,2.198825E-05,0.1638621,-4.531929E-06,0.9504,-0.1455078,0.9504,-0.9550781,0.9504,-0.3349609,0.9504,-1.95122,0.9504,0.5487805,0.9504,1.463415,0.1638621,1.19173E-05,0.1638621,0
0.9531,-0.234375,0.9531,0.9394531,0.9531,-0.2758789,0.9531,-4.512195,0.9531,5.365854,0.9531,1.52439,0.1643276,2.467384E-05,0.1643276,-7.721065E-06,0.9531,-0.1455078,0.9531,-0.9570313,0.9531,-0.3334961,0.9531,-2.012195,0.9531,0.4268293,0.9531,1.463415,0.1643276,1.258869E-05,0.1643276,0
0.9558,-0.2353516,0.9558,0.9335938,0.9558,-0.2763672,0.9558,-4.573171,0.9558,5.54878,0.9558,1.646341,0.1647931,2.601663E-05,0.1647931,-9.735256E-06,0.9558,-0.1508789,0.9558,-0.956543,0.9558,-0.328125,0.9558,-1.707317,0.9558,0.7926829,0.9558,1.585366,0.1647931,1.359579E-05,0.1647931,0
0.9585,-0.2358398,0.9585,0.9365234,0.9585,-0.2719727,0.9585,-4.329268,0.9585,5.426829,0.9585,1.707317,0.1652586,2.467384E-05,0.1652586,-9.567407E-06,0.9585,-0.1484375,0.9585,-0.9550781,0.9585,-0.3305664,0.9585,-1.890244,0.9585,0.6097561,0.9585,1.280488,0.1652586,1.292439E-05,0.1652586,0
0.9612,-0.2363281,0.9612,0.9355469,0.9612,-0.2744141,0.9612,-4.146341,0.9612,5.609756,0.9612,1.707317,0.1657241,2.131685E-05,0.1657241,-8.560311E-06,0.9612,-0.1523438,0.9612,-0.9555664,0.9612,-0.3344727,0.9612,-1.768293,0.9612,0.6707317,0.9612,1.341463,0.1657241,1.19173E-05,0.1657241,0
0.9639,-0.2348633,0.9639,0.9350586,0.9639,-0.2749023,0.9639,-4.02439,0.9639,5.670732,0.9639,1.463415,0.1661897,1.863127E-05,0.1661897,-7.888914E-06,0.9639,-0.1567383,0.9639,-0.9570313,0.9639,-0.3334961,0.9639,-1.890244,0.9639,0.9756098,0.9639,1.463415,0.1661897,1.15816E-05,0.1661897,0
0.9666,-0.2368164,0.9666,0.9335938,0.9666,-0.2788086,0.9666,-3.963415,0.9666,5.792683,0.9666,1.280488,0.1666552,1.829557E-05,0.1666552,-7.217518E-06,0.9666,-0.1533203,0.9666,-0.956543,0.9666,-0.3388672,0.9666,-1.52439,0.9666,0.8536586,0.9666,1.585366,0.1666552,9.231709E-06,0.1666552,0
0.9693,-0.2358398,0.9693,0.9355469,0.9693,-0.2792969,0.9693,-3.47561,0.9693,5.54878,0.9693,1.341463,0.1671207,2.265965E-05,0.1671207,-7.217518E-06,0.9693,-0.1552734,0.9693,-0.9516602,0.9693,-0.3349609,0.9693,-1.707317,0.9693,0.9146342,0.9693,1.52439,0.1671207,7.888914E-06,0.1671207,0
0.972,-0.237793,0.972,0.9355469,0.972,-0.2807617,0.972,-3.353659,0.972,5.731708,0.972,1.402439,0.1675862,2.735943E-05,0.1675862,-9.567407E-06,0.972,-0.1542969,0.972,-0.9560547,0.972,-0.3349609,0.972,-1.219512,0.972,0.4878049,0.972,1.463415,0.1675862,8.560311E-06,0.1675862,0
0.9747,-0.2407227,0.9747,0.9355469,0.9747,-0.2827148,0.9747,-3.597561,0.9747,5.426829,0.9747,1.402439,0.1680517,2.903792E-05,0.1680517,-1.107805E-05,0.9747,-0.1538086,0.9747,-0.9550781,0.9747,-0.3300781,0.9747,-1.158537,0.9747,0.4878049,0.9747,1.646341,0.1680517,9.903105E-06,0.1680517,0
0.9774,-0.2456055,0.9774,0.9365234,0.9774,-0.2807617,0.9774,-3.536585,0.9774,5.54878,0.9774,1.52439,0.1685172,2.719158E-05,0.1685172,-1.09102E-05,0.9774,-0.1567383,0.9774,-0.9628906,0.9774,-0.3354492,0.9774,-1.463415,0.9774,0.7926829,0.9774,1.707317,0.1685172,9.903105E-06,0.1685172,0
0.9801,-0.2431641,0.9801,0.9355469,0.9801,-0.2822266,0.9801,-3.353659,0.9801,5.670732,0.9801,1.768293,0.1689828,2.500954E-05,0.1689828,-8.89601E-06,0.9801,-0.1538086,0.9801,-0.9575195,0.9801,-0.3295898,0.9801,-1.341463,0.9801,0.9146342,0.9801,1.341463,0.1689828,1.05745E-05,0.1689828,0
0.9828,-0.2412109,0.9828,0.9355469,0.9828,-0.2836914,0.9828,-3.292683,0.9828,5.731708,0.9828,1.585366,0.1694483,2.400244E-05,0.1694483,-7.553216E-06,0.9828,-0.1552734,0.9828,-0.9570313,0.9828,-0.331543,0.9828,-1.280488,0.9828,0.4268293,0.9828,1.402439,0.1694483,1.09102E-05,0.1694483,0
0.9855,-0.2368164,0.9855,0.9418945,0.9855,-0.2841797,0.9855,-3.109756,0.9855,5.54878,0.9855,1.341463,0.1699138,2.383459E-05,0.1699138,-7.721065E-06,0.9855,-0.1572266,0.9855,-0.9555664,0.9855,-0.3325195,0.9855,-1.707317,0.9855,0.2439024,0.9855,1.219512,0.1699138,1.12459E-05,0.1699138,0
0.9882,-0.2373047,0.9882,0.9394531,0.9882,-0.2856445,0.9882,-3.109756,0.9882,5.731708,0.9882,1.707317,0.1703793,2.265965E-05,0.1703793,-9.231709E-06,0.9882,-0.1611328,0.9882,-0.9580078,0.9882,-0.3330078,0.9882,-1.463415,0.9882,0.4268293,0.9882,1.219512,0.1703793,1.05745E-05,0.1703793,0
0.9909,-0.2397461,0.9909,0.9414063,0.9909,-0.2788086,0.9909,-2.926829,0.9909,5.365854,0.9909,1.646341,0.1708448,2.131685E-05,0.1708448,-9.735256E-06,0.9909,-0.1625977,0.9909,-0.953125,0.9909,-0.3330078,0.9909,-1.463415,0.9909,0.4878049,0.9909,1.219512,0.1708448,1.05745E-05,0.1708448,0
0.9936,-0.237793,0.9936,0.9399414,0.9936,-0.2788086,0.9936,-2.926829,0.9936,5.304878,0.9936,1.829268,0.1713103,1.997406E-05,0.1713103,-1.007095E-05,0.9936,-0.15625,0.9936,-0.9575195,0.9936,-0.3374023,0.9936,-1.829268,0.9936,0.3658537,0.9936,1.280488,0.1713103,1.05745E-05,0.1713103,0
0.9963,-0.2387695,0.9963,0.9399414,0.9963,-0.2788086,0.9963,-2.560976,0.9963,5.365854,0.9963,1.829268,0.1717759,1.930266E-05,0.1717759,-9.567407E-06,0.9963,-0.159668,0.9963,-0.9536133,0.9963,-0.3369141,0.9963,-1.95122,0.9963,0.2439024,0.9963,1.280488,0.1717759,1.05745E-05,0.1717759,0
0.999,-0.2382813,0.999,0.9389648,0.999,-0.2763672,0.999,-2.804878,0.999,5.182927,0.999,1.707317,0.1722414,1.997406E-05,0.1722414,-8.560311E-06,0.999,-0.1582031,0.999,-0.9575195,0.999,-0.3388672,0.999,-1.707317,0.999,0.1829268,0.999,1.219512,0.1722414,1.107805E-05,0.1722414,0
1.0017,-0.2441406,1.0017,0.9394531,1.0017,-0.2797852,1.0017,-2.439024,1.0017,5.182927,1.0017,1.890244,0.1727069,2.198825E-05,0.1727069,-8.224612E-06,1.0017,-0.1572266,1.0017,-0.9589844,1.0017,-0.3364258,1.0017,-1.646341,1.0017,0.1219512,1.0017,1.463415,0.1727069,1.12459E-05,0.1727069,0
1.0044,-0.2397461,1.0044,0.9379883,1.0044,-0.2792969,1.0044,-2.621951,1.0044,5.243903,1.0044,1.829268,0.1731724,2.333104E-05,0.1731724,-8.224612E-06,1.0044,-0.1577148,1.0044,-0.9580078,1.0044,-0.3383789,1.0044,-1.585366,1.0044,0.3658537,1.0044,1.52439,0.1731724,1.174945E-05,0.1731724,0
1.0071,-0.2353516,1.0071,0.9443359,1.0071,-0.2758789,1.0071,-2.5,1.0071,5.060976,1.0071,1.463415,0.1736379,2.232395E-05,0.1736379,-8.392462E-06,1.0071,-0.1567383,1.0071,-0.9575195,1.0071,-0.340332,1.0071,-1.829268,1.0071,0.3048781,1.0071,1.646341,0.1736379,1.19173E-05,0.1736379,0
1.0098,-0.237793,1.0098,0.9404297,1.0098,-0.2783203,1.0098,-2.560976,1.0098,4.817073,1.0098,1.646341,0.1741034,2.198825E-05,0.1741034,-7.217518E-06,1.0098,-0.1513672,1.0098,-0.9589844,1.0098,-0.3398438,1.0098,-1.52439,1.0098,0.1219512,1.0098,1.402439,0.1741034,1.292439E-05,0.1741034,0
1.0125,-0.2368164,1.0125,0.9370117,1.0125,-0.2773438,1.0125,-2.987805,1.0125,5.182927,1.0125,1.646341,0.174569,2.265965E-05,0.174569,-6.54612E-06,1.0125,-0.1503906,1.0125,-0.9570313,1.0125,-0.3349609,1.0125,-1.52439,1.0125,0.2439024,1.0125,1.341463,0.174569,1.326009E-05,0.174569,0
1.0152,-0.2329102,1.0152,0.9423828,1.0152,-0.2768555,1.0152,-3.04878,1.0152,5,1.0152,1.52439,0.1750345,2.265965E-05,0.1750345,-6.210422E-06,1.0152,-0.1499023,1.0152,-0.9555664,1.0152,-0.3369141,1.0152,-1.768293,1.0152,0.3658537,1.0152,1.768293,0.1750345,1.326009E-05,0.1750345,0
1.0179,-0.2387695,1.0179,0.9428711,1.0179,-0.2734375,1.0179,-2.926829,1.0179,4.573171,1.0179,1.52439,0.1755,2.265965E-05,0.1755,-6.210422E-06,1.0179,-0.1508789,1.0179,-0.9575195,1.0179,-0.3349609,1.0179,-1.890244,1.0179,0.6097561,1.0179,1.341463,0.1755,1.326009E-05,0.1755,0
1.0206,-0.234375,1.0206,0.9448242,1.0206,-0.2773438,1.0206,-3.04878,1.0206,4.878049,1.0206,1.402439,0.1759655,2.131685E-05,0.1759655,-5.706874E-06,1.0206,-0.1538086,1.0206,-0.956543,1.0206,-0.3374023,1.0206,-1.890244,1.0206,0.3048781,1.0206,1.280488,0.1759655,1.292439E-05,0.1759655,0
1.0233,-0.2348633,1.0233,0.9453125,1.0233,-0.2768555,1.0233,-3.109756,1.0233,4.939024,1.0233,1.280488,0.176431,2.064546E-05,0.176431,-5.539025E-06,1.0233,-0.1552734,1.0233,-0.9541016,1.0233,-0.3398438,1.0233,-1.707317,1.0233,0.6707317,1.0233,1.463415,0.176431,1.258869E-05,0.176431,0
1.026,-0.2324219,1.026,0.9453125,1.026,-0.2773438,1.026,-3.109756,1.026,4.878049,1.026,1.768293,0.1768965,2.098116E-05,0.1768965,-5.539025E-06,1.026,-0.1533203,1.026,-0.9501953,1.026,-0.3408203,1.026,-1.768293,1.026,0.6707317,1.026,1.646341,0.1768965,1.326009E-05,0.1768965,0
1.0287,-0.2314453,1.0287,0.9418945,1.0287,-0.2753906,1.0287,-3.292683,1.0287,4.878049,1.0287,1.646341,0.1773621,2.198825E-05,0.1773621,-5.539025E-06,1.0287,-0.1542969,1.0287,-0.9526367,1.0287,-0.3359375,1.0287,-2.012195,1.0287,0.8536586,1.0287,1.707317,0.1773621,1.527428E-05,0.1773621,0
1.0314,-0.2329102,1.0314,0.9433594,1.0314,-0.2734375,1.0314,-3.536585,1.0314,4.939024,1.0314,1.402439,0.1778276,2.232395E-05,0.1778276,-6.042573E-06,1.0314,-0.1474609,1.0314,-0.9545898,1.0314,-0.3359375,1.0314,-2.195122,1.0314,0.8536586,1.0314,1.646341,0.1778276,1.594568E-05,0.1778276,0
1.0341,-0.2290039,1.0341,0.9423828,1.0341,-0.2719727,1.0341,-3.292683,1.0341,5.060976,1.0341,1.585366,0.1782931,1.863127E-05,0.1782931,-6.881819E-06,1.0341,-0.1479492,1.0341,-0.9536133,1.0341,-0.3325195,1.0341,-2.256098,1.0341,1.219512,1.0341,1.768293,0.1782931,1.393149E-05,0.1782931,0
1.0368,-0.2285156,1.0368,0.9438477,1.0368,-0.2749023,1.0368,-3.719512,1.0368,4.817073,1.0368,1.585366,0.1787586,1.560998E-05,0.1787586,-8.224612E-06,1.0368,-0.1469727,1.0368,-0.9545898,1.0368,-0.3364258,1.0368,-2.073171,1.0368,0.9756098,1.0368,1.646341,0.1787586,1.174945E-05,0.1787586,0
1.0395,-0.2299805,1.0395,0.9404297,1.0395,-0.2763672,1.0395,-3.780488,1.0395,4.756098,1.0395,1.707317,0.1792241,1.560998E-05,0.1792241,-8.560311E-06,1.0395,-0.1489258,1.0395,-0.953125,1.0395,-0.3398438,1.0395,-2.317073,1.0395,0.9146342,1.0395,1.646341,0.1792241,1.05745E-05,0.1792241,0
1.0422,-0.230957,1.0422,0.9433594,1.0422,-0.2768555,1.0422,-3.841464,1.0422,5.060976,1.0422,1.341463,0.1796896,1.795987E-05,0.1796896,-6.881819E-06,1.0422,-0.1474609,1.0422,-0.9584961,1.0422,-0.3369141,1.0422,-2.134146,1.0422,1.097561,1.0422,1.646341,0.1796896,9.231709E-06,0.1796896,0
1.0449,-0.2324219,1.0449,0.940918,1.0449,-0.2788086,1.0449,-4.146341,1.0449,5,1.0449,1.219512,0.1801552,1.896696E-05,0.1801552,-7.049668E-06,1.0449,-0.1508789,1.0449,-0.9580078,1.0449,-0.340332,1.0449,-2.378049,1.0449,1.280488,1.0449,1.585366,0.1801552,9.567407E-06,0.1801552,0
1.0476,-0.2304688,1.0476,0.9443359,1.0476,-0.2763672,1.0476,-4.146341,1.0476,5,1.0476,1.52439,0.1806207,1.863127E-05,0.1806207,-8.560311E-06,1.0476,-0.1450195,1.0476,-0.9560547,1.0476,-0.3364258,1.0476,-2.317073,1.0476,1.158537,1.0476,1.585366,0.1806207,1.174945E-05,0.1806207,0
1.0503,-0.2338867,1.0503,0.9482422,1.0503,-0.2753906,1.0503,-4.329268,1.0503,5.243903,1.0503,1.646341,0.1810862,1.644922E-05,0.1810862,-9.735256E-06,1.0503,-0.1479492,1.0503,-0.9580078,1.0503,-0.3339844,1.0503,-1.829268,1.0503,0.9756098,1.0503,1.402439,0.1810862,1.376364E-05,0.1810862,0
1.053,-0.2319336,1.053,0.9438477,1.053,-0.2749023,1.053,-4.390244,1.053,5.060976,1.053,1.646341,0.1815517,1.661708E-05,0.1815517,-1.02388E-05,1.053,-0.1499023,1.053,-0.9575195,1.053,-0.3393555,1.053,-2.195122,1.053,1.280488,1.053,1.341463,0.1815517,1.594568E-05,0.1815517,0
1.0557,-0.2338867,1.0557,0.9438477,1.0557,-0.2792969,1.0557,-4.390244,1.0557,5.121951,1.0557,1.585366,0.1820172,1.963836E-05,0.1820172,-1.09102E-05,1.0557,-0.1489258,1.0557,-0.9594727,1.0557,-0.3383789,1.0557,-1.829268,1.0557,1.280488,1.0557,1.402439,0.1820172,1.628138E-05,0.1820172,0
1.0584,-0.2324219,1.0584,0.9418945,1.0584,-0.2783203,1.0584,-4.512195,1.0584,5,1.0584,1.52439,0.1824827,2.131685E-05,0.1824827,-1.12459E-05,1.0584,-0.1469727,1.0584,-0.9580078,1.0584,-0.3364258,1.0584,-1.890244,1.0584,1.219512,1.0584,1.341463,0.1824827,1.527428E-05,0.1824827,0
1.0611,-0.2319336,1.0611,0.9443359,1.0611,-0.28125,1.0611,-4.939024,1.0611,5.121951,1.0611,1.585366,0.1829483,2.064546E-05,0.1829483,-1.09102E-05,1.0611,-0.1484375,1.0611,-0.9555664,1.0611,-0.3364258,1.0611,-2.073171,1.0611,1.341463,1.0611,0.9146342,0.1829483,1.460288E-05,0.1829483,0
1.0638,-0.2397461,1.0638,0.9453125,1.0638,-0.2763672,1.0638,-5.243903,1.0638,5.304878,1.0638,1.768293,0.1834138,1.930266E-05,0.1834138,-9.735256E-06,1.0638,-0.1503906,1.0638,-0.9580078,1.0638,-0.340332,1.0638,-1.585366,1.0638,1.280488,1.0638,1.219512,0.1834138,1.443504E-05,0.1834138,0
1.0665,-0.2392578,1.0665,0.9428711,1.0665,-0.2744141,1.0665,-5.304878,1.0665,5.487805,1.0665,1.829268,0.1838793,1.728847E-05,0.1838793,-1.09102E-05,1.0665,-0.1508789,1.0665,-0.9589844,1.0665,-0.3364258,1.0665,-1.463415,1.0665,1.219512,1.0665,1.158537,0.1838793,1.426719E-05,0.1838793,0
1.0692,-0.2373047,1.0692,0.9428711,1.0692,-0.2768555,1.0692,-5.243903,1.0692,5.54878,1.0692,1.707317,0.1843448,1.829557E-05,0.1843448,-1.208515E-05,1.0692,-0.1513672,1.0692,-0.9614258,1.0692,-0.3388672,1.0692,-1.646341,1.0692,1.219512,1.0692,0.9756098,0.1843448,1.359579E-05,0.1843448,0
1.0719,-0.2373047,1.0719,0.9443359,1.0719,-0.2788086,1.0719,-5.060976,1.0719,5.487805,1.0719,1.829268,0.1848103,2.131685E-05,0.1848103,-1.225299E-05,1.0719,-0.1503906,1.0719,-0.9589844,1.0719,-0.3383789,1.0719,-1.280488,1.0719,1.219512,1.0719,1.280488,0.1848103,1.19173E-05,0.1848103,0
1.0746,-0.2348633,1.0746,0.9418945,1.0746,-0.2832031,1.0746,-5.121951,1.0746,5.304878,1.0746,1.463415,0.1852759,2.400244E-05,0.1852759,-1.05745E-05,1.0746,-0.152832,1.0746,-0.9619141,1.0746,-0.3354492,1.0746,-1.341463,1.0746,1.341463,1.0746,1.52439,0.1852759,1.242084E-05,0.1852759,0
1.0773,-0.2353516,1.0773,0.9433594,1.0773,-0.2797852,1.0773,-5.060976,1.0773,5.426829,1.0773,1.52439,0.1857414,2.333104E-05,0.1857414,-8.224612E-06,1.0773,-0.1572266,1.0773,-0.9575195,1.0773,-0.3344727,1.0773,-1.341463,1.0773,1.341463,1.0773,1.52439,0.1857414,1.460288E-05,0.1857414,0
1.08,-0.2387695,1.08,0.9399414,1.08,-0.2822266,1.08,-5,1.08,5.731708,1.08,1.52439,0.1862069,2.1149E-05,0.1862069,-6.210422E-06,1.08,-0.1552734,1.08,-0.9570313,1.08,-0.3344727,1.08,-1.280488,1.08,1.402439,1.08,1.341463,0.1862069,1.594568E-05,0.1862069,0
1.0827,-0.2363281,1.0827,0.9389648,1.0827,-0.2832031,1.0827,-5.243903,1.0827,5.182927,1.0827,1.402439,0.1866724,2.198825E-05,0.1866724,-5.371176E-06,1.0827,-0.1523438,1.0827,-0.9545898,1.0827,-0.3325195,1.0827,-1.036585,1.0827,0.9756098,1.0827,1.158537,0.1866724,1.661708E-05,0.1866724,0
1.0854,-0.237793,1.0854,0.9384766,1.0854,-0.2832031,1.0854,-5.304878,1.0854,5.243903,1.0854,1.52439,0.1871379,2.534523E-05,0.1871379,-6.881819E-06,1.0854,-0.1577148,1.0854,-0.9575195,1.0854,-0.3330078,1.0854,-0.9756098,1.0854,1.341463,1.0854,1.280488,0.1871379,1.728847E-05,0.1871379,0
1.0881,-0.2387695,1.0881,0.9360352,1.0881,-0.2797852,1.0881,-5.304878,1.0881,5.487805,1.0881,1.52439,0.1876034,2.652018E-05,0.1876034,-8.89601E-06,1.0881,-0.1577148,1.0881,-0.9638672,1.0881,-0.3374023,1.0881,-1.097561,1.0881,1.158537,1.0881,1.52439,0.1876034,1.863127E-05,0.1876034,0
1.0908,-0.2416992,1.0908,0.9379883,1.0908,-0.2841797,1.0908,-5.243903,1.0908,5.243903,1.0908,1.402439,0.188069,2.534523E-05,0.188069,-1.05745E-05,1.0908,-0.15625,1.0908,-0.9643555,1.0908,-0.3378906,1.0908,-1.341463,1.0908,1.158537,1.0908,1.341463,0.188069,1.863127E-05,0.188069,0
1.0935,-0.2397461,1.0935,0.9389648,1.0935,-0.2827148,1.0935,-5,1.0935,5.304878,1.0935,1.463415,0.1885345,2.467384E-05,0.1885345,-1.107805E-05,1.0935,-0.1582031,1.0935,-0.9599609,1.0935,-0.3383789,1.0935,-1.219512,1.0935,1.219512,1.0935,1.219512,0.1885345,1.712062E-05,0.1885345,0
1.0962,-0.2363281,1.0962,0.9389648,1.0962,-0.284668,1.0962,-5.121951,1.0962,5.54878,1.0962,1.52439,0.189,2.500954E-05,0.189,-1.225299E-05,1.0962,-0.1601563,1.0962,-0.9619141,1.0962,-0.3393555,1.0962,-0.9146342,1.0962,1.280488,1.0962,1.280488,0.189,1.628138E-05,0.189,0
1.0989,-0.2368164,1.0989,0.9394531,1.0989,-0.2832031,1.0989,-5.304878,1.0989,5.304878,1.0989,1.52439,0.1894655,2.601663E-05,0.1894655,-1.225299E-05,1.0989,-0.1547852,1.0989,-0.9619141,1.0989,-0.3393555,1.0989,-0.6707317,1.0989,1.280488,1.0989,1.341463,0.1894655,1.728847E-05,0.1894655,0
1.1016,-0.2392578,1.1016,0.9389648,1.1016,-0.28125,1.1016,-5.426829,1.1016,5.243903,1.1016,1.463415,0.189931,2.735943E-05,0.189931,-1.15816E-05,1.1016,-0.15625,1.1016,-0.9619141,1.1016,-0.3374023,1.1016,-0.4268293,1.1016,1.280488,1.1016,1.52439,0.189931,1.795987E-05,0.189931,0
1.1043,-0.2333984,1.1043,0.9370117,1.1043,-0.2802734,1.1043,-5.182927,1.1043,5.243903,1.1043,1.463415,0.1903965,2.735943E-05,0.1903965,-1.107805E-05,1.1043,-0.15625,1.1043,-0.9609375,1.1043,-0.3427734,1.1043,-0.4268293,1.1043,1.219512,1.1043,1.463415,0.1903965,1.628138E-05,0.1903965,0
1.107,-0.2368164,1.107,0.9379883,1.107,-0.2817383,1.107,-5,1.107,5.487805,1.107,1.646341,0.1908621,2.484169E-05,0.1908621,-1.12459E-05,1.107,-0.1586914,1.107,-0.9614258,1.107,-0.3369141,1.107,-0.4878049,1.107,1.280488,1.107,1.463415,0.1908621,1.460288E-05,0.1908621,0
1.1097,-0.2373047,1.1097,0.9404297,1.1097,-0.2802734,1.1097,-5.365854,1.1097,5.304878,1.1097,1.707317,0.1913276,2.198825E-05,0.1913276,-9.567407E-06,1.1097,-0.1538086,1.1097,-0.9614258,1.1097,-0.3364258,1.1097,-0.6097561,1.1097,1.219512,1.1097,1.463415,0.1913276,1.393149E-05,0.1913276,0
1.1124,-0.2353516,1.1124,0.9360352,1.1124,-0.28125,1.1124,-5.060976,1.1124,5.304878,1.1124,1.280488,0.1917931,2.098116E-05,0.1917931,-8.224612E-06,1.1124,-0.1591797,1.1124,-0.9633789,1.1124,-0.3378906,1.1124,-0.6097561,1.1124,1.219512,1.1124,1.341463,0.1917931,1.594568E-05,0.1917931,0
1.1151,-0.2392578,1.1151,0.9375,1.1151,-0.2827148,1.1151,-4.939024,1.1151,5.182927,1.1151,1.585366,0.1922586,2.165255E-05,0.1922586,-8.392462E-06,1.1151,-0.1572266,1.1151,-0.9580078,1.1151,-0.3374023,1.1151,-0.1829268,1.1151,1.219512,1.1151,1.402439,0.1922586,1.795987E-05,0.1922586,0
1.1178,-0.2368164,1.1178,0.9375,1.1178,-0.2836914,1.1178,-4.756098,1.1178,5,1.1178,1.646341,0.1927241,2.131685E-05,0.1927241,-7.888914E-06,1.1178,-0.1577148,1.1178,-0.9545898,1.1178,-0.3378906,1.1178,-0.5487805,1.1178,1.158537,1.1178,1.341463,0.1927241,1.829557E-05,0.1927241,0
1.1205,-0.2382813,1.1205,0.9375,1.1205,-0.2861328,1.1205,-5,1.1205,4.939024,1.1205,1.52439,0.1931897,1.997406E-05,0.1931897,-6.54612E-06,1.1205,-0.1567383,1.1205,-0.9555664,1.1205,-0.3442383,1.1205,-0.4268293,1.1205,1.158537,1.1205,1.707317,0.1931897,1.795987E-05,0.1931897,0
1.1232,-0.2382813,1.1232,0.9370117,1.1232,-0.2836914,1.1232,-5,1.1232,4.817073,1.1232,1.585366,0.1936552,1.728847E-05,0.1936552,-5.874723E-06,1.1232,-0.1538086,1.1232,-0.9575195,1.1232,-0.3417969,1.1232,-0.5487805,1.1232,1.219512,1.1232,1.646341,0.1936552,1.779202E-05,0.1936552,0
1.1259,-0.2358398,1.1259,0.9379883,1.1259,-0.2827148,1.1259,-4.695122,1.1259,4.878049,1.1259,1.341463,0.1941207,1.527428E-05,0.1941207,-6.54612E-06,1.1259,-0.1484375,1.1259,-0.9594727,1.1259,-0.3374023,1.1259,-0.4878049,1.1259,1.036585,1.1259,1.52439,0.1941207,1.728847E-05,0.1941207,0
1.1286,-0.2348633,1.1286,0.9384766,1.1286,-0.2861328,1.1286,-4.695122,1.1286,4.878049,1.1286,1.341463,0.1945862,1.527428E-05,0.1945862,-7.553216E-06,1.1286,-0.1552734,1.1286,-0.9521484,1.1286,-0.3408203,1.1286,-0.4268293,1.1286,0.9146342,1.1286,1.463415,0.1945862,1.594568E-05,0.1945862,0
1.1313,-0.2363281,1.1313,0.9389648,1.1313,-0.2866211,1.1313,-4.695122,1.1313,5.060976,1.1313,1.52439,0.1950517,1.829557E-05,0.1950517,-7.553216E-06,1.1313,-0.1489258,1.1313,-0.949707,1.1313,-0.3442383,1.1313,-0.3048781,1.1313,1.280488,1.1313,1.402439,0.1950517,1.460288E-05,0.1950517,0
1.134,-0.2392578,1.134,0.9331055,1.134,-0.2890625,1.134,-4.695122,1.134,4.878049,1.134,1.585366,0.1955172,2.131685E-05,0.1955172,-6.881819E-06,1.134,-0.1464844,1.134,-0.9482422,1.134,-0.340332,1.134,-0.3048781,1.134,1.463415,1.134,1.585366,0.1955172,1.376364E-05,0.1955172,0
1.1367,-0.2387695,1.1367,0.9331055,1.1367,-0.284668,1.1367,-4.756098,1.1367,4.939024,1.1367,1.585366,0.1959828,2.299535E-05,0.1959828,-6.210422E-06,1.1367,-0.1455078,1.1367,-0.9506836,1.1367,-0.3408203,1.1367,-0.3658537,1.1367,1.402439,1.1367,1.52439,0.1959828,1.426719E-05,0.1959828,0
1.1394,-0.2324219,1.1394,0.9389648,1.1394,-0.2905273,1.1394,-4.756098,1.1394,4.695122,1.1394,1.646341,0.1964483,2.366674E-05,0.1964483,-6.210422E-06,1.1394,-0.1484375,1.1394,-0.9511719,1.1394,-0.3427734,1.1394,-0.8536586,1.1394,1.402439,1.1394,1.463415,0.1964483,1.393149E-05,0.1964483,0
1.1421,-0.234375,1.1421,0.9365234,1.1421,-0.2836914,1.1421,-4.512195,1.1421,4.878049,1.1421,1.646341,0.1969138,2.333104E-05,0.1969138,-5.706874E-06,1.1421,-0.1474609,1.1421,-0.953125,1.1421,-0.34375,1.1421,-0.5487805,1.1421,1.463415,1.1421,1.341463,0.1969138,1.393149E-05,0.1969138,0
1.1448,-0.2368164,1.1448,0.9355469,1.1448,-0.2851563,1.1448,-4.45122,1.1448,4.573171,1.1448,1.768293,0.1973793,2.383459E-05,0.1973793,-5.874723E-06,1.1448,-0.1518555,1.1448,-0.9501953,1.1448,-0.3427734,1.1448,-1.036585,1.1448,1.402439,1.1448,1.585366,0.1973793,1.292439E-05,0.1973793,0
1.1475,-0.2333984,1.1475,0.9370117,1.1475,-0.2875977,1.1475,-4.45122,1.1475,4.573171,1.1475,1.585366,0.1978448,2.333104E-05,0.1978448,-6.378271E-06,1.1475,-0.1494141,1.1475,-0.9511719,1.1475,-0.34375,1.1475,-0.7317073,1.1475,1.768293,1.1475,1.646341,0.1978448,1.12459E-05,0.1978448,0
1.1502,-0.2368164,1.1502,0.9375,1.1502,-0.284668,1.1502,-4.634146,1.1502,4.634146,1.1502,1.646341,0.1983103,2.18204E-05,0.1983103,-7.553216E-06,1.1502,-0.1489258,1.1502,-0.9506836,1.1502,-0.3408203,1.1502,-0.9146342,1.1502,1.768293,1.1502,1.585366,0.1983103,9.903105E-06,0.1983103,0
1.1529,-0.2338867,1.1529,0.9404297,1.1529,-0.2817383,1.1529,-4.573171,1.1529,4.573171,1.1529,1.646341,0.1987759,2.047761E-05,0.1987759,-7.553216E-06,1.1529,-0.1513672,1.1529,-0.9482422,1.1529,-0.3442383,1.1529,-0.9756098,1.1529,1.463415,1.1529,1.463415,0.1987759,1.02388E-05,0.1987759,0
1.1556,-0.2348633,1.1556,0.9404297,1.1556,-0.2763672,1.1556,-4.390244,1.1556,4.207317,1.1556,1.707317,0.1992414,2.064546E-05,0.1992414,-7.553216E-06,1.1556,-0.1489258,1.1556,-0.9487305,1.1556,-0.3461914,1.1556,-0.4268293,1.1556,1.95122,1.1556,1.646341,0.1992414,1.107805E-05,0.1992414,0
1.1583,-0.2329102,1.1583,0.9399414,1.1583,-0.2788086,1.1583,-4.268293,1.1583,4.45122,1.1583,1.707317,0.1997069,2.047761E-05,0.1997069,-7.553216E-06,1.1583,-0.1484375,1.1583,-0.9536133,1.1583,-0.3447266,1.1583,-0.7926829,1.1583,2.012195,1.1583,1.280488,0.1997069,1.19173E-05,0.1997069,0
1.161,-0.2299805,1.161,0.9379883,1.161,-0.2792969,1.161,-4.329268,1.161,4.634146,1.161,1.463415,0.2001724,1.863127E-05,0.2001724,-8.224612E-06,1.161,-0.1474609,1.161,-0.9526367,1.161,-0.3422852,1.161,-0.9146342,1.161,2.195122,1.161,1.463415,0.2001724,1.242084E-05,0.2001724,0
1.1637,-0.2314453,1.1637,0.9414063,1.1637,-0.2880859,1.1637,-4.085366,1.1637,4.512195,1.1637,1.646341,0.2006379,1.795987E-05,0.2006379,-8.728161E-06,1.1637,-0.1464844,1.1637,-0.9482422,1.1637,-0.3422852,1.1637,-0.7317073,1.1637,2.012195,1.1637,1.341463,0.2006379,1.258869E-05,0.2006379,0
1.1664,-0.2275391,1.1664,0.9389648,1.1664,-0.2871094,1.1664,-4.329268,1.1664,4.573171,1.1664,1.707317,0.2011034,1.930266E-05,0.2011034,-8.224612E-06,1.1664,-0.1469727,1.1664,-0.9492188,1.1664,-0.3461914,1.1664,-0.7926829,1.1664,2.012195,1.1664,1.158537,0.2011034,1.12459E-05,0.2011034,0
1.1691,-0.2333984,1.1691,0.9428711,1.1691,-0.2817383,1.1691,-4.634146,1.1691,4.390244,1.1691,1.768293,0.201569,2.14847E-05,0.201569,-7.553216E-06,1.1691,-0.1484375,1.1691,-0.9467773,1.1691,-0.3383789,1.1691,-0.7926829,1.1691,2.378049,1.1691,1.52439,0.201569,1.05745E-05,0.201569,0
1.1718,-0.2319336,1.1718,0.9375,1.1718,-0.2841797,1.1718,-4.268293,1.1718,4.207317,1.1718,1.707317,0.2020345,2.265965E-05,0.2020345,-6.881819E-06,1.1718,-0.1503906,1.1718,-0.9472656,1.1718,-0.3413086,1.1718,-0.9756098,1.1718,1.95122,1.1718,1.341463,0.2020345,1.007095E-05,0.2020345,0
1.1745,-0.2299805,1.1745,0.9370117,1.1745,-0.2832031,1.1745,-4.207317,1.1745,4.512195,1.1745,2.012195,0.2025,2.265965E-05,0.2025,-7.553216E-06,1.1745,-0.1523438,1.1745,-0.9492188,1.1745,-0.3408203,1.1745,-1.036585,1.1745,2.073171,1.1745,1.280488,0.2025,1.05745E-05,0.2025,0
1.1772,-0.230957,1.1772,0.9394531,1.1772,-0.2822266,1.1772,-4.45122,1.1772,4.268293,1.1772,1.585366,0.2029655,2.198825E-05,0.2029655,-8.224612E-06,1.1772,-0.1518555,1.1772,-0.9492188,1.1772,-0.3422852,1.1772,-0.9146342,1.1772,1.829268,1.1772,1.219512,0.2029655,1.05745E-05,0.2029655,0
1.1799,-0.2319336,1.1799,0.9370117,1.1799,-0.2822266,1.1799,-4.268293,1.1799,4.207317,1.1799,1.95122,0.203431,2.232395E-05,0.203431,-8.224612E-06,1.1799,-0.1513672,1.1799,-0.9521484,1.1799,-0.3413086,1.1799,-0.8536586,1.1799,2.317073,1.1799,1.402439,0.203431,1.09102E-05,0.203431,0
1.1826,-0.2329102,1.1826,0.9389648,1.1826,-0.2827148,1.1826,-4.45122,1.1826,4.207317,1.1826,2.073171,0.2038966,2.333104E-05,0.2038966,-8.560311E-06,1.1826,-0.1518555,1.1826,-0.9545898,1.1826,-0.3417969,1.1826,-0.7317073,1.1826,2.317073,1.1826,1.341463,0.2038966,1.12459E-05,0.2038966,0
1.1853,-0.230957,1.1853,0.9384766,1.1853,-0.2792969,1.1853,-4.329268,1.1853,4.268293,1.1853,1.95122,0.2043621,2.400244E-05,0.2043621,-8.560311E-06,1.1853,-0.1533203,1.1853,-0.9526367,1.1853,-0.3422852,1.1853,-0.7926829,1.1853,2.317073,1.1853,1.52439,0.2043621,1.09102E-05,0.2043621,0
1.188,-0.2348633,1.188,0.9428711,1.188,-0.2788086,1.188,-4.512195,1.188,4.329268,1.188,2.134146,0.2048276,2.265965E-05,0.2048276,-8.224612E-06,1.188,-0.1557617,1.188,-0.9511719,1.188,-0.3461914,1.188,-1.219512,1.188,2.317073,1.188,1.463415,0.2048276,1.242084E-05,0.2048276,0
1.1907,-0.2348633,1.1907,0.9423828,1.1907,-0.2797852,1.1907,-4.573171,1.1907,4.146341,1.1907,2.134146,0.2052931,2.299535E-05,0.2052931,-7.217518E-06,1.1907,-0.1552734,1.1907,-0.9570313,1.1907,-0.3408203,1.1907,-1.158537,1.1907,2.134146,1.1907,1.52439,0.2052931,1.560998E-05,0.2052931,0
1.1934,-0.2368164,1.1934,0.9399414,1.1934,-0.2783203,1.1934,-4.634146,1.1934,4.390244,1.1934,2.134146,0.2057586,2.198825E-05,0.2057586,-6.881819E-06,1.1934,-0.1572266,1.1934,-0.956543,1.1934,-0.3378906,1.1934,-0.7926829,1.1934,2.134146,1.1934,1.585366,0.2057586,1.661708E-05,0.2057586,0
1.1961,-0.237793,1.1961,0.9423828,1.1961,-0.277832,1.1961,-4.45122,1.1961,4.329268,1.1961,2.012195,0.2062241,2.098116E-05,0.2062241,-6.210422E-06,1.1961,-0.1606445,1.1961,-0.9575195,1.1961,-0.3378906,1.1961,-0.7926829,1.1961,1.890244,1.1961,1.219512,0.2062241,1.460288E-05,0.2062241,0
1.1988,-0.2363281,1.1988,0.940918,1.1988,-0.2763672,1.1988,-4.390244,1.1988,4.02439,1.1988,1.829268,0.2066897,2.064546E-05,0.2066897,-5.874723E-06,1.1988,-0.1611328,1.1988,-0.9589844,1.1988,-0.3383789,1.1988,-1.219512,1.1988,2.439024,1.1988,1.52439,0.2066897,1.258869E-05,0.2066897,0
1.2015,-0.2348633,1.2015,0.9423828,1.2015,-0.2773438,1.2015,-4.512195,1.2015,4.390244,1.2015,1.890244,0.2071552,2.098116E-05,0.2071552,-5.706874E-06,1.2015,-0.1591797,1.2015,-0.9584961,1.2015,-0.3374023,1.2015,-1.036585,1.2015,2.256098,1.2015,1.52439,0.2071552,1.326009E-05,0.2071552,0
1.2042,-0.2392578,1.2042,0.9443359,1.2042,-0.2758789,1.2042,-4.390244,1.2042,3.963415,1.2042,1.95122,0.2076207,2.131685E-05,0.2076207,-6.881819E-06,1.2042,-0.1542969,1.2042,-0.9628906,1.2042,-0.3408203,1.2042,-0.9756098,1.2042,2.195122,1.2042,1.097561,0.2076207,1.359579E-05,0.2076207,0
1.2069,-0.2382813,1.2069,0.9423828,1.2069,-0.2783203,1.2069,-4.390244,1.2069,3.902439,1.2069,1.890244,0.2080862,2.316319E-05,0.2080862,-8.560311E-06,1.2069,-0.1547852,1.2069,-0.9619141,1.2069,-0.3408203,1.2069,-0.9146342,1.2069,2.256098,1.2069,1.097561,0.2080862,1.292439E-05,0.2080862,0
1.2096,-0.237793,1.2096,0.9428711,1.2096,-0.2792969,1.2096,-4.390244,1.2096,3.841464,1.2096,2.134146,0.2085517,2.400244E-05,0.2085517,-8.560311E-06,1.2096,-0.1572266,1.2096,-0.9614258,1.2096,-0.3374023,1.2096,-1.036585,1.2096,2.073171,1.2096,1.219512,0.2085517,1.258869E-05,0.2085517,0
1.2123,-0.2324219,1.2123,0.9428711,1.2123,-0.2792969,1.2123,-4.45122,1.2123,4.02439,1.2123,2.134146,0.2090172,2.333104E-05,0.2090172,-9.567407E-06,1.2123,-0.1572266,1.2123,-0.9599609,1.2123,-0.3369141,1.2123,-1.036585,1.2123,1.707317,1.2123,1.707317,0.2090172,1.258869E-05,0.2090172,0
1.215,-0.2329102,1.215,0.940918,1.215,-0.2792969,1.215,-4.512195,1.215,3.963415,1.215,1.829268,0.2094828,2.198825E-05,0.2094828,-1.107805E-05,1.215,-0.1606445,1.215,-0.9609375,1.215,-0.3398438,1.215,-0.9756098,1.215,2.073171,1.215,1.646341,0.2094828,1.292439E-05,0.2094828,0
1.2177,-0.2324219,1.2177,0.9423828,1.2177,-0.2802734,1.2177,-4.512195,1.2177,4.146341,1.2177,2.195122,0.2099483,2.333104E-05,0.2099483,-1.12459E-05,1.2177,-0.15625,1.2177,-0.9584961,1.2177,-0.3393555,1.2177,-0.8536586,1.2177,2.134146,1.2177,1.646341,0.2099483,1.258869E-05,0.2099483,0
1.2204,-0.2353516,1.2204,0.9418945,1.2204,-0.2783203,1.2204,-4.390244,1.2204,4.085366,1.2204,2.012195,0.2104138,2.433814E-05,0.2104138,-9.567407E-06,1.2204,-0.159668,1.2204,-0.9575195,1.2204,-0.3359375,1.2204,-0.9146342,1.2204,2.012195,1.2204,1.585366,0.2104138,1.19173E-05,0.2104138,0
1.2231,-0.2382813,1.2231,0.9399414,1.2231,-0.2744141,1.2231,-4.207317,1.2231,4.146341,1.2231,2.317073,0.2108793,2.500954E-05,0.2108793,-9.567407E-06,1.2231,-0.1630859,1.2231,-0.9584961,1.2231,-0.3393555,1.2231,-0.5487805,1.2231,1.95122,1.2231,1.52439,0.2108793,1.19173E-05,0.2108793,0
1.2258,-0.234375,1.2258,0.9394531,1.2258,-0.2773438,1.2258,-4.45122,1.2258,4.085366,1.2258,1.95122,0.2113448,2.400244E-05,0.2113448,-1.05745E-05,1.2258,-0.1606445,1.2258,-0.9609375,1.2258,-0.3300781,1.2258,-0.8536586,1.2258,2.073171,1.2258,1.52439,0.2113448,1.12459E-05,0.2113448,0
1.2285,-0.2333984,1.2285,0.9394531,1.2285,-0.2788086,1.2285,-4.45122,1.2285,4.02439,1.2285,1.768293,0.2118103,2.198825E-05,0.2118103,-1.107805E-05,1.2285,-0.15625,1.2285,-0.9633789,1.2285,-0.3349609,1.2285,-0.9146342,1.2285,1.95122,1.2285,1.52439,0.2118103,9.903105E-06,0.2118103,0
