X[s],"Avanti sensor 2: ACC.X 2",X[s],"Avanti sensor 2: ACC.Y 2",X[s],"Avanti sensor 2: ACC.Z 2",X[s],"Avanti sensor 2: GYRO.X 2",X[s],"Avanti sensor 2: GYRO.Y 2",X[s],"Avanti sensor 2: GYRO.Z 2",X[s],"L RECTUS FEMORIS: EMG 4",X[s],"L BICEPS FEMORIS: EMG 5",X[s],"Avanti sensor 7: ACC.X 7",X[s],"Avanti sensor 7: ACC.Y 7",X[s],"Avanti sensor 7: ACC.Z 7",X[s],"Avanti sensor 7: GYRO.X 7",X[s],"Avanti sensor 7: GYRO.Y 7",X[s],"Avanti sensor 7: GYRO.Z 7",X[s],"R RECTUS FEMORIS: EMG 10",X[s],"R BICEPS FEMORIS: EMG 15"
0.000000,0,0.000000,0,0.000000,0,0.000000,0,0.000000,0,0.000000,0,0.000000,0,0.000000,0,0.000000,0,0.000000,0,0.000000,0,0.000000,0,0.000000,0,0.000000,0,0.000000,0,0.000000,0
0.0027,0,0.0027,0,0.0027,0,0.0027,0,0.0027,0,0.0027,0,0.0004655172,0,0.0004655172,0,0.0027,0,0.0027,0,0.0027,0,0.0027,0,0.0027,0,0.0027,0,0.0004655172,0,0.0004655172,0
0.0054,0,0.0054,0,0.0054,0,0.0054,0,0.0054,0,0.0054,0,0.0009310344,0,0.0009310344,0,0.0054,0,0.0054,0,0.0054,0,0.0054,0,0.0054,0,0.0054,0,0.0009310344,0,0.0009310344,0
0.0081,0,0.0081,0,0.0081,0,0.0081,0,0.0081,0,0.0081,0,0.001396552,0,0.001396552,0,0.0081,0,0.0081,0,0.0081,0,0.0081,0,0.0081,0,0.0081,0,0.001396552,0,0.001396552,0
0.0108,0,0.0108,0,0.0108,0,0.0108,0,0.0108,0,0.0108,0,0.001862069,0,0.001862069,0,0.0108,0,0.0108,0,0.0108,0,0.0108,0,0.0108,0,0.0108,0,0.001862069,0,0.001862069,0
0.0135,0,0.0135,0,0.0135,0,0.0135,0,0.0135,0,0.0135,0,0.002327586,0,0.002327586,0,0.0135,0,0.0135,0,0.0135,0,0.0135,0,0.0135,0,0.0135,0,0.002327586,0,0.002327586,0
0.0162,0,0.0162,0,0.0162,0,0.0162,0,0.0162,0,0.0162,0,0.002793103,0,0.002793103,0,0.0162,0,0.0162,0,0.0162,0,0.0162,0,0.0162,0,0.0162,0,0.002793103,0,0.002793103,0
0.0189,0,0.0189,0,0.0189,0,0.0189,0,0.0189,0,0.0189,0,0.003258621,0,0.003258621,0,0.0189,0,0.0189,0,0.0189,0,0.0189,0,0.0189,0,0.0189,0,0.003258621,0,0.003258621,0
0.0216,0,0.0216,0,0.0216,0,0.0216,0,0.0216,0,0.0216,0,0.003724138,0,0.003724138,0,0.0216,0,0.0216,0,0.0216,0,0.0216,0,0.0216,0,0.0216,0,0.003724138,0,0.003724138,0
0.0243,0,0.0243,0,0.0243,0,0.0243,0,0.0243,0,0.0243,0,0.004189655,0,0.004189655,0,0.0243,0,0.0243,0,0.0243,0,0.0243,0,0.0243,0,0.0243,0,0.004189655,0,0.004189655,0
0.027,0,0.027,0,0.027,0,0.027,0,0.027,0,0.027,0,0.004655172,0,0.004655172,0,0.027,0,0.027,0,0.027,0,0.027,0,0.027,0,0.027,0,0.004655172,0,0.004655172,0
0.0297,0,0.0297,0,0.0297,0,0.0297,0,0.0297,0,0.0297,0,0.00512069,0,0.00512069,0,0.0297,0,0.0297,0,0.0297,0,0.0297,0,0.0297,0,0.0297,0,0.00512069,0,0.00512069,0
0.0324,0,0.0324,0,0.0324,0,0.0324,0,0.0324,0,0.0324,0,0.005586207,0,0.005586207,0,0.0324,0,0.0324,0,0.0324,0,0.0324,0,0.0324,0,0.0324,0,0.005586207,0,0.005586207,0
0.0351,0,0.0351,0,0.0351,0,0.0351,0,0.0351,0,0.0351,0,0.006051724,0,0.006051724,0,0.0351,0,0.0351,0,0.0351,0,0.0351,0,0.0351,0,0.0351,0,0.006051724,0,0.006051724,0
0.0378,0,0.0378,0,0.0378,0,0.0378,0,0.0378,0,0.0378,0,0.006517241,0,0.006517241,0,0.0378,0,0.0378,0,0.0378,0,0.0378,0,0.0378,0,0.0378,0,0.006517241,0,0.006517241,0
0.0405,0,0.0405,0,0.0405,0,0.0405,0,0.0405,0,0.0405,0,0.006982759,0,0.006982759,0,0.0405,0,0.0405,0,0.0405,0,0.0405,0,0.0405,0,0.0405,0,0.006982759,0,0.006982759,0
0.0432,0,0.0432,0,0.0432,0,0.0432,0,0.0432,0,0.0432,0,0.007448276,0,0.007448276,0,0.0432,0,0.0432,0,0.0432,0,0.0432,0,0.0432,0,0.0432,0,0.007448276,0,0.007448276,0
0.0459,0,0.0459,0,0.0459,0,0.0459,0,0.0459,0,0.0459,0,0.007913793,0,0.007913793,0,0.0459,0,0.0459,0,0.0459,0,0.0459,0,0.0459,0,0.0459,0,0.007913793,0,0.007913793,0
0.0486,0,0.0486,0,0.0486,0,0.0486,0,0.0486,0,0.0486,0,0.00837931,0,0.00837931,0,0.0486,0,0.0486,0,0.0486,0,0.0486,0,0.0486,0,0.0486,0,0.00837931,0,0.00837931,0
0.0513,0,0.0513,0,0.0513,0,0.0513,0,0.0513,0,0.0513,0,0.008844827,0,0.008844827,0,0.0513,0,0.0513,0,0.0513,0,0.0513,0,0.0513,0,0.0513,0,0.008844827,0,0.008844827,0
0.054,0,0.054,0,0.054,0,0.054,0,0.054,0,0.054,0,0.009310344,0,0.009310344,0,0.054,0,0.054,0,0.054,0,0.054,0,0.054,0,0.054,0,0.009310344,0,0.009310344,0
0.0567,0,0.0567,0,0.0567,0,0.0567,0,0.0567,0,0.0567,0,0.009775862,0,0.009775862,0,0.0567,0,0.0567,0,0.0567,0,0.0567,0,0.0567,0,0.0567,0,0.009775862,0,0.009775862,0
0.0594,0,0.0594,0,0.0594,0,0.0594,0,0.0594,0,0.0594,0,0.01024138,0,0.01024138,0,0.0594,0,0.0594,0,0.0594,0,0.0594,0,0.0594,0,0.0594,0,0.01024138,0,0.01024138,0
0.0621,0,0.0621,0,0.0621,0,0.0621,0,0.0621,0,0.0621,0,0.0107069,0,0.0107069,0,0.0621,0,0.0621,0,0.0621,0,0.0621,0,0.0621,0,0.0621,0,0.0107069,0,0.0107069,0
0.0648,0,0.0648,0,0.0648,0,0.0648,0,0.0648,0,0.0648,0,0.01117241,0,0.01117241,0,0.0648,0,0.0648,0,0.0648,0,0.0648,0,0.0648,0,0.0648,0,0.01117241,0,0.01117241,0
0.0675,0,0.0675,0,0.0675,0,0.0675,0,0.0675,0,0.0675,0,0.01163793,0,0.01163793,0,0.0675,0,0.0675,0,0.0675,0,0.0675,0,0.0675,0,0.0675,0,0.01163793,0,0.01163793,0
0.0702,0,0.0702,0,0.0702,0,0.0702,0,0.0702,0,0.0702,0,0.01210345,0,0.01210345,0,0.0702,0,0.0702,0,0.0702,0,0.0702,0,0.0702,0,0.0702,0,0.01210345,0,0.01210345,0
0.0729,0,0.0729,0,0.0729,0,0.0729,0,0.0729,0,0.0729,0,0.01256897,0,0.01256897,0,0.0729,0,0.0729,0,0.0729,0,0.0729,0,0.0729,0,0.0729,0,0.01256897,0,0.01256897,0
0.0756,0,0.0756,0,0.0756,0,0.0756,0,0.0756,0,0.0756,0,0.01303448,0,0.01303448,0,0.0756,0,0.0756,0,0.0756,0,0.0756,0,0.0756,0,0.0756,0,0.01303448,0,0.01303448,0
0.0783,0,0.0783,0,0.0783,0,0.0783,0,0.0783,0,0.0783,0,0.0135,0,0.0135,0,0.0783,0,0.0783,0,0.0783,0,0.0783,0,0.0783,0,0.0783,0,0.0135,0,0.0135,0
0.081,0,0.081,0,0.081,0,0.081,0,0.081,0,0.081,0,0.01396552,0,0.01396552,0,0.081,0,0.081,0,0.081,0,0.081,0,0.081,0,0.081,0,0.01396552,0,0.01396552,0
0.0837,0,0.0837,0,0.0837,0,0.0837,0,0.0837,0,0.0837,0,0.01443103,0,0.01443103,0,0.0837,0,0.0837,0,0.0837,0,0.0837,0,0.0837,0,0.0837,0,0.01443103,0,0.01443103,0
0.0864,0,0.0864,0,0.0864,0,0.0864,0,0.0864,0,0.0864,0,0.01489655,0,0.01489655,0,0.0864,0,0.0864,0,0.0864,0,0.0864,0,0.0864,0,0.0864,0,0.01489655,0,0.01489655,0
0.0891,0,0.0891,0,0.0891,0,0.0891,0,0.0891,0,0.0891,0,0.01536207,0,0.01536207,0,0.0891,0,0.0891,0,0.0891,0,0.0891,0,0.0891,0,0.0891,0,0.01536207,0,0.01536207,0
0.0918,0,0.0918,0,0.0918,0,0.0918,0,0.0918,0,0.0918,0,0.01582759,0,0.01582759,0,0.0918,0,0.0918,0,0.0918,0,0.0918,0,0.0918,0,0.0918,0,0.01582759,0,0.01582759,0
0.09450001,0,0.09450001,0,0.09450001,0,0.09450001,0,0.09450001,0,0.09450001,0,0.0162931,0,0.0162931,0,0.09450001,0,0.09450001,0,0.09450001,0,0.09450001,0,0.09450001,0,0.09450001,0,0.0162931,0,0.0162931,0
0.0972,0,0.0972,0,0.0972,0,0.0972,0,0.0972,0,0.0972,0,0.01675862,0,0.01675862,0,0.0972,0,0.0972,0,0.0972,0,0.0972,0,0.0972,0,0.0972,0,0.01675862,0,0.01675862,0
0.0999,0,0.0999,0,0.0999,0,0.0999,0,0.0999,0,0.0999,0,0.01722414,0,0.01722414,0,0.0999,0,0.0999,0,0.0999,0,0.0999,0,0.0999,0,0.0999,0,0.01722414,0,0.01722414,0
0.1026,0,0.1026,0,0.1026,0,0.1026,0,0.1026,0,0.1026,0,0.01768965,0,0.01768965,0,0.1026,0,0.1026,0,0.1026,0,0.1026,0,0.1026,0,0.1026,0,0.01768965,0,0.01768965,0
0.1053,0,0.1053,0,0.1053,0,0.1053,0,0.1053,0,0.1053,0,0.01815517,0,0.01815517,0,0.1053,0,0.1053,0,0.1053,0,0.1053,0,0.1053,0,0.1053,0,0.01815517,0,0.01815517,0
0.108,0.262207,0.108,-0.9638672,0.108,-0.168457,0.108,-0.2439024,0.108,6.585366,0.108,2.256098,0.01862069,0,0.01862069,0,0.108,-0.03320313,0.108,-0.9970703,0.108,-0.2045898,0.108,0.4268293,0.108,3.841464,0.108,1.341463,0.01862069,0,0.01862069,0
0.1107,0.2636719,0.1107,-0.9624023,0.1107,-0.1704102,0.1107,0,0.1107,6.52439,0.1107,2.256098,0.01908621,0,0.01908621,0,0.1107,-0.03710938,0.1107,-0.9970703,0.1107,-0.2036133,0.1107,0.2439024,0.1107,3.597561,0.1107,1.402439,0.01908621,0,0.01908621,0
0.1134,0.2675781,0.1134,-0.9599609,0.1134,-0.1757813,0.1134,-0.4268293,0.1134,6.402439,0.1134,2.073171,0.01955172,0,0.01955172,0,0.1134,-0.03076172,0.1134,-0.9995117,0.1134,-0.2006836,0.1134,0.2439024,0.1134,3.414634,0.1134,1.585366,0.01955172,0,0.01955172,0
0.1161,0.2626953,0.1161,-0.9619141,0.1161,-0.1772461,0.1161,-0.4878049,0.1161,6.158537,0.1161,1.829268,0.02001724,0,0.02001724,0,0.1161,-0.02929688,0.1161,-1,0.1161,-0.2016602,0.1161,0.4878049,0.1161,3.292683,0.1161,1.219512,0.02001724,0,0.02001724,0
0.1188,0.2636719,0.1188,-0.9614258,0.1188,-0.1801758,0.1188,-0.7317073,0.1188,6.158537,0.1188,1.890244,0.02048276,0,0.02048276,0,0.1188,-0.03173828,0.1188,-1.00293,0.1188,-0.1953125,0.1188,0.4878049,0.1188,3.04878,0.1188,1.402439,0.02048276,0,0.02048276,0
0.1215,0.2641602,0.1215,-0.9614258,0.1215,-0.175293,0.1215,-0.9756098,0.1215,6.097561,0.1215,2.073171,0.02094828,0,0.02094828,0,0.1215,-0.03027344,0.1215,-1.009766,0.1215,-0.1987305,0.1215,0.7317073,0.1215,2.804878,0.1215,1.341463,0.02094828,0,0.02094828,0
0.1242,0.2612305,0.1242,-0.9599609,0.1242,-0.175293,0.1242,-0.8536586,0.1242,5.853659,0.1242,1.768293,0.02141379,0,0.02141379,0,0.1242,-0.03222656,0.1242,-1.007324,0.1242,-0.1967773,0.1242,0.9146342,0.1242,2.621951,0.1242,1.158537,0.02141379,0,0.02141379,0
0.1269,0.2646484,0.1269,-0.9624023,0.1269,-0.1796875,0.1269,-1.158537,0.1269,5.426829,0.1269,1.829268,0.02187931,0,0.02187931,0,0.1269,-0.04248047,0.1269,-1.018066,0.1269,-0.1943359,0.1269,0.6707317,0.1269,2.5,0.1269,1.341463,0.02187931,0,0.02187931,0
0.1296,0.2646484,0.1296,-0.9624023,0.1296,-0.1791992,0.1296,-1.158537,0.1296,5.365854,0.1296,1.890244,0.02234483,0,0.02234483,0,0.1296,-0.03222656,0.1296,-1.007813,0.1296,-0.1962891,0.1296,1.158537,0.1296,1.95122,0.1296,1.158537,0.02234483,0,0.02234483,0
0.1323,0.2670898,0.1323,-0.9614258,0.1323,-0.1791992,0.1323,-1.280488,0.1323,5.182927,0.1323,1.646341,0.02281034,0,0.02281034,0,0.1323,-0.02685547,0.1323,-0.9975586,0.1323,-0.1982422,0.1323,1.341463,0.1323,1.402439,0.1323,1.036585,0.02281034,0,0.02281034,0
0.135,0.269043,0.135,-0.9609375,0.135,-0.1777344,0.135,-1.219512,0.135,4.756098,0.135,1.646341,0.02327586,0,0.02327586,0,0.135,-0.02685547,0.135,-0.9970703,0.135,-0.2036133,0.135,0.9146342,0.135,1.463415,0.135,0.9756098,0.02327586,0,0.02327586,0
0.1377,0.2700195,0.1377,-0.9594727,0.1377,-0.1806641,0.1377,-1.52439,0.1377,4.939024,0.1377,1.52439,0.02374138,0,0.02374138,0,0.1377,-0.02734375,0.1377,-0.9995117,0.1377,-0.2099609,0.1377,0.6097561,0.1377,1.52439,0.1377,0.9756098,0.02374138,0,0.02374138,0
0.1404,0.2724609,0.1404,-0.9580078,0.1404,-0.1782227,0.1404,-1.829268,0.1404,4.878049,0.1404,1.158537,0.0242069,0,0.0242069,0,0.1404,-0.03222656,0.1404,-0.9951172,0.1404,-0.2104492,0.1404,0.6097561,0.1404,1.829268,0.1404,1.036585,0.0242069,0,0.0242069,0
0.1431,0.269043,0.1431,-0.9580078,0.1431,-0.1801758,0.1431,-2.073171,0.1431,4.817073,0.1431,1.463415,0.02467241,0,0.02467241,0,0.1431,-0.02929688,0.1431,-1.000977,0.1431,-0.2060547,0.1431,0.6097561,0.1431,1.890244,0.1431,1.280488,0.02467241,0,0.02467241,0
0.1458,0.2680664,0.1458,-0.9594727,0.1458,-0.1762695,0.1458,-2.134146,0.1458,4.512195,0.1458,1.463415,0.02513793,0,0.02513793,0,0.1458,-0.03027344,0.1458,-0.9985352,0.1458,-0.2055664,0.1458,0.7317073,0.1458,2.195122,0.1458,1.219512,0.02513793,0,0.02513793,0
0.1485,0.2700195,0.1485,-0.9555664,0.1485,-0.1801758,0.1485,-2.134146,0.1485,4.146341,0.1485,1.341463,0.02560345,0,0.02560345,0,0.1485,-0.02880859,0.1485,-0.9931641,0.1485,-0.2099609,0.1485,0.5487805,0.1485,2.256098,0.1485,1.158537,0.02560345,0,0.02560345,0
0.1512,0.2675781,0.1512,-0.9555664,0.1512,-0.1801758,0.1512,-2.195122,0.1512,4.146341,0.1512,1.158537,0.02606896,0,0.02606896,0,0.1512,-0.03271484,0.1512,-0.9912109,0.1512,-0.2114258,0.1512,0.7317073,0.1512,2.195122,0.1512,1.280488,0.02606896,0,0.02606896,0
0.1539,0.269043,0.1539,-0.9560547,0.1539,-0.1772461,0.1539,-2.317073,0.1539,3.719512,0.1539,0.9756098,0.02653448,0,0.02653448,0,0.1539,-0.02685547,0.1539,-0.9902344,0.1539,-0.2163086,0.1539,0.9146342,0.1539,2.256098,0.1539,0.9146342,0.02653448,0,0.02653448,0
0.1566,0.2626953,0.1566,-0.956543,0.1566,-0.1757813,0.1566,-2.317073,0.1566,3.597561,0.1566,1.036585,0.027,0,0.027,0,0.1566,-0.02880859,0.1566,-0.9902344,0.1566,-0.2177734,0.1566,1.158537,0.1566,1.890244,0.1566,1.158537,0.027,0,0.027,0
0.1593,0.2617188,0.1593,-0.9599609,0.1593,-0.1738281,0.1593,-2.560976,0.1593,3.47561,0.1593,0.9756098,0.02746552,0,0.02746552,0,0.1593,-0.02392578,0.1593,-0.9916992,0.1593,-0.2084961,0.1593,1.158537,0.1593,2.012195,0.1593,1.219512,0.02746552,0,0.02746552,0
0.162,0.2646484,0.162,-0.9575195,0.162,-0.1655273,0.162,-2.195122,0.162,3.47561,0.162,1.097561,0.02793103,0,0.02793103,0,0.162,-0.02490234,0.162,-0.9907227,0.162,-0.2099609,0.162,1.52439,0.162,2.012195,0.162,0.9756098,0.02793103,0,0.02793103,0
0.1647,0.2607422,0.1647,-0.956543,0.1647,-0.1650391,0.1647,-2.134146,0.1647,3.47561,0.1647,1.341463,0.02839655,0,0.02839655,0,0.1647,-0.02636719,0.1647,-0.996582,0.1647,-0.2080078,0.1647,1.829268,0.1647,2.134146,0.1647,1.341463,0.02839655,0,0.02839655,0
0.1674,0.2607422,0.1674,-0.9589844,0.1674,-0.1689453,0.1674,-2.012195,0.1674,3.109756,0.1674,1.646341,0.02886207,0,0.02886207,0,0.1674,-0.02832031,0.1674,-0.9887695,0.1674,-0.206543,0.1674,1.585366,0.1674,1.890244,0.1674,1.341463,0.02886207,0,0.02886207,0
0.1701,0.2612305,0.1701,-0.9609375,0.1701,-0.1699219,0.1701,-2.073171,0.1701,3.04878,0.1701,1.463415,0.02932759,0,0.02932759,0,0.1701,-0.02929688,0.1701,-0.9848633,0.1701,-0.2128906,0.1701,1.402439,0.1701,2.012195,0.1701,0.9146342,0.02932759,0,0.02932759,0
0.1728,0.2641602,0.1728,-0.9682617,0.1728,-0.1728516,0.1728,-2.134146,0.1728,2.621951,0.1728,1.52439,0.0297931,0,0.0297931,0,0.1728,-0.02685547,0.1728,-0.9936523,0.1728,-0.2133789,0.1728,1.341463,0.1728,1.890244,0.1728,1.097561,0.0297931,0,0.0297931,0
0.1755,0.2646484,0.1755,-0.9667969,0.1755,-0.1723633,0.1755,-1.95122,0.1755,2.317073,0.1755,1.463415,0.03025862,0,0.03025862,0,0.1755,-0.02734375,0.1755,-0.996582,0.1755,-0.2109375,0.1755,1.219512,0.1755,1.707317,0.1755,0.8536586,0.03025862,0,0.03025862,0
0.1782,0.2631836,0.1782,-0.9692383,0.1782,-0.1728516,0.1782,-2.012195,0.1782,2.195122,0.1782,1.585366,0.03072414,0,0.03072414,0,0.1782,-0.02587891,0.1782,-0.9995117,0.1782,-0.2104492,0.1782,1.585366,0.1782,1.52439,0.1782,1.158537,0.03072414,0,0.03072414,0
0.1809,0.2626953,0.1809,-0.9731445,0.1809,-0.1743164,0.1809,-1.52439,0.1809,2.5,0.1809,1.402439,0.03118965,0,0.03118965,0,0.1809,-0.02587891,0.1809,-0.9995117,0.1809,-0.2128906,0.1809,1.280488,0.1809,1.280488,0.1809,1.219512,0.03118965,0,0.03118965,0
0.1836,0.2602539,0.1836,-0.9726563,0.1836,-0.1777344,0.1836,-1.707317,0.1836,2.317073,0.1836,1.585366,0.03165517,0,0.03165517,0,0.1836,-0.02685547,0.1836,-1.005371,0.1836,-0.206543,0.1836,0.9756098,0.1836,1.158537,0.1836,0.7926829,0.03165517,0,0.03165517,0
0.1863,0.2626953,0.1863,-0.9702148,0.1863,-0.175293,0.1863,-1.646341,0.1863,2.256098,0.1863,1.585366,0.03212069,0,0.03212069,0,0.1863,-0.02685547,0.1863,-1.003906,0.1863,-0.2060547,0.1863,0.7926829,0.1863,0.8536586,0.1863,0.6097561,0.03212069,0,0.03212069,0
0.189,0.2602539,0.189,-0.9711914,0.189,-0.1772461,0.189,-1.585366,0.189,2.195122,0.189,1.829268,0.03258621,0,0.03258621,0,0.189,-0.02734375,0.189,-0.9995117,0.189,-0.2041016,0.189,0.9756098,0.189,1.341463,0.189,0.5487805,0.03258621,0,0.03258621,0
0.1917,0.2543945,0.1917,-0.9746094,0.1917,-0.1743164,0.1917,-1.52439,0.1917,2.195122,0.1917,1.829268,0.03305172,0,0.03305172,0,0.1917,-0.03417969,0.1917,-0.9975586,0.1917,-0.203125,0.1917,0.7317073,0.1917,1.158537,0.1917,0.1829268,0.03305172,0,0.03305172,0
0.1944,0.2558594,0.1944,-0.9770508,0.1944,-0.1772461,0.1944,-1.768293,0.1944,2.256098,0.1944,1.768293,0.03351724,0,0.03351724,0,0.1944,-0.03710938,0.1944,-1.000977,0.1944,-0.2041016,0.1944,0.5487805,0.1944,1.280488,0.1944,0.3048781,0.03351724,0,0.03351724,0
0.1971,0.2563477,0.1971,-0.9736328,0.1971,-0.1704102,0.1971,-1.52439,0.1971,2.256098,0.1971,1.646341,0.03398276,0,0.03398276,0,0.1971,-0.03613281,0.1971,-1.00293,0.1971,-0.2041016,0.1971,0.3658537,0.1971,1.158537,0.1971,0,0.03398276,0,0.03398276,0
0.1998,0.2543945,0.1998,-0.9711914,0.1998,-0.1689453,0.1998,-1.341463,0.1998,2.195122,0.1998,1.463415,0.03444827,0,0.03444827,0,0.1998,-0.03613281,0.1998,-1.001953,0.1998,-0.2050781,0.1998,-0.06097561,0.1998,0.7317073,0.1998,0.1219512,0.03444827,0,0.03444827,0
0.2025,0.2553711,0.2025,-0.9702148,0.2025,-0.1689453,0.2025,-1.158537,0.2025,2.5,0.2025,1.707317,0.03491379,0,0.03491379,0,0.2025,-0.03955078,0.2025,-1.003418,0.2025,-0.2021484,0.2025,-0.1829268,0.2025,0.4268293,0.2025,0.4268293,0.03491379,0,0.03491379,0
0.2052,0.253418,0.2052,-0.9711914,0.2052,-0.1713867,0.2052,-1.158537,0.2052,2.439024,0.2052,1.585366,0.03537931,0,0.03537931,0,0.2052,-0.03759766,0.2052,-1.005371,0.2052,-0.2011719,0.2052,0.1219512,0.2052,0.4268293,0.2052,0.3658537,0.03537931,0,0.03537931,0
0.2079,0.2573242,0.2079,-0.9663086,0.2079,-0.1679688,0.2079,-1.097561,0.2079,2.621951,0.2079,1.097561,0.03584483,0,0.03584483,0,0.2079,-0.03808594,0.2079,-1.003906,0.2079,-0.2055664,0.2079,0.1829268,0.2079,0.6097561,0.2079,0.4878049,0.03584483,0,0.03584483,0
0.2106,0.2607422,0.2106,-0.9633789,0.2106,-0.1606445,0.2106,-1.402439,0.2106,2.621951,0.2106,1.097561,0.03631034,0,0.03631034,0,0.2106,-0.03808594,0.2106,-0.9985352,0.2106,-0.206543,0.2106,-0.1219512,0.2106,0.7317073,0.2106,0.4268293,0.03631034,0,0.03631034,0
0.2133,0.2592773,0.2133,-0.9663086,0.2133,-0.1630859,0.2133,-1.280488,0.2133,2.682927,0.2133,1.097561,0.03677586,0,0.03677586,0,0.2133,-0.03613281,0.2133,-0.9970703,0.2133,-0.2055664,0.2133,-0.3048781,0.2133,0.8536586,0.2133,0.4878049,0.03677586,0,0.03677586,0
0.216,0.2597656,0.216,-0.9677734,0.216,-0.159668,0.216,-1.52439,0.216,2.378049,0.216,0.8536586,0.03724138,0,0.03724138,0,0.216,-0.03466797,0.216,-0.9931641,0.216,-0.2045898,0.216,-0.06097561,0.216,0.9756098,0.216,0.3658537,0.03724138,0,0.03724138,0
0.2187,0.2602539,0.2187,-0.9633789,0.2187,-0.1601563,0.2187,-1.585366,0.2187,2.439024,0.2187,0.8536586,0.0377069,0,0.0377069,0,0.2187,-0.03564453,0.2187,-0.9936523,0.2187,-0.2089844,0.2187,-0.1219512,0.2187,0.7926829,0.2187,0.1829268,0.0377069,0,0.0377069,0
0.2214,0.262207,0.2214,-0.9633789,0.2214,-0.1567383,0.2214,-1.585366,0.2214,2.256098,0.2214,0.7926829,0.03817241,0,0.03817241,0,0.2214,-0.03417969,0.2214,-0.9931641,0.2214,-0.2124023,0.2214,-0.2439024,0.2214,0.3658537,0.2214,0.4878049,0.03817241,0,0.03817241,0
0.2241,0.2626953,0.2241,-0.9619141,0.2241,-0.1601563,0.2241,-1.829268,0.2241,2.195122,0.2241,0.6707317,0.03863793,0,0.03863793,0,0.2241,-0.03515625,0.2241,-0.9951172,0.2241,-0.2138672,0.2241,-0.3658537,0.2241,0.3658537,0.2241,0.3658537,0.03863793,0,0.03863793,0
0.2268,0.2578125,0.2268,-0.9550781,0.2268,-0.1625977,0.2268,-2.5,0.2268,1.890244,0.2268,0.4268293,0.03910345,0,0.03910345,0,0.2268,-0.02978516,0.2268,-0.9941406,0.2268,-0.2119141,0.2268,-0.06097561,0.2268,0.1219512,0.2268,0.3658537,0.03910345,0,0.03910345,0
0.2295,0.2597656,0.2295,-0.9575195,0.2295,-0.1586914,0.2295,-2.439024,0.2295,1.890244,0.2295,0.3658537,0.03956896,0,0.03956896,0,0.2295,-0.03076172,0.2295,-0.9970703,0.2295,-0.2075195,0.2295,-0.06097561,0.2295,-0.1829268,0.2295,0.4878049,0.03956896,0,0.03956896,0
0.2322,0.2631836,0.2322,-0.9628906,0.2322,-0.1665039,0.2322,-2.378049,0.2322,1.52439,0.2322,0.1829268,0.04003448,0,0.04003448,0,0.2322,-0.02685547,0.2322,-0.996582,0.2322,-0.2094727,0.2322,0.3658537,0.2322,-0.6707317,0.2322,0.5487805,0.04003448,0,0.04003448,0
0.2349,0.2651367,0.2349,-0.9658203,0.2349,-0.1621094,0.2349,-2.378049,0.2349,1.097561,0.2349,0.4268293,0.0405,0,0.0405,0,0.2349,-0.02783203,0.2349,-0.9941406,0.2349,-0.203125,0.2349,0.1219512,0.2349,-0.7317073,0.2349,0.5487805,0.0405,0,0.0405,0
0.2376,0.2641602,0.2376,-0.9614258,0.2376,-0.1625977,0.2376,-2.439024,0.2376,0.9146342,0.2376,0.6097561,0.04096552,0,0.04096552,0,0.2376,-0.02294922,0.2376,-0.9931641,0.2376,-0.2055664,0.2376,0.06097561,0.2376,-1.158537,0.2376,0.3048781,0.04096552,0,0.04096552,0
0.2403,0.2670898,0.2403,-0.965332,0.2403,-0.1572266,0.2403,-2.5,0.2403,0.9756098,0.2403,0.1829268,0.04143103,0,0.04143103,0,0.2403,-0.01953125,0.2403,-0.9956055,0.2403,-0.2055664,0.2403,0.2439024,0.2403,-1.097561,0.2403,0.3048781,0.04143103,0,0.04143103,0
0.243,0.2675781,0.243,-0.9667969,0.243,-0.1538086,0.243,-2.317073,0.243,0.9146342,0.243,0.06097561,0.04189655,0,0.04189655,0,0.243,-0.02001953,0.243,-0.9990234,0.243,-0.2089844,0.243,-0.1829268,0.243,-1.219512,0.243,0.6707317,0.04189655,0,0.04189655,0
0.2457,0.2641602,0.2457,-0.9619141,0.2457,-0.1523438,0.2457,-2.195122,0.2457,1.280488,0.2457,0.2439024,0.04236207,0,0.04236207,0,0.2457,-0.01904297,0.2457,-0.996582,0.2457,-0.2089844,0.2457,0.06097561,0.2457,-1.463415,0.2457,0.4878049,0.04236207,0,0.04236207,0
0.2484,0.2646484,0.2484,-0.9624023,0.2484,-0.1499023,0.2484,-2.073171,0.2484,1.036585,0.2484,0.4878049,0.04282758,0,0.04282758,0,0.2484,-0.02099609,0.2484,-0.9936523,0.2484,-0.2075195,0.2484,0.3048781,0.2484,-1.097561,0.2484,0.6707317,0.04282758,0,0.04282758,0
0.2511,0.2685547,0.2511,-0.965332,0.2511,-0.1503906,0.2511,-2.378049,0.2511,1.646341,0.2511,0.1829268,0.0432931,0,0.0432931,0,0.2511,-0.02050781,0.2511,-0.9926758,0.2511,-0.2016602,0.2511,0.1829268,0.2511,-1.341463,0.2511,0.3658537,0.0432931,0,0.0432931,0
0.2538,0.2675781,0.2538,-0.96875,0.2538,-0.1484375,0.2538,-2.073171,0.2538,1.707317,0.2538,0.1829268,0.04375862,0,0.04375862,0,0.2538,-0.02099609,0.2538,-0.9985352,0.2538,-0.2036133,0.2538,0.06097561,0.2538,-1.463415,0.2538,0.4878049,0.04375862,0,0.04375862,0
0.2565,0.2705078,0.2565,-0.9692383,0.2565,-0.144043,0.2565,-2.378049,0.2565,1.280488,0.2565,0.6097561,0.04422414,0,0.04422414,0,0.2565,-0.02294922,0.2565,-0.9975586,0.2565,-0.203125,0.2565,-0.1219512,0.2565,-1.280488,0.2565,0.4268293,0.04422414,0,0.04422414,0
0.2592,0.269043,0.2592,-0.9672852,0.2592,-0.1450195,0.2592,-2.073171,0.2592,1.402439,0.2592,0.3658537,0.04468966,0,0.04468966,0,0.2592,-0.02001953,0.2592,-1.002441,0.2592,-0.1967773,0.2592,0.1219512,0.2592,-1.219512,0.2592,0.5487805,0.04468966,0,0.04468966,0
0.2619,0.2739258,0.2619,-0.9677734,0.2619,-0.1445313,0.2619,-1.707317,0.2619,1.402439,0.2619,0.5487805,0.04515517,0,0.04515517,0,0.2619,-0.01904297,0.2619,-0.9975586,0.2619,-0.1953125,0.2619,-0.2439024,0.2619,-1.097561,0.2619,0.3048781,0.04515517,0,0.04515517,0
0.2646,0.2729492,0.2646,-0.9658203,0.2646,-0.1489258,0.2646,-2.134146,0.2646,1.52439,0.2646,0.2439024,0.04562069,0,0.04562069,0,0.2646,-0.0234375,0.2646,-0.9990234,0.2646,-0.1982422,0.2646,-0.1219512,0.2646,-1.036585,0.2646,0.06097561,0.04562069,0,0.04562069,0
0.2673,0.2724609,0.2673,-0.96875,0.2673,-0.1464844,0.2673,-2.378049,0.2673,1.341463,0.2673,0.5487805,0.04608621,0,0.04608621,0,0.2673,-0.02783203,0.2673,-1.001953,0.2673,-0.1977539,0.2673,-0.1829268,0.2673,-0.7926829,0.2673,0.2439024,0.04608621,0,0.04608621,0
0.27,0.2734375,0.27,-0.965332,0.27,-0.1425781,0.27,-2.317073,0.27,1.097561,0.27,0.5487805,0.04655172,0,0.04655172,0,0.27,-0.02783203,0.27,-1,0.27,-0.190918,0.27,-0.2439024,0.27,-0.4878049,0.27,-0.2439024,0.04655172,0,0.04655172,0
0.2727,0.2724609,0.2727,-0.9643555,0.2727,-0.1459961,0.2727,-2.317073,0.2727,1.158537,0.2727,0.5487805,0.04701724,0,0.04701724,0,0.2727,-0.02978516,0.2727,-1.002441,0.2727,-0.1904297,0.2727,-0.3658537,0.2727,-0.06097561,0.2727,0.1829268,0.04701724,0,0.04701724,0
0.2754,0.2724609,0.2754,-0.9672852,0.2754,-0.1455078,0.2754,-2.256098,0.2754,1.097561,0.2754,0.5487805,0.04748276,0,0.04748276,0,0.2754,-0.02636719,0.2754,-0.9985352,0.2754,-0.1933594,0.2754,-0.2439024,0.2754,-0.06097561,0.2754,0.1219512,0.04748276,0,0.04748276,0
0.2781,0.2709961,0.2781,-0.9643555,0.2781,-0.1469727,0.2781,-2.256098,0.2781,0.7317073,0.2781,0.6097561,0.04794827,0,0.04794827,0,0.2781,-0.02685547,0.2781,-1.001953,0.2781,-0.1958008,0.2781,0,0.2781,0.06097561,0.2781,0.1219512,0.04794827,0,0.04794827,0
0.2808,0.2709961,0.2808,-0.9628906,0.2808,-0.1523438,0.2808,-1.890244,0.2808,0.2439024,0.2808,0.7317073,0.04841379,0,0.04841379,0,0.2808,-0.02441406,0.2808,-1.005859,0.2808,-0.199707,0.2808,0.1219512,0.2808,0.2439024,0.2808,0.1829268,0.04841379,0,0.04841379,0
0.2835,0.2753906,0.2835,-0.9628906,0.2835,-0.1533203,0.2835,-1.768293,0.2835,0.2439024,0.2835,0.5487805,0.04887931,0,0.04887931,0,0.2835,-0.02734375,0.2835,-1.004883,0.2835,-0.1982422,0.2835,0.06097561,0.2835,0,0.2835,0.06097561,0.04887931,0,0.04887931,0
0.2862,0.2709961,0.2862,-0.965332,0.2862,-0.1484375,0.2862,-2.195122,0.2862,-0.06097561,0.2862,0.9756098,0.04934483,0,0.04934483,0,0.2862,-0.02734375,0.2862,-1.001465,0.2862,-0.1987305,0.2862,0.4268293,0.2862,0.2439024,0.2862,0,0.04934483,0,0.04934483,0
0.2889,0.2661133,0.2889,-0.9624023,0.2889,-0.1489258,0.2889,-2.073171,0.2889,0.1219512,0.2889,0.7317073,0.04981034,0,0.04981034,0,0.2889,-0.02783203,0.2889,-1.000488,0.2889,-0.1987305,0.2889,0.4268293,0.2889,-0.1219512,0.2889,0.06097561,0.04981034,0,0.04981034,0
0.2916,0.2612305,0.2916,-0.9609375,0.2916,-0.1479492,0.2916,-2.560976,0.2916,0.06097561,0.2916,0.5487805,0.05027586,0,0.05027586,0,0.2916,-0.02148438,0.2916,-1,0.2916,-0.2036133,0.2916,0.7317073,0.2916,0.2439024,0.2916,0.1829268,0.05027586,0,0.05027586,0
0.2943,0.2651367,0.2943,-0.9604492,0.2943,-0.1464844,0.2943,-2.5,0.2943,0.1829268,0.2943,0.7926829,0.05074138,0,0.05074138,0,0.2943,-0.02246094,0.2943,-1.00293,0.2943,-0.203125,0.2943,0.3658537,0.2943,0.1829268,0.2943,0.1829268,0.05074138,0,0.05074138,0
0.297,0.269043,0.297,-0.9643555,0.297,-0.1484375,0.297,-2.378049,0.297,0.3048781,0.297,0.6707317,0.05120689,0,0.05120689,0,0.297,-0.01757813,0.297,-1.000488,0.297,-0.2055664,0.297,-0.06097561,0.297,0.1219512,0.297,0.4878049,0.05120689,0,0.05120689,0
0.2997,0.2685547,0.2997,-0.9648438,0.2997,-0.1499023,0.2997,-2.804878,0.2997,0.1219512,0.2997,0.8536586,0.05167241,0,0.05167241,0,0.2997,-0.02050781,0.2997,-1.001465,0.2997,-0.2084961,0.2997,-0.1829268,0.2997,0,0.2997,0.6707317,0.05167241,0,0.05167241,0
0.3024,0.2641602,0.3024,-0.9633789,0.3024,-0.1479492,0.3024,-3.04878,0.3024,0.1219512,0.3024,0.7926829,0.05213793,0,0.05213793,0,0.3024,-0.02099609,0.3024,-1.000488,0.3024,-0.2084961,0.3024,-0.3658537,0.3024,-0.5487805,0.3024,0.4268293,0.05213793,0,0.05213793,0
0.3051,0.2675781,0.3051,-0.9648438,0.3051,-0.1464844,0.3051,-2.804878,0.3051,0.1219512,0.3051,0.9146342,0.05260345,0,0.05260345,0,0.3051,-0.01464844,0.3051,-1.00293,0.3051,-0.2060547,0.3051,-0.5487805,0.3051,-0.3658537,0.3051,0.5487805,0.05260345,0,0.05260345,0
0.3078,0.2651367,0.3078,-0.96875,0.3078,-0.1464844,0.3078,-2.804878,0.3078,0,0.3078,1.036585,0.05306897,0,0.05306897,0,0.3078,-0.01611328,0.3078,-1.002441,0.3078,-0.2084961,0.3078,-0.5487805,0.3078,-0.3658537,0.3078,0.4268293,0.05306897,0,0.05306897,0
0.3105,0.2670898,0.3105,-0.96875,0.3105,-0.1479492,0.3105,-2.621951,0.3105,-0.1219512,0.3105,1.036585,0.05353448,0,0.05353448,0,0.3105,-0.01464844,0.3105,-1,0.3105,-0.2084961,0.3105,-0.3658537,0.3105,-0.06097561,0.3105,0.4878049,0.05353448,0,0.05353448,0
0.3132,0.2700195,0.3132,-0.9697266,0.3132,-0.1469727,0.3132,-2.5,0.3132,-0.5487805,0.3132,1.158537,0.054,0,0.054,0,0.3132,-0.01464844,0.3132,-0.9995117,0.3132,-0.2089844,0.3132,-0.1829268,0.3132,-0.06097561,0.3132,0.5487805,0.054,0,0.054,0
0.3159,0.2724609,0.3159,-0.96875,0.3159,-0.1416016,0.3159,-2.317073,0.3159,-0.4878049,0.3159,1.341463,0.05446552,0,0.05446552,0,0.3159,-0.006347656,0.3159,-1.002441,0.3159,-0.2050781,0.3159,0,0.3159,0.1829268,0.3159,0.3658537,0.05446552,0,0.05446552,0
0.3186,0.2734375,0.3186,-0.9682617,0.3186,-0.1401367,0.3186,-2.012195,0.3186,-0.6097561,0.3186,1.158537,0.05493103,0,0.05493103,0,0.3186,-0.006835938,0.3186,-1.001953,0.3186,-0.2045898,0.3186,-0.1219512,0.3186,0.06097561,0.3186,0.4268293,0.05493103,0,0.05493103,0
0.3213,0.269043,0.3213,-0.9677734,0.3213,-0.1416016,0.3213,-1.280488,0.3213,-0.5487805,0.3213,1.341463,0.05539655,0,0.05539655,0,0.3213,-0.01074219,0.3213,-0.9980469,0.3213,-0.2060547,0.3213,0.3658537,0.3213,0.4268293,0.3213,0.5487805,0.05539655,0,0.05539655,0
0.324,0.2719727,0.324,-0.9697266,0.324,-0.1396484,0.324,-1.097561,0.324,-0.2439024,0.324,1.158537,0.05586207,0,0.05586207,0,0.324,-0.01025391,0.324,-0.9951172,0.324,-0.2060547,0.324,0.06097561,0.324,0.2439024,0.324,0.5487805,0.05586207,0,0.05586207,0
0.3267,0.2700195,0.3267,-0.972168,0.3267,-0.1435547,0.3267,-0.9756098,0.3267,-0.1829268,0.3267,1.036585,0.05632759,0,0.05632759,0,0.3267,-0.01220703,0.3267,-0.9980469,0.3267,-0.2016602,0.3267,-0.06097561,0.3267,0.4268293,0.3267,0.6707317,0.05632759,0,0.05632759,0
0.3294,0.2661133,0.3294,-0.9736328,0.3294,-0.1352539,0.3294,-0.7317073,0.3294,0.1219512,0.3294,1.036585,0.0567931,0,0.0567931,0,0.3294,-0.01269531,0.3294,-0.9970703,0.3294,-0.2026367,0.3294,-0.1829268,0.3294,0.4268293,0.3294,0.3048781,0.0567931,0,0.0567931,0
0.3321,0.2666016,0.3321,-0.9726563,0.3321,-0.1347656,0.3321,-0.7926829,0.3321,0.2439024,0.3321,1.341463,0.05725862,0,0.05725862,0,0.3321,-0.01171875,0.3321,-0.996582,0.3321,-0.2026367,0.3321,-0.3658537,0.3321,0.4878049,0.3321,0.3658537,0.05725862,0,0.05725862,0
0.3348,0.2666016,0.3348,-0.9731445,0.3348,-0.1328125,0.3348,-0.6097561,0.3348,0.7926829,0.3348,0.9146342,0.05772414,0,0.05772414,0,0.3348,-0.01123047,0.3348,-0.9995117,0.3348,-0.2021484,0.3348,0,0.3348,0.6097561,0.3348,0.2439024,0.05772414,0,0.05772414,0
0.3375,0.2675781,0.3375,-0.9707031,0.3375,-0.1333008,0.3375,-0.7317073,0.3375,0.9756098,0.3375,1.158537,0.05818965,0,0.05818965,0,0.3375,-0.009765625,0.3375,-0.9980469,0.3375,-0.2070313,0.3375,0.06097561,0.3375,0.8536586,0.3375,0.4878049,0.05818965,0,0.05818965,0
0.3402,0.2709961,0.3402,-0.9682617,0.3402,-0.1328125,0.3402,-1.036585,0.3402,1.280488,0.3402,1.219512,0.05865517,0,0.05865517,0,0.3402,-0.01464844,0.3402,-0.9975586,0.3402,-0.2050781,0.3402,0.06097561,0.3402,0.9756098,0.3402,0.2439024,0.05865517,0,0.05865517,0
0.3429,0.2724609,0.3429,-0.9682617,0.3429,-0.1318359,0.3429,-1.219512,0.3429,1.463415,0.3429,1.158537,0.05912069,0,0.05912069,0,0.3429,-0.01416016,0.3429,-0.9975586,0.3429,-0.2080078,0.3429,0.06097561,0.3429,0.9146342,0.3429,0.4878049,0.05912069,0,0.05912069,0
0.3456,0.2646484,0.3456,-0.9677734,0.3456,-0.1323242,0.3456,-1.341463,0.3456,1.402439,0.3456,0.9756098,0.0595862,0,0.0595862,0,0.3456,-0.015625,0.3456,-1.001953,0.3456,-0.2070313,0.3456,0.3048781,0.3456,0.7317073,0.3456,0.4878049,0.0595862,0,0.0595862,0
0.3483,0.2734375,0.3483,-0.9643555,0.3483,-0.1298828,0.3483,-1.280488,0.3483,1.829268,0.3483,0.7926829,0.06005172,0,0.06005172,0,0.3483,-0.01416016,0.3483,-0.9990234,0.3483,-0.2036133,0.3483,0.3658537,0.3483,1.219512,0.3483,0.3658537,0.06005172,0,0.06005172,0
0.351,0.2753906,0.351,-0.9648438,0.351,-0.1323242,0.351,-1.463415,0.351,1.768293,0.351,0.9756098,0.06051724,0,0.06051724,0,0.351,-0.01806641,0.351,-1.002441,0.351,-0.2080078,0.351,0.3658537,0.351,1.402439,0.351,0.3658537,0.06051724,0,0.06051724,0
0.3537,0.2724609,0.3537,-0.9594727,0.3537,-0.1420898,0.3537,-1.768293,0.3537,1.341463,0.3537,1.097561,0.06098276,0,0.06098276,0,0.3537,-0.01757813,0.3537,-1.001953,0.3537,-0.2045898,0.3537,0.1219512,0.3537,1.036585,0.3537,0.4878049,0.06098276,0,0.06098276,0
0.3564,0.2714844,0.3564,-0.9658203,0.3564,-0.1425781,0.3564,-1.829268,0.3564,1.280488,0.3564,0.9146342,0.06144828,0,0.06144828,0,0.3564,-0.01123047,0.3564,-0.996582,0.3564,-0.2094727,0.3564,0.2439024,0.3564,1.097561,0.3564,0.3048781,0.06144828,0,0.06144828,0
0.3591,0.2758789,0.3591,-0.9648438,0.3591,-0.1459961,0.3591,-2.256098,0.3591,1.097561,0.3591,1.219512,0.06191379,0,0.06191379,0,0.3591,-0.01074219,0.3591,-1.000488,0.3591,-0.2089844,0.3591,0.3658537,0.3591,0.9756098,0.3591,0.8536586,0.06191379,0,0.06191379,0
0.3618,0.2802734,0.3618,-0.9628906,0.3618,-0.1435547,0.3618,-2.317073,0.3618,1.219512,0.3618,1.280488,0.06237931,0,0.06237931,0,0.3618,-0.009765625,0.3618,-1.000977,0.3618,-0.2075195,0.3618,0.4268293,0.3618,0.9146342,0.3618,0.6097561,0.06237931,0,0.06237931,0
0.3645,0.2773438,0.3645,-0.9619141,0.3645,-0.140625,0.3645,-2.743902,0.3645,1.768293,0.3645,1.280488,0.06284483,0,0.06284483,0,0.3645,-0.008789063,0.3645,-1.003418,0.3645,-0.2050781,0.3645,0.3048781,0.3645,0.9756098,0.3645,0.4268293,0.06284483,0,0.06284483,0
0.3672,0.2783203,0.3672,-0.9619141,0.3672,-0.1391602,0.3672,-2.743902,0.3672,1.52439,0.3672,1.158537,0.06331034,0,0.06331034,0,0.3672,-0.01220703,0.3672,-0.9995117,0.3672,-0.2045898,0.3672,0.4268293,0.3672,1.158537,0.3672,0.6707317,0.06331034,0,0.06331034,0
0.3699,0.2797852,0.3699,-0.9599609,0.3699,-0.1376953,0.3699,-2.560976,0.3699,1.890244,0.3699,1.158537,0.06377586,0,0.06377586,0,0.3699,-0.01318359,0.3699,-1,0.3699,-0.2060547,0.3699,0.4878049,0.3699,1.158537,0.3699,0.3658537,0.06377586,0,0.06377586,0
0.3726,0.2753906,0.3726,-0.9614258,0.3726,-0.1391602,0.3726,-2.560976,0.3726,1.829268,0.3726,1.219512,0.06424138,0,0.06424138,0,0.3726,-0.01074219,0.3726,-0.9970703,0.3726,-0.2094727,0.3726,0.2439024,0.3726,1.280488,0.3726,0.6707317,0.06424138,0,0.06424138,0
0.3753,0.28125,0.3753,-0.9619141,0.3753,-0.1435547,0.3753,-2.439024,0.3753,1.463415,0.3753,1.219512,0.06470689,0,0.06470689,0,0.3753,-0.01074219,0.3753,-0.9980469,0.3753,-0.2080078,0.3753,0.1829268,0.3753,1.341463,0.3753,0.7317073,0.06470689,0,0.06470689,0
0.378,0.2822266,0.378,-0.9633789,0.378,-0.1469727,0.378,-2.621951,0.378,1.95122,0.378,1.219512,0.06517241,0,0.06517241,0,0.378,-0.01123047,0.378,-1.000488,0.378,-0.2104492,0.378,-0.06097561,0.378,1.341463,0.378,1.097561,0.06517241,0,0.06517241,0
0.3807,0.2832031,0.3807,-0.9628906,0.3807,-0.1469727,0.3807,-2.682927,0.3807,1.829268,0.3807,1.158537,0.06563793,0,0.06563793,0,0.3807,-0.01708984,0.3807,-0.9995117,0.3807,-0.2099609,0.3807,-0.1219512,0.3807,1.768293,0.3807,0.7926829,0.06563793,0,0.06563793,0
0.3834,0.2841797,0.3834,-0.9638672,0.3834,-0.1450195,0.3834,-2.804878,0.3834,2.256098,0.3834,1.463415,0.06610344,0,0.06610344,0,0.3834,-0.01416016,0.3834,-1.000977,0.3834,-0.2109375,0.3834,-0.4878049,0.3834,2.195122,0.3834,1.158537,0.06610344,0,0.06610344,0
0.3861,0.2802734,0.3861,-0.9672852,0.3861,-0.1435547,0.3861,-2.439024,0.3861,2.073171,0.3861,1.341463,0.06656896,0,0.06656896,0,0.3861,-0.01123047,0.3861,-1.001953,0.3861,-0.2094727,0.3861,-0.06097561,0.3861,2.378049,0.3861,1.036585,0.06656896,0,0.06656896,0
0.3888,0.2817383,0.3888,-0.9619141,0.3888,-0.1469727,0.3888,-2.256098,0.3888,2.560976,0.3888,1.341463,0.06703448,0,0.06703448,0,0.3888,-0.0078125,0.3888,-0.9990234,0.3888,-0.2060547,0.3888,0.1219512,0.3888,2.682927,0.3888,0.9146342,0.06703448,0,0.06703448,0
0.3915,0.2832031,0.3915,-0.9663086,0.3915,-0.1445313,0.3915,-2.195122,0.3915,2.743902,0.3915,1.402439,0.0675,0,0.0675,0,0.3915,-0.01123047,0.3915,-0.9980469,0.3915,-0.2055664,0.3915,-0.1219512,0.3915,2.804878,0.3915,0.9146342,0.0675,0,0.0675,0
0.3942,0.2836914,0.3942,-0.9628906,0.3942,-0.1445313,0.3942,-2.5,0.3942,2.926829,0.3942,1.463415,0.06796551,0,0.06796551,0,0.3942,-0.01318359,0.3942,-1.003418,0.3942,-0.2055664,0.3942,-0.1219512,0.3942,2.682927,0.3942,1.158537,0.06796551,0,0.06796551,0
0.3969,0.277832,0.3969,-0.965332,0.3969,-0.1459961,0.3969,-2.256098,0.3969,3.109756,0.3969,1.463415,0.06843103,0,0.06843103,0,0.3969,-0.015625,0.3969,-1.00293,0.3969,-0.2070313,0.3969,-0.1219512,0.3969,2.621951,0.3969,0.9756098,0.06843103,0,0.06843103,0
0.3996,0.2773438,0.3996,-0.9628906,0.3996,-0.1445313,0.3996,-2.256098,0.3996,3.231707,0.3996,1.402439,0.06889655,0,0.06889655,0,0.3996,-0.015625,0.3996,-0.9995117,0.3996,-0.2060547,0.3996,-0.5487805,0.3996,2.743902,0.3996,1.097561,0.06889655,0,0.06889655,0
0.4023,0.2792969,0.4023,-0.9638672,0.4023,-0.1401367,0.4023,-2.378049,0.4023,3.414634,0.4023,1.341463,0.06936207,0,0.06936207,0,0.4023,-0.01806641,0.4023,-1.001953,0.4023,-0.2055664,0.4023,-0.4268293,0.4023,3.04878,0.4023,1.158537,0.06936207,0,0.06936207,0
0.405,0.2792969,0.405,-0.9633789,0.405,-0.1386719,0.405,-2.5,0.405,3.47561,0.405,1.707317,0.06982759,0,0.06982759,0,0.405,-0.01806641,0.405,-0.9995117,0.405,-0.2050781,0.405,-0.4268293,0.405,3.292683,0.405,0.9756098,0.06982759,0,0.06982759,0
0.4077,0.2744141,0.4077,-0.9643555,0.4077,-0.1381836,0.4077,-2.804878,0.4077,3.47561,0.4077,1.402439,0.0702931,0,0.0702931,0,0.4077,-0.01660156,0.4077,-1.001953,0.4077,-0.2070313,0.4077,-0.3658537,0.4077,3.231707,0.4077,0.8536586,0.0702931,0,0.0702931,0
0.4104,0.2773438,0.4104,-0.9624023,0.4104,-0.1411133,0.4104,-3.04878,0.4104,3.780488,0.4104,1.52439,0.07075862,0,0.07075862,0,0.4104,-0.02197266,0.4104,-1.001953,0.4104,-0.2050781,0.4104,-0.3658537,0.4104,3.597561,0.4104,0.7926829,0.07075862,0,0.07075862,0
0.4131,0.2783203,0.4131,-0.9609375,0.4131,-0.1367188,0.4131,-3.353659,0.4131,3.658537,0.4131,1.646341,0.07122414,0,0.07122414,0,0.4131,-0.02197266,0.4131,-1.001465,0.4131,-0.2070313,0.4131,-0.3658537,0.4131,3.414634,0.4131,1.097561,0.07122414,0,0.07122414,0
0.4158,0.2788086,0.4158,-0.9604492,0.4158,-0.1391602,0.4158,-3.231707,0.4158,3.841464,0.4158,1.646341,0.07168965,0,0.07168965,0,0.4158,-0.02246094,0.4158,-1,0.4158,-0.2089844,0.4158,-0.4878049,0.4158,3.719512,0.4158,1.219512,0.07168965,0,0.07168965,0
0.4185,0.2763672,0.4185,-0.9580078,0.4185,-0.137207,0.4185,-3.47561,0.4185,3.597561,0.4185,1.890244,0.07215517,0,0.07215517,0,0.4185,-0.01953125,0.4185,-0.996582,0.4185,-0.2080078,0.4185,0.1219512,0.4185,3.902439,0.4185,1.463415,0.07215517,0,0.07215517,0
0.4212,0.2758789,0.4212,-0.9589844,0.4212,-0.1420898,0.4212,-3.353659,0.4212,3.536585,0.4212,1.646341,0.07262069,0,0.07262069,0,0.4212,-0.02001953,0.4212,-0.996582,0.4212,-0.2080078,0.4212,-0.3658537,0.4212,3.597561,0.4212,1.402439,0.07262069,0,0.07262069,0
0.4239,0.2763672,0.4239,-0.9697266,0.4239,-0.1391602,0.4239,-3.658537,0.4239,3.231707,0.4239,1.646341,0.0730862,0,0.0730862,0,0.4239,-0.02050781,0.4239,-0.9975586,0.4239,-0.2084961,0.4239,-0.4268293,0.4239,3.597561,0.4239,1.280488,0.0730862,0,0.0730862,0
0.4266,0.2807617,0.4266,-0.9677734,0.4266,-0.1425781,0.4266,-3.719512,0.4266,3.109756,0.4266,1.52439,0.07355172,0,0.07355172,0,0.4266,-0.01806641,0.4266,-0.9995117,0.4266,-0.2099609,0.4266,-0.5487805,0.4266,3.414634,0.4266,1.280488,0.07355172,0,0.07355172,0
0.4293,0.2714844,0.4293,-0.96875,0.4293,-0.1435547,0.4293,-3.719512,0.4293,2.743902,0.4293,1.707317,0.07401724,0,0.07401724,0,0.4293,-0.01855469,0.4293,-0.9980469,0.4293,-0.2119141,0.4293,-0.1829268,0.4293,3.780488,0.4293,1.52439,0.07401724,0,0.07401724,0
0.432,0.2675781,0.432,-0.9667969,0.432,-0.1420898,0.432,-3.414634,0.432,2.804878,0.432,1.95122,0.07448275,0,0.07448275,0,0.432,-0.01367188,0.432,-1.00293,0.432,-0.2070313,0.432,-0.3048781,0.432,3.963415,0.432,1.341463,0.07448275,0,0.07448275,0
0.4347,0.2646484,0.4347,-0.965332,0.4347,-0.1381836,0.4347,-3.353659,0.4347,2.804878,0.4347,2.073171,0.07494827,0,0.07494827,0,0.4347,-0.01416016,0.4347,-1.001953,0.4347,-0.2070313,0.4347,-0.1219512,0.4347,3.719512,0.4347,1.463415,0.07494827,0,0.07494827,0
0.4374,0.2636719,0.4374,-0.9677734,0.4374,-0.1430664,0.4374,-3.353659,0.4374,2.682927,0.4374,1.890244,0.07541379,0,0.07541379,0,0.4374,-0.01757813,0.4374,-1.001465,0.4374,-0.2075195,0.4374,0,0.4374,3.780488,0.4374,1.52439,0.07541379,0,0.07541379,0
0.4401,0.2675781,0.4401,-0.9677734,0.4401,-0.144043,0.4401,-3.170732,0.4401,2.865854,0.4401,2.134146,0.07587931,0,0.07587931,0,0.4401,-0.01318359,0.4401,-0.9975586,0.4401,-0.2045898,0.4401,0,0.4401,3.719512,0.4401,1.341463,0.07587931,0,0.07587931,0
0.4428,0.269043,0.4428,-0.9672852,0.4428,-0.1455078,0.4428,-3.109756,0.4428,3.536585,0.4428,2.073171,0.07634483,0,0.07634483,0,0.4428,-0.009277344,0.4428,-0.9985352,0.4428,-0.2016602,0.4428,0,0.4428,3.353659,0.4428,1.52439,0.07634483,0,0.07634483,0
0.4455,0.2700195,0.4455,-0.9716797,0.4455,-0.140625,0.4455,-3.292683,0.4455,3.536585,0.4455,1.707317,0.07681035,0,0.07681035,0,0.4455,-0.01220703,0.4455,-0.9980469,0.4455,-0.2041016,0.4455,0,0.4455,3.780488,0.4455,1.52439,0.07681035,0,0.07681035,0
0.4482,0.2695313,0.4482,-0.9726563,0.4482,-0.1416016,0.4482,-2.926829,0.4482,4.146341,0.4482,1.585366,0.07727586,0,0.07727586,0,0.4482,-0.009277344,0.4482,-1.003906,0.4482,-0.2050781,0.4482,0.06097561,0.4482,4.02439,0.4482,1.52439,0.07727586,0,0.07727586,0
0.4509,0.2709961,0.4509,-0.9692383,0.4509,-0.1435547,0.4509,-3.170732,0.4509,4.085366,0.4509,1.52439,0.07774138,0,0.07774138,0,0.4509,-0.009277344,0.4509,-1.003906,0.4509,-0.2006836,0.4509,0,0.4509,4.02439,0.4509,1.646341,0.07774138,0,0.07774138,0
0.4536,0.2685547,0.4536,-0.9658203,0.4536,-0.1484375,0.4536,-2.743902,0.4536,4.268293,0.4536,1.646341,0.0782069,0,0.0782069,0,0.4536,-0.009277344,0.4536,-0.9980469,0.4536,-0.203125,0.4536,-0.06097561,0.4536,3.963415,0.4536,1.646341,0.0782069,0,0.0782069,0
0.4563,0.2700195,0.4563,-0.965332,0.4563,-0.1469727,0.4563,-2.926829,0.4563,4.512195,0.4563,1.646341,0.07867241,0,0.07867241,0,0.4563,-0.01025391,0.4563,-1.002441,0.4563,-0.2041016,0.4563,0,0.4563,4.268293,0.4563,1.646341,0.07867241,0,0.07867241,0
0.459,0.2705078,0.459,-0.9682617,0.459,-0.1420898,0.459,-2.682927,0.459,4.45122,0.459,1.707317,0.07913793,0,0.07913793,0,0.459,-0.01220703,0.459,-0.9975586,0.459,-0.2070313,0.459,-0.1829268,0.459,4.45122,0.459,1.52439,0.07913793,0,0.07913793,0
0.4617,0.2709961,0.4617,-0.9648438,0.4617,-0.1396484,0.4617,-2.743902,0.4617,4.573171,0.4617,1.341463,0.07960345,0,0.07960345,0,0.4617,-0.01123047,0.4617,-1.001953,0.4617,-0.2016602,0.4617,-0.1219512,0.4617,4.573171,0.4617,1.585366,0.07960345,0,0.07960345,0
0.4644,0.2719727,0.4644,-0.9638672,0.4644,-0.1416016,0.4644,-2.743902,0.4644,4.512195,0.4644,1.585366,0.08006896,0,0.08006896,0,0.4644,-0.01269531,0.4644,-0.9990234,0.4644,-0.2026367,0.4644,-0.06097561,0.4644,5.121951,0.4644,1.646341,0.08006896,0,0.08006896,0
0.4671,0.2724609,0.4671,-0.9604492,0.4671,-0.1401367,0.4671,-2.378049,0.4671,4.695122,0.4671,1.402439,0.08053448,0,0.08053448,0,0.4671,-0.01025391,0.4671,-0.9985352,0.4671,-0.203125,0.4671,0.1219512,0.4671,5.121951,0.4671,1.707317,0.08053448,0,0.08053448,0
0.4698,0.2666016,0.4698,-0.9619141,0.4698,-0.1386719,0.4698,-2.5,0.4698,4.878049,0.4698,1.52439,0.081,0,0.081,0,0.4698,-0.01269531,0.4698,-0.996582,0.4698,-0.2021484,0.4698,-0.2439024,0.4698,5.060976,0.4698,1.52439,0.081,0,0.081,0
0.4725,0.2709961,0.4725,-0.9638672,0.4725,-0.1430664,0.4725,-3.109756,0.4725,5.243903,0.4725,1.646341,0.08146551,0,0.08146551,0,0.4725,-0.01464844,0.4725,-0.996582,0.4725,-0.1987305,0.4725,-0.3048781,0.4725,5.121951,0.4725,1.768293,0.08146551,0,0.08146551,0
0.4752,0.269043,0.4752,-0.9609375,0.4752,-0.1416016,0.4752,-3.292683,0.4752,5.243903,0.4752,1.341463,0.08193103,0,0.08193103,0,0.4752,-0.01464844,0.4752,-0.9985352,0.4752,-0.2006836,0.4752,-0.7317073,0.4752,5.670732,0.4752,1.585366,0.08193103,0,0.08193103,0
0.4779,0.2695313,0.4779,-0.9648438,0.4779,-0.1416016,0.4779,-3.109756,0.4779,5.365854,0.4779,1.52439,0.08239655,0,0.08239655,0,0.4779,-0.02246094,0.4779,-0.9975586,0.4779,-0.2070313,0.4779,-0.7317073,0.4779,5.853659,0.4779,1.707317,0.08239655,0,0.08239655,0
0.4806,0.2680664,0.4806,-0.9619141,0.4806,-0.1396484,0.4806,-3.170732,0.4806,5.304878,0.4806,1.585366,0.08286206,0,0.08286206,0,0.4806,-0.02197266,0.4806,-0.9985352,0.4806,-0.2075195,0.4806,-0.8536586,0.4806,6.036585,0.4806,1.646341,0.08286206,0,0.08286206,0
0.4833,0.2641602,0.4833,-0.9643555,0.4833,-0.1459961,0.4833,-3.170732,0.4833,5.243903,0.4833,1.52439,0.08332758,0,0.08332758,0,0.4833,-0.01904297,0.4833,-1.002441,0.4833,-0.206543,0.4833,-0.6707317,0.4833,6.036585,0.4833,1.219512,0.08332758,0,0.08332758,0
0.486,0.269043,0.486,-0.9570313,0.486,-0.1494141,0.486,-3.231707,0.486,5.182927,0.486,1.52439,0.0837931,0,0.0837931,0,0.486,-0.02099609,0.486,-1.000488,0.486,-0.2060547,0.486,-0.4268293,0.486,6.341464,0.486,1.463415,0.0837931,0,0.0837931,0
0.4887,0.2680664,0.4887,-0.9589844,0.4887,-0.1503906,0.4887,-3.47561,0.4887,5.243903,0.4887,1.890244,0.08425862,0,0.08425862,0,0.4887,-0.0234375,0.4887,-1.004883,0.4887,-0.206543,0.4887,-0.3048781,0.4887,6.463415,0.4887,1.402439,0.08425862,0,0.08425862,0
0.4914,0.2675781,0.4914,-0.9638672,0.4914,-0.1474609,0.4914,-3.780488,0.4914,5.121951,0.4914,1.95122,0.08472414,0,0.08472414,0,0.4914,-0.02001953,0.4914,-1.001953,0.4914,-0.2070313,0.4914,-0.3658537,0.4914,6.707317,0.4914,1.52439,0.08472414,0,0.08472414,0
0.4941,0.2680664,0.4941,-0.9663086,0.4941,-0.1484375,0.4941,-3.841464,0.4941,5.121951,0.4941,1.95122,0.08518966,0,0.08518966,0,0.4941,-0.02246094,0.4941,-0.996582,0.4941,-0.203125,0.4941,-0.1829268,0.4941,6.463415,0.4941,1.463415,0.08518966,0,0.08518966,0
0.4968,0.2709961,0.4968,-0.9667969,0.4968,-0.1411133,0.4968,-3.658537,0.4968,4.939024,0.4968,1.95122,0.08565517,0,0.08565517,0,0.4968,-0.02148438,0.4968,-0.9990234,0.4968,-0.2099609,0.4968,0.1219512,0.4968,6.158537,0.4968,1.402439,0.08565517,0,0.08565517,0
0.4995,0.2734375,0.4995,-0.9619141,0.4995,-0.1411133,0.4995,-3.47561,0.4995,5.060976,0.4995,2.5,0.08612069,0,0.08612069,0,0.4995,-0.01904297,0.4995,-0.9946289,0.4995,-0.2080078,0.4995,0.06097561,0.4995,6.158537,0.4995,1.646341,0.08612069,0,0.08612069,0
0.5022,0.2734375,0.5022,-0.9628906,0.5022,-0.1425781,0.5022,-3.414634,0.5022,4.878049,0.5022,2.134146,0.08658621,0,0.08658621,0,0.5022,-0.01855469,0.5022,-0.9956055,0.5022,-0.2041016,0.5022,0.3048781,0.5022,5.670732,0.5022,1.585366,0.08658621,0,0.08658621,0
0.5049,0.2734375,0.5049,-0.9619141,0.5049,-0.144043,0.5049,-3.414634,0.5049,4.756098,0.5049,2.134146,0.08705172,0,0.08705172,0,0.5049,-0.01953125,0.5049,-0.9970703,0.5049,-0.2045898,0.5049,0.1829268,0.5049,5.731708,0.5049,1.463415,0.08705172,0,0.08705172,0
0.5076,0.2709961,0.5076,-0.9638672,0.5076,-0.1469727,0.5076,-3.536585,0.5076,4.573171,0.5076,2.256098,0.08751724,0,0.08751724,0,0.5076,-0.02099609,0.5076,-0.9990234,0.5076,-0.2016602,0.5076,0,0.5076,5.54878,0.5076,1.646341,0.08751724,0,0.08751724,0
0.5103,0.2695313,0.5103,-0.9619141,0.5103,-0.1508789,0.5103,-3.47561,0.5103,4.390244,0.5103,2.195122,0.08798276,0,0.08798276,0,0.5103,-0.01953125,0.5103,-0.9926758,0.5103,-0.199707,0.5103,-0.1829268,0.5103,5.54878,0.5103,1.707317,0.08798276,0,0.08798276,0
0.513,0.2729492,0.513,-0.9609375,0.513,-0.1542969,0.513,-3.353659,0.513,4.207317,0.513,2.317073,0.08844827,0,0.08844827,0,0.513,-0.02099609,0.513,-0.996582,0.513,-0.2006836,0.513,-0.3048781,0.513,5.54878,0.513,1.829268,0.08844827,0,0.08844827,0
0.5157,0.2729492,0.5157,-0.9638672,0.5157,-0.152832,0.5157,-3.902439,0.5157,4.390244,0.5157,2.256098,0.08891379,0,0.08891379,0,0.5157,-0.02050781,0.5157,-1.000977,0.5157,-0.2021484,0.5157,-0.6097561,0.5157,5.853659,0.5157,1.463415,0.08891379,0,0.08891379,0
0.5184,0.2719727,0.5184,-0.965332,0.5184,-0.15625,0.5184,-4.02439,0.5184,4.207317,0.5184,1.890244,0.08937931,0,0.08937931,0,0.5184,-0.01757813,0.5184,-0.996582,0.5184,-0.2021484,0.5184,-0.5487805,0.5184,6.158537,0.5184,1.646341,0.08937931,0,0.08937931,0
0.5211,0.2666016,0.5211,-0.965332,0.5211,-0.1523438,0.5211,-4.02439,0.5211,4.634146,0.5211,1.95122,0.08984482,0,0.08984482,0,0.5211,-0.01611328,0.5211,-0.9990234,0.5211,-0.2006836,0.5211,-0.1829268,0.5211,6.036585,0.5211,1.95122,0.08984482,0,0.08984482,0
0.5238,0.2661133,0.5238,-0.9624023,0.5238,-0.1503906,0.5238,-3.902439,0.5238,4.390244,0.5238,2.012195,0.09031034,0,0.09031034,0,0.5238,-0.02050781,0.5238,-0.9946289,0.5238,-0.2041016,0.5238,-0.5487805,0.5238,6.097561,0.5238,1.890244,0.09031034,0,0.09031034,0
0.5265,0.2714844,0.5265,-0.9609375,0.5265,-0.1523438,0.5265,-3.963415,0.5265,4.878049,0.5265,2.195122,0.09077586,0,0.09077586,0,0.5265,-0.02001953,0.5265,-0.9960938,0.5265,-0.2045898,0.5265,-0.6097561,0.5265,5.914634,0.5265,1.768293,0.09077586,0,0.09077586,0
0.5292,0.2705078,0.5292,-0.9624023,0.5292,-0.1542969,0.5292,-4.146341,0.5292,5,0.5292,2.073171,0.09124137,0,0.09124137,0,0.5292,-0.02294922,0.5292,-0.9985352,0.5292,-0.1982422,0.5292,-0.7317073,0.5292,6.158537,0.5292,1.768293,0.09124137,0,0.09124137,0
0.5319,0.2734375,0.5319,-0.9672852,0.5319,-0.1474609,0.5319,-4.329268,0.5319,5.121951,0.5319,1.95122,0.09170689,0,0.09170689,0,0.5319,-0.02441406,0.5319,-0.996582,0.5319,-0.1982422,0.5319,-0.7317073,0.5319,5.670732,0.5319,1.707317,0.09170689,0,0.09170689,0
0.5346,0.269043,0.5346,-0.9643555,0.5346,-0.1459961,0.5346,-4.329268,0.5346,5.121951,0.5346,1.768293,0.09217241,0,0.09217241,0,0.5346,-0.02978516,0.5346,-0.9970703,0.5346,-0.2026367,0.5346,-0.8536586,0.5346,5.97561,0.5346,1.768293,0.09217241,0,0.09217241,0
0.5373,0.2734375,0.5373,-0.9599609,0.5373,-0.144043,0.5373,-4.573171,0.5373,5.060976,0.5373,2.073171,0.09263793,0,0.09263793,0,0.5373,-0.03173828,0.5373,-0.9980469,0.5373,-0.2050781,0.5373,-1.463415,0.5373,6.402439,0.5373,1.707317,0.09263793,0,0.09263793,0
0.54,0.2714844,0.54,-0.9609375,0.54,-0.1425781,0.54,-4.390244,0.54,5,0.54,1.890244,0.09310345,0,0.09310345,0,0.54,-0.03173828,0.54,-0.9985352,0.54,-0.2006836,0.54,-1.463415,0.54,6.097561,0.54,1.646341,0.09310345,0,0.09310345,0
0.5427,0.2700195,0.5427,-0.9609375,0.5427,-0.1469727,0.5427,-4.390244,0.5427,4.817073,0.5427,2.195122,0.09356897,0,0.09356897,0,0.5427,-0.03027344,0.5427,-0.9985352,0.5427,-0.1982422,0.5427,-1.585366,0.5427,6.158537,0.5427,1.646341,0.09356897,0,0.09356897,0
0.5454,0.2749023,0.5454,-0.9609375,0.5454,-0.1503906,0.5454,-4.939024,0.5454,5.060976,0.5454,1.768293,0.09403448,0,0.09403448,0,0.5454,-0.0234375,0.5454,-0.9980469,0.5454,-0.2026367,0.5454,-1.463415,0.5454,6.097561,0.5454,1.829268,0.09403448,0,0.09403448,0
0.5481,0.2758789,0.5481,-0.9609375,0.5481,-0.1523438,0.5481,-5.060976,0.5481,5.182927,0.5481,1.829268,0.0945,0,0.0945,0,0.5481,-0.02246094,0.5481,-0.9985352,0.5481,-0.2001953,0.5481,-1.280488,0.5481,6.036585,0.5481,2.012195,0.0945,0,0.0945,0
0.5508,0.2714844,0.5508,-0.9624023,0.5508,-0.1547852,0.5508,-5.182927,0.5508,4.817073,0.5508,1.707317,0.09496552,0,0.09496552,0,0.5508,-0.02294922,0.5508,-0.996582,0.5508,-0.2021484,0.5508,-1.463415,0.5508,6.097561,0.5508,1.707317,0.09496552,0,0.09496552,0
0.5535,0.277832,0.5535,-0.9638672,0.5535,-0.1557617,0.5535,-5.182927,0.5535,4.695122,0.5535,1.707317,0.09543103,0,0.09543103,0,0.5535,-0.02246094,0.5535,-1,0.5535,-0.2021484,0.5535,-1.463415,0.5535,5.731708,0.5535,1.768293,0.09543103,0,0.09543103,0
0.5562,0.2719727,0.5562,-0.9638672,0.5562,-0.1547852,0.5562,-4.695122,0.5562,4.634146,0.5562,1.52439,0.09589655,0,0.09589655,0,0.5562,-0.02392578,0.5562,-0.9985352,0.5562,-0.1953125,0.5562,-1.280488,0.5562,5.792683,0.5562,1.768293,0.09589655,0,0.09589655,0
0.5589,0.2739258,0.5589,-0.9648438,0.5589,-0.1557617,0.5589,-4.939024,0.5589,4.878049,0.5589,1.585366,0.09636207,0,0.09636207,0,0.5589,-0.02490234,0.5589,-0.996582,0.5589,-0.1948242,0.5589,-0.9146342,0.5589,5.853659,0.5589,1.585366,0.09636207,0,0.09636207,0
0.5616,0.2734375,0.5616,-0.9663086,0.5616,-0.1547852,0.5616,-4.45122,0.5616,4.695122,0.5616,1.95122,0.09682758,0,0.09682758,0,0.5616,-0.02050781,0.5616,-0.9975586,0.5616,-0.199707,0.5616,-0.9756098,0.5616,6.341464,0.5616,1.52439,0.09682758,0,0.09682758,0
0.5643,0.2724609,0.5643,-0.9638672,0.5643,-0.152832,0.5643,-4.573171,0.5643,4.878049,0.5643,1.829268,0.0972931,0,0.0972931,0,0.5643,-0.02001953,0.5643,-1.001953,0.5643,-0.1943359,0.5643,-0.6097561,0.5643,6.158537,0.5643,1.52439,0.0972931,0,0.0972931,0
0.567,0.2753906,0.567,-0.9614258,0.567,-0.1508789,0.567,-4.695122,0.567,4.695122,0.567,1.768293,0.09775862,0,0.09775862,0,0.567,-0.02294922,0.567,-1.000977,0.567,-0.1953125,0.567,-0.4268293,0.567,6.402439,0.567,1.829268,0.09775862,0,0.09775862,0
0.5697,0.2758789,0.5697,-0.9648438,0.5697,-0.1484375,0.5697,-4.573171,0.5697,5,0.5697,1.768293,0.09822413,0,0.09822413,0,0.5697,-0.01806641,0.5697,-1.000977,0.5697,-0.1972656,0.5697,-0.3048781,0.5697,6.585366,0.5697,1.768293,0.09822413,0,0.09822413,0
0.5724,0.2714844,0.5724,-0.9658203,0.5724,-0.1479492,0.5724,-4.268293,0.5724,4.756098,0.5724,1.707317,0.09868965,0,0.09868965,0,0.5724,-0.015625,0.5724,-1,0.5724,-0.1953125,0.5724,-0.2439024,0.5724,6.402439,0.5724,1.707317,0.09868965,0,0.09868965,0
0.5751,0.2685547,0.5751,-0.9697266,0.5751,-0.1484375,0.5751,-4.207317,0.5751,4.756098,0.5751,1.768293,0.09915517,0,0.09915517,0,0.5751,-0.01660156,0.5751,-0.9946289,0.5751,-0.1987305,0.5751,-0.1219512,0.5751,6.036585,0.5751,1.707317,0.09915517,0,0.09915517,0
0.5778,0.2666016,0.5778,-0.972168,0.5778,-0.1484375,0.5778,-3.841464,0.5778,4.695122,0.5778,1.829268,0.09962068,0,0.09962068,0,0.5778,-0.01660156,0.5778,-0.9975586,0.5778,-0.1987305,0.5778,-0.1219512,0.5778,5.914634,0.5778,1.646341,0.09962068,0,0.09962068,0
0.5805,0.2670898,0.5805,-0.9648438,0.5805,-0.1474609,0.5805,-3.47561,0.5805,4.695122,0.5805,1.646341,0.1000862,0,0.1000862,0,0.5805,-0.01855469,0.5805,-1.000488,0.5805,-0.2016602,0.5805,-0.06097561,0.5805,5.670732,0.5805,1.585366,0.1000862,0,0.1000862,0
0.5832,0.2670898,0.5832,-0.9682617,0.5832,-0.1499023,0.5832,-3.04878,0.5832,4.878049,0.5832,1.707317,0.1005517,0,0.1005517,0,0.5832,-0.01660156,0.5832,-1,0.5832,-0.1987305,0.5832,0.06097561,0.5832,5.792683,0.5832,1.890244,0.1005517,0,0.1005517,0
0.5859,0.2646484,0.5859,-0.9614258,0.5859,-0.1547852,0.5859,-3.109756,0.5859,5.121951,0.5859,2.134146,0.1010172,0,0.1010172,0,0.5859,-0.02001953,0.5859,-0.9960938,0.5859,-0.1982422,0.5859,0.06097561,0.5859,6.036585,0.5859,1.890244,0.1010172,0,0.1010172,0
0.5886,0.2636719,0.5886,-0.9643555,0.5886,-0.1582031,0.5886,-3.231707,0.5886,5.426829,0.5886,2.195122,0.1014828,0,0.1014828,0,0.5886,-0.01855469,0.5886,-0.9980469,0.5886,-0.2016602,0.5886,0,0.5886,6.097561,0.5886,1.890244,0.1014828,0,0.1014828,0
0.5913,0.2612305,0.5913,-0.9624023,0.5913,-0.1572266,0.5913,-3.536585,0.5913,5.670732,0.5913,1.768293,0.1019483,0,0.1019483,0,0.5913,-0.01953125,0.5913,-0.9980469,0.5913,-0.2055664,0.5913,0.1829268,0.5913,6.280488,0.5913,1.829268,0.1019483,0,0.1019483,0
0.594,0.2651367,0.594,-0.9628906,0.594,-0.1542969,0.594,-3.292683,0.594,5.609756,0.594,1.829268,0.1024138,0,0.1024138,0,0.594,-0.02001953,0.594,-1,0.594,-0.2070313,0.594,0.06097561,0.594,6.219512,0.594,2.012195,0.1024138,0,0.1024138,0
0.5967,0.2641602,0.5967,-0.9648438,0.5967,-0.1547852,0.5967,-3.963415,0.5967,5.731708,0.5967,2.256098,0.1028793,0,0.1028793,0,0.5967,-0.02197266,0.5967,-1.000488,0.5967,-0.2075195,0.5967,0.06097561,0.5967,6.219512,0.5967,1.829268,0.1028793,0,0.1028793,0
0.5994,0.2617188,0.5994,-0.9589844,0.5994,-0.1538086,0.5994,-4.085366,0.5994,5.853659,0.5994,2.012195,0.1033448,0,0.1033448,0,0.5994,-0.02050781,0.5994,-1.000977,0.5994,-0.2021484,0.5994,0.1219512,0.5994,6.158537,0.5994,1.707317,0.1033448,0,0.1033448,0
0.6021,0.2651367,0.6021,-0.9589844,0.6021,-0.152832,0.6021,-4.146341,0.6021,5.670732,0.6021,2.012195,0.1038103,0,0.1038103,0,0.6021,-0.01513672,0.6021,-1.00293,0.6021,-0.2055664,0.6021,0,0.6021,6.402439,0.6021,1.829268,0.1038103,0,0.1038103,0
0.6048,0.2651367,0.6048,-0.9633789,0.6048,-0.1503906,0.6048,-4.268293,0.6048,5.792683,0.6048,1.890244,0.1042759,0,0.1042759,0,0.6048,-0.01855469,0.6048,-1.003906,0.6048,-0.199707,0.6048,-0.06097561,0.6048,6.402439,0.6048,1.585366,0.1042759,0,0.1042759,0
0.6075,0.2641602,0.6075,-0.9624023,0.6075,-0.1469727,0.6075,-4.207317,0.6075,5.731708,0.6075,2.073171,0.1047414,0,0.1047414,0,0.6075,-0.02001953,0.6075,-1.001953,0.6075,-0.2021484,0.6075,-0.2439024,0.6075,6.341464,0.6075,1.52439,0.1047414,0,0.1047414,0
0.6102,0.2714844,0.6102,-0.9614258,0.6102,-0.1479492,0.6102,-4.268293,0.6102,5.426829,0.6102,2.073171,0.1052069,0,0.1052069,0,0.6102,-0.01757813,0.6102,-1.003418,0.6102,-0.2006836,0.6102,-0.3048781,0.6102,6.463415,0.6102,1.585366,0.1052069,0,0.1052069,0
0.6129,0.2739258,0.6129,-0.9628906,0.6129,-0.1459961,0.6129,-4.207317,0.6129,5.54878,0.6129,1.890244,0.1056724,0,0.1056724,0,0.6129,-0.02099609,0.6129,-1.003418,0.6129,-0.2021484,0.6129,-0.6097561,0.6129,6.219512,0.6129,1.707317,0.1056724,0,0.1056724,0
0.6156,0.2724609,0.6156,-0.9604492,0.6156,-0.1450195,0.6156,-4.268293,0.6156,5.243903,0.6156,1.768293,0.1061379,0,0.1061379,0,0.6156,-0.02050781,0.6156,-1.000488,0.6156,-0.2026367,0.6156,-0.7317073,0.6156,6.097561,0.6156,1.341463,0.1061379,0,0.1061379,0
0.6183,0.2724609,0.6183,-0.9604492,0.6183,-0.140625,0.6183,-4.207317,0.6183,5.182927,0.6183,1.768293,0.1066034,0,0.1066034,0,0.6183,-0.01806641,0.6183,-1.001465,0.6183,-0.2011719,0.6183,-0.7926829,0.6183,6.280488,0.6183,1.280488,0.1066034,0,0.1066034,0
0.621,0.269043,0.621,-0.9648438,0.621,-0.1435547,0.621,-4.268293,0.621,4.939024,0.621,1.646341,0.107069,0,0.107069,0,0.621,-0.01855469,0.621,-0.9995117,0.621,-0.2006836,0.621,-0.8536586,0.621,5.914634,0.621,1.52439,0.107069,0,0.107069,0
0.6237,0.2675781,0.6237,-0.9609375,0.6237,-0.1499023,0.6237,-4.207317,0.6237,4.939024,0.6237,2.012195,0.1075345,0,0.1075345,0,0.6237,-0.01953125,0.6237,-0.9985352,0.6237,-0.2001953,0.6237,-0.9756098,0.6237,6.036585,0.6237,1.707317,0.1075345,0,0.1075345,0
0.6264,0.2700195,0.6264,-0.9614258,0.6264,-0.1508789,0.6264,-4.573171,0.6264,4.695122,0.6264,1.646341,0.108,1.493858E-05,0.108,-1.15816E-05,0.6264,-0.02294922,0.6264,-1,0.6264,-0.2045898,0.6264,-0.8536586,0.6264,6.036585,0.6264,1.52439,0.108,1.728847E-05,0.108,0
0.6291,0.2734375,0.6291,-0.9594727,0.6291,-0.1557617,0.6291,-4.695122,0.6291,4.573171,0.6291,1.707317,0.1084655,2.400244E-05,0.1084655,-4.531929E-06,0.6291,-0.02392578,0.6291,-0.9995117,0.6291,-0.2055664,0.6291,-0.9756098,0.6291,6.219512,0.6291,1.585366,0.1084655,1.594568E-05,0.1084655,0
0.6318,0.2734375,0.6318,-0.9624023,0.6318,-0.1557617,0.6318,-5,0.6318,4.634146,0.6318,1.829268,0.108931,2.383459E-05,0.108931,-3.860533E-06,0.6318,-0.02441406,0.6318,-1.00293,0.6318,-0.2011719,0.6318,-0.9756098,0.6318,5.97561,0.6318,1.646341,0.108931,9.567407E-06,0.108931,0
0.6345,0.2719727,0.6345,-0.9638672,0.6345,-0.1542969,0.6345,-4.939024,0.6345,4.207317,0.6345,1.890244,0.1093965,1.997406E-05,0.1093965,-4.531929E-06,0.6345,-0.02392578,0.6345,-1.003906,0.6345,-0.2026367,0.6345,-1.219512,0.6345,5.914634,0.6345,1.890244,0.1093965,5.874723E-06,0.1093965,0
0.6372,0.2719727,0.6372,-0.9648438,0.6372,-0.1533203,0.6372,-5.060976,0.6372,4.207317,0.6372,1.890244,0.1098621,1.544213E-05,0.1098621,-5.035477E-06,0.6372,-0.0234375,0.6372,-0.9995117,0.6372,-0.2050781,0.6372,-1.036585,0.6372,5.914634,0.6372,2.012195,0.1098621,6.210422E-06,0.1098621,0
0.6399,0.2763672,0.6399,-0.9638672,0.6399,-0.1586914,0.6399,-4.878049,0.6399,4.45122,0.6399,1.829268,0.1103276,1.527428E-05,0.1103276,-6.210422E-06,0.6399,-0.02246094,0.6399,-1.001953,0.6399,-0.2055664,0.6399,-0.7926829,0.6399,5.54878,0.6399,2.073171,0.1103276,8.89601E-06,0.1103276,0
0.6426,0.2758789,0.6426,-0.9604492,0.6426,-0.1533203,0.6426,-4.573171,0.6426,4.45122,0.6426,2.073171,0.1107931,1.661708E-05,0.1107931,-6.881819E-06,0.6426,-0.01953125,0.6426,-0.9980469,0.6426,-0.2070313,0.6426,-0.9756098,0.6426,5.487805,0.6426,1.95122,0.1107931,9.231709E-06,0.1107931,0
0.6453,0.28125,0.6453,-0.9614258,0.6453,-0.1557617,0.6453,-4.817073,0.6453,4.390244,0.6453,1.707317,0.1112586,1.661708E-05,0.1112586,-6.881819E-06,0.6453,-0.02148438,0.6453,-1,0.6453,-0.2075195,0.6453,-0.8536586,0.6453,5.182927,0.6453,1.646341,0.1112586,9.735256E-06,0.1112586,0
0.648,0.2817383,0.648,-0.9624023,0.648,-0.1577148,0.648,-4.817073,0.648,4.634146,0.648,1.646341,0.1117241,1.527428E-05,0.1117241,-6.881819E-06,0.648,-0.02539063,0.648,-0.9990234,0.648,-0.2084961,0.648,-0.6707317,0.648,5.182927,0.648,2.073171,0.1117241,1.09102E-05,0.1117241,0
0.6507,0.2768555,0.6507,-0.9614258,0.6507,-0.1582031,0.6507,-4.817073,0.6507,4.390244,0.6507,1.890244,0.1121897,1.359579E-05,0.1121897,-6.881819E-06,0.6507,-0.02294922,0.6507,-0.9995117,0.6507,-0.2114258,0.6507,-0.5487805,0.6507,5.243903,0.6507,2.256098,0.1121897,9.903105E-06,0.1121897,0
0.6534,0.2792969,0.6534,-0.9614258,0.6534,-0.1601563,0.6534,-4.817073,0.6534,4.207317,0.6534,2.195122,0.1126552,1.242084E-05,0.1126552,-6.378271E-06,0.6534,-0.01708984,0.6534,-0.9985352,0.6534,-0.2128906,0.6534,-0.6097561,0.6534,5.54878,0.6534,2.012195,0.1126552,7.553216E-06,0.1126552,0
0.6561,0.2832031,0.6561,-0.9624023,0.6561,-0.1586914,0.6561,-5.060976,0.6561,4.45122,0.6561,1.890244,0.1131207,1.15816E-05,0.1131207,-6.881819E-06,0.6561,-0.02490234,0.6561,-0.9951172,0.6561,-0.2104492,0.6561,-1.097561,0.6561,5.609756,0.6561,1.646341,0.1131207,9.063859E-06,0.1131207,0
0.6588,0.277832,0.6588,-0.9604492,0.6588,-0.1621094,0.6588,-5,0.6588,4.146341,0.6588,1.463415,0.1135862,9.903105E-06,0.1135862,-7.888914E-06,0.6588,-0.02441406,0.6588,-0.9946289,0.6588,-0.2089844,0.6588,-1.219512,0.6588,5.060976,0.6588,1.829268,0.1135862,1.426719E-05,0.1135862,0
0.6615,0.2773438,0.6615,-0.9570313,0.6615,-0.1601563,0.6615,-5.182927,0.6615,4.02439,0.6615,1.646341,0.1140517,7.553216E-06,0.1140517,-9.231709E-06,0.6615,-0.02001953,0.6615,-0.9995117,0.6615,-0.2099609,0.6615,-1.585366,0.6615,5.182927,0.6615,2.073171,0.1140517,1.896696E-05,0.1140517,0
0.6642,0.2734375,0.6642,-0.9628906,0.6642,-0.1582031,0.6642,-5.182927,0.6642,4.207317,0.6642,1.768293,0.1145172,4.867628E-06,0.1145172,-1.05745E-05,0.6642,-0.01855469,0.6642,-1,0.6642,-0.206543,0.6642,-1.097561,0.6642,5.426829,0.6642,2.012195,0.1145172,2.198825E-05,0.1145172,0
0.6669,0.2749023,0.6669,-0.965332,0.6669,-0.1611328,0.6669,-5.365854,0.6669,4.207317,0.6669,1.646341,0.1149828,5.203327E-06,0.1149828,-9.903105E-06,0.6669,-0.01953125,0.6669,-1.000977,0.6669,-0.2070313,0.6669,-1.219512,0.6669,5.426829,0.6669,1.95122,0.1149828,2.467384E-05,0.1149828,0
0.6696,0.2729492,0.6696,-0.9648438,0.6696,-0.1611328,0.6696,-5.365854,0.6696,4.512195,0.6696,1.585366,0.1154483,1.12459E-05,0.1154483,-9.231709E-06,0.6696,-0.01953125,0.6696,-1.000488,0.6696,-0.2099609,0.6696,-1.280488,0.6696,5.609756,0.6696,1.768293,0.1154483,2.769513E-05,0.1154483,0
0.6723,0.2709961,0.6723,-0.9643555,0.6723,-0.1591797,0.6723,-5.487805,0.6723,4.634146,0.6723,1.829268,0.1159138,2.601663E-05,0.1159138,-9.735256E-06,0.6723,-0.0234375,0.6723,-0.9951172,0.6723,-0.2055664,0.6723,-1.463415,0.6723,5.731708,0.6723,1.646341,0.1159138,3.20592E-05,0.1159138,0
0.675,0.265625,0.675,-0.9648438,0.675,-0.1542969,0.675,-5.304878,0.675,5.060976,0.675,1.768293,0.1163793,4.682994E-05,0.1163793,-1.09102E-05,0.675,-0.01904297,0.675,-0.9956055,0.675,-0.2055664,0.675,-1.402439,0.675,5.914634,0.675,2.073171,0.1163793,3.323415E-05,0.1163793,0
0.6777,0.2636719,0.6777,-0.9638672,0.6777,-0.1567383,0.6777,-5.426829,0.6777,5.121951,0.6777,1.768293,0.1168448,6.160067E-05,0.1168448,-1.12459E-05,0.6777,-0.01806641,0.6777,-0.9995117,0.6777,-0.2041016,0.6777,-1.341463,0.6777,5.853659,0.6777,2.012195,0.1168448,3.390555E-05,0.1168448,0
0.6804,0.2695313,0.6804,-0.9643555,0.6804,-0.1503906,0.6804,-5.426829,0.6804,4.939024,0.6804,1.768293,0.1173103,6.764325E-05,0.1173103,-9.903105E-06,0.6804,-0.01806641,0.6804,-0.9970703,0.6804,-0.2045898,0.6804,-1.768293,0.6804,6.097561,0.6804,2.073171,0.1173103,3.541619E-05,0.1173103,0
0.6831,0.2680664,0.6831,-0.9697266,0.6831,-0.1425781,0.6831,-5.365854,0.6831,5.243903,0.6831,1.890244,0.1177759,6.630045E-05,0.1177759,-8.560311E-06,0.6831,-0.01757813,0.6831,-1.003418,0.6831,-0.2026367,0.6831,-1.768293,0.6831,6.036585,0.6831,1.768293,0.1177759,3.20592E-05,0.1177759,0
0.6858,0.2675781,0.6858,-0.9692383,0.6858,-0.1435547,0.6858,-5.060976,0.6858,5.182927,0.6858,1.890244,0.1182414,5.690089E-05,0.1182414,-9.063859E-06,0.6858,-0.02197266,0.6858,-1.001953,0.6858,-0.1992188,0.6858,-1.768293,0.6858,6.219512,0.6858,1.768293,0.1182414,2.232395E-05,0.1182414,0
0.6885,0.2695313,0.6885,-0.9707031,0.6885,-0.1464844,0.6885,-4.573171,0.6885,5.365854,0.6885,1.707317,0.1187069,4.515145E-05,0.1187069,-1.05745E-05,0.6885,-0.01708984,0.6885,-1.005371,0.6885,-0.2011719,0.6885,-1.95122,0.6885,6.280488,0.6885,1.52439,0.1187069,1.12459E-05,0.1187069,0
0.6912,0.2719727,0.6912,-0.9697266,0.6912,-0.1435547,0.6912,-4.756098,0.6912,5.487805,0.6912,2.012195,0.1191724,3.810178E-05,0.1191724,-1.15816E-05,0.6912,-0.015625,0.6912,-1.004883,0.6912,-0.1953125,0.6912,-1.829268,0.6912,6.402439,0.6912,1.646341,0.1191724,4.531929E-06,0.1191724,0
0.6939,0.265625,0.6939,-0.9682617,0.6939,-0.1425781,0.6939,-4.390244,0.6939,5.182927,0.6939,2.073171,0.1196379,3.608759E-05,0.1196379,-1.141375E-05,0.6939,-0.01367188,0.6939,-1.005859,0.6939,-0.1967773,0.6939,-1.707317,0.6939,6.890244,0.6939,2.012195,0.1196379,3.189136E-06,0.1196379,0
0.6966,0.2661133,0.6966,-0.9677734,0.6966,-0.1391602,0.6966,-4.390244,0.6966,5.121951,0.6966,2.012195,0.1201034,3.457694E-05,0.1201034,-1.09102E-05,0.6966,-0.01464844,0.6966,-1.00293,0.6966,-0.2050781,0.6966,-1.829268,0.6966,7.012195,0.6966,1.768293,0.1201034,5.539025E-06,0.1201034,0
0.6993,0.2680664,0.6993,-0.9677734,0.6993,-0.1484375,0.6993,-3.963415,0.6993,4.695122,0.6993,2.012195,0.120569,3.054856E-05,0.120569,-1.02388E-05,0.6993,-0.01660156,0.6993,-1.002441,0.6993,-0.2016602,0.6993,-1.52439,0.6993,7.134147,0.6993,1.585366,0.120569,8.392462E-06,0.120569,0
0.702,0.2714844,0.702,-0.9682617,0.702,-0.1474609,0.702,-4.146341,0.702,4.878049,0.702,2.256098,0.1210345,2.400244E-05,0.1210345,-1.09102E-05,0.702,-0.01416016,0.702,-1.003906,0.702,-0.1948242,0.702,-1.463415,0.702,7.195122,0.702,1.829268,0.1210345,1.15816E-05,0.1210345,0
0.7047,0.2685547,0.7047,-0.96875,0.7047,-0.1455078,0.7047,-4.146341,0.7047,5.243903,0.7047,2.439024,0.1215,2.064546E-05,0.1215,-1.05745E-05,0.7047,-0.01513672,0.7047,-1.006348,0.7047,-0.1972656,0.7047,-1.158537,0.7047,7.073171,0.7047,1.768293,0.1215,1.460288E-05,0.1215,0
0.7074,0.2661133,0.7074,-0.9677734,0.7074,-0.1459961,0.7074,-3.902439,0.7074,5.426829,0.7074,2.439024,0.1219655,2.131685E-05,0.1219655,-8.560311E-06,0.7074,-0.02001953,0.7074,-1.003418,0.7074,-0.1987305,0.7074,-0.9146342,0.7074,6.829268,0.7074,1.646341,0.1219655,1.829557E-05,0.1219655,0
0.7101,0.2675781,0.7101,-0.9658203,0.7101,-0.1420898,0.7101,-3.597561,0.7101,5.609756,0.7101,2.439024,0.122431,2.333104E-05,0.122431,-6.210422E-06,0.7101,-0.02050781,0.7101,-1.004883,0.7101,-0.199707,0.7101,-0.6097561,0.7101,6.52439,0.7101,1.707317,0.122431,2.064546E-05,0.122431,0
0.7128,0.2670898,0.7128,-0.9697266,0.7128,-0.1459961,0.7128,-3.536585,0.7128,6.280488,0.7128,2.378049,0.1228966,2.601663E-05,0.1228966,-3.356985E-06,0.7128,-0.02001953,0.7128,-0.9975586,0.7128,-0.2011719,0.7128,-1.036585,0.7128,6.52439,0.7128,1.768293,0.1228966,2.064546E-05,0.1228966,0
0.7155,0.2675781,0.7155,-0.9619141,0.7155,-0.1474609,0.7155,-3.109756,0.7155,6.158537,0.7155,2.317073,0.1233621,2.920577E-05,0.1233621,-2.685588E-06,0.7155,-0.02099609,0.7155,-0.9980469,0.7155,-0.2026367,0.7155,-0.7926829,0.7155,6.646342,0.7155,2.012195,0.1233621,2.198825E-05,0.1233621,0
0.7182,0.2705078,0.7182,-0.9677734,0.7182,-0.1518555,0.7182,-3.414634,0.7182,6.158537,0.7182,2.621951,0.1238276,3.004501E-05,0.1238276,-4.531929E-06,0.7182,-0.01904297,0.7182,-0.9995117,0.7182,-0.2045898,0.7182,-0.6097561,0.7182,6.585366,0.7182,2.317073,0.1238276,2.702373E-05,0.1238276,0
0.7209,0.2709961,0.7209,-0.9658203,0.7209,-0.1542969,0.7209,-3.719512,0.7209,5.914634,0.7209,2.256098,0.1242931,2.903792E-05,0.1242931,-8.224612E-06,0.7209,-0.01953125,0.7209,-1.000488,0.7209,-0.2041016,0.7209,-0.5487805,0.7209,7.256098,0.7209,1.95122,0.1242931,3.038071E-05,0.1242931,0
0.7236,0.2641602,0.7236,-0.9624023,0.7236,-0.1547852,0.7236,-4.146341,0.7236,5.731708,0.7236,2.5,0.1247586,2.601663E-05,0.1247586,-1.040665E-05,0.7236,-0.02441406,0.7236,-0.9970703,0.7236,-0.206543,0.7236,-0.6097561,0.7236,6.95122,0.7236,2.012195,0.1247586,2.970932E-05,0.1247586,0
0.7263,0.2685547,0.7263,-0.9604492,0.7263,-0.15625,0.7263,-4.085366,0.7263,5.731708,0.7263,2.378049,0.1252241,2.165255E-05,0.1252241,-1.040665E-05,0.7263,-0.01855469,0.7263,-1.000977,0.7263,-0.2050781,0.7263,-0.4878049,0.7263,6.829268,0.7263,2.134146,0.1252241,2.903792E-05,0.1252241,0
0.729,0.2719727,0.729,-0.9667969,0.729,-0.1557617,0.729,-4.085366,0.729,5.487805,0.729,2.378049,0.1256897,1.795987E-05,0.1256897,-8.89601E-06,0.729,-0.01757813,0.729,-0.9970703,0.729,-0.203125,0.729,-0.6097561,0.729,6.768293,0.729,2.256098,0.1256897,2.903792E-05,0.1256897,0
0.7317,0.2753906,0.7317,-0.9667969,0.7317,-0.1567383,0.7317,-4.329268,0.7317,5.487805,0.7317,2.256098,0.1261552,1.326009E-05,0.1261552,-7.553216E-06,0.7317,-0.01904297,0.7317,-0.9931641,0.7317,-0.2011719,0.7317,-0.6097561,0.7317,6.585366,0.7317,2.012195,0.1261552,2.719158E-05,0.1261552,0
0.7344,0.2739258,0.7344,-0.9663086,0.7344,-0.159668,0.7344,-4.512195,0.7344,5.792683,0.7344,2.134146,0.1266207,1.12459E-05,0.1266207,-7.217518E-06,0.7344,-0.02099609,0.7344,-0.9956055,0.7344,-0.2036133,0.7344,-0.6707317,0.7344,6.707317,0.7344,1.95122,0.1266207,2.265965E-05,0.1266207,0
0.7371,0.2685547,0.7371,-0.9658203,0.7371,-0.1572266,0.7371,-4.634146,0.7371,5.609756,0.7371,2.134146,0.1270862,1.460288E-05,0.1270862,-7.049668E-06,0.7371,-0.01855469,0.7371,-0.9970703,0.7371,-0.2070313,0.7371,-0.8536586,0.7371,6.707317,0.7371,1.95122,0.1270862,1.863127E-05,0.1270862,0
0.7398,0.2666016,0.7398,-0.9677734,0.7398,-0.15625,0.7398,-4.634146,0.7398,5.914634,0.7398,2.439024,0.1275517,1.997406E-05,0.1275517,-6.042573E-06,0.7398,-0.01904297,0.7398,-0.9941406,0.7398,-0.2114258,0.7398,-0.7926829,0.7398,6.52439,0.7398,1.95122,0.1275517,1.292439E-05,0.1275517,0
0.7425,0.2724609,0.7425,-0.9667969,0.7425,-0.1577148,0.7425,-4.756098,0.7425,5.914634,0.7425,2.134146,0.1280172,2.265965E-05,0.1280172,-3.524834E-06,0.7425,-0.01953125,0.7425,-0.996582,0.7425,-0.2099609,0.7425,-0.9756098,0.7425,6.646342,0.7425,1.95122,0.1280172,8.224612E-06,0.1280172,0
0.7452,0.2709961,0.7452,-0.9663086,0.7452,-0.1582031,0.7452,-4.817073,0.7452,6.097561,0.7452,1.95122,0.1284828,2.265965E-05,0.1284828,-2.853437E-06,0.7452,-0.02246094,0.7452,-0.9985352,0.7452,-0.2050781,0.7452,-0.9146342,0.7452,6.341464,0.7452,2.012195,0.1284828,7.217518E-06,0.1284828,0
0.7479,0.2666016,0.7479,-0.9638672,0.7479,-0.1518555,0.7479,-5,0.7479,5.792683,0.7479,2.256098,0.1289483,2.232395E-05,0.1289483,-3.524834E-06,0.7479,-0.02294922,0.7479,-0.9956055,0.7479,-0.203125,0.7479,-0.7926829,0.7479,6.707317,0.7479,1.768293,0.1289483,6.881819E-06,0.1289483,0
0.7506,0.2666016,0.7506,-0.9663086,0.7506,-0.1523438,0.7506,-5.304878,0.7506,5.914634,0.7506,2.317073,0.1294138,2.098116E-05,0.1294138,-4.531929E-06,0.7506,-0.01953125,0.7506,-1.000977,0.7506,-0.2036133,0.7506,-0.9146342,0.7506,7.134147,0.7506,1.646341,0.1294138,5.203327E-06,0.1294138,0
0.7533,0.2700195,0.7533,-0.9692383,0.7533,-0.1552734,0.7533,-5.54878,0.7533,5.792683,0.7533,2.317073,0.1298793,1.896696E-05,0.1298793,-5.539025E-06,0.7533,-0.02197266,0.7533,-0.9975586,0.7533,-0.2021484,0.7533,-1.219512,0.7533,6.890244,0.7533,1.707317,0.1298793,5.035477E-07,0.1298793,0
0.756,0.2666016,0.756,-0.96875,0.756,-0.1542969,0.756,-5.182927,0.756,5.670732,0.756,2.012195,0.1303448,1.728847E-05,0.1303448,-6.881819E-06,0.756,-0.02392578,0.756,-0.9980469,0.756,-0.2021484,0.756,-1.585366,0.756,7.073171,0.756,1.768293,0.1303448,-4.196231E-06,0.1303448,0
0.7587,0.2719727,0.7587,-0.9667969,0.7587,-0.1547852,0.7587,-5.54878,0.7587,5.243903,0.7587,2.317073,0.1308103,1.863127E-05,0.1308103,-6.378271E-06,0.7587,-0.02050781,0.7587,-0.9990234,0.7587,-0.2021484,0.7587,-1.707317,0.7587,7.195122,0.7587,1.829268,0.1308103,-4.867628E-06,0.1308103,0
0.7614,0.2744141,0.7614,-0.9682617,0.7614,-0.1547852,0.7614,-5.243903,0.7614,5.609756,0.7614,2.195122,0.1312759,2.131685E-05,0.1312759,-5.035477E-06,0.7614,-0.02050781,0.7614,-1.001465,0.7614,-0.2011719,0.7614,-1.52439,0.7614,6.829268,0.7614,1.463415,0.1312759,-2.853437E-06,0.1312759,0
0.7641,0.2695313,0.7641,-0.965332,0.7641,-0.152832,0.7641,-4.817073,0.7641,5.243903,0.7641,2.5,0.1317414,2.299535E-05,0.1317414,-5.539025E-06,0.7641,-0.02001953,0.7641,-1.001953,0.7641,-0.1977539,0.7641,-1.585366,0.7641,6.646342,0.7641,1.768293,0.1317414,1.846342E-06,0.1317414,0
0.7668,0.2685547,0.7668,-0.9677734,0.7668,-0.1464844,0.7668,-4.756098,0.7668,5.426829,0.7668,2.134146,0.1322069,2.131685E-05,0.1322069,-7.553216E-06,0.7668,-0.02294922,0.7668,-0.9995117,0.7668,-0.2036133,0.7668,-1.52439,0.7668,7.256098,0.7668,1.707317,0.1322069,7.553216E-06,0.1322069,0
0.7695,0.2680664,0.7695,-0.965332,0.7695,-0.1420898,0.7695,-4.634146,0.7695,5.54878,0.7695,2.134146,0.1326724,1.930266E-05,0.1326724,-8.89601E-06,0.7695,-0.0234375,0.7695,-1.002441,0.7695,-0.2026367,0.7695,-1.402439,0.7695,7.256098,0.7695,1.890244,0.1326724,1.19173E-05,0.1326724,0
0.7722,0.2719727,0.7722,-0.9609375,0.7722,-0.1396484,0.7722,-4.512195,0.7722,5.487805,0.7722,2.256098,0.1331379,1.846342E-05,0.1331379,-9.567407E-06,0.7722,-0.02050781,0.7722,-1.001465,0.7722,-0.2026367,0.7722,-1.829268,0.7722,6.95122,0.7722,1.707317,0.1331379,1.258869E-05,0.1331379,0
0.7749,0.2719727,0.7749,-0.9619141,0.7749,-0.1420898,0.7749,-4.268293,0.7749,5.426829,0.7749,2.134146,0.1336034,1.846342E-05,0.1336034,-9.903105E-06,0.7749,-0.02294922,0.7749,-1.000488,0.7749,-0.1962891,0.7749,-1.829268,0.7749,7.317073,0.7749,1.707317,0.1336034,9.231709E-06,0.1336034,0
0.7776,0.2714844,0.7776,-0.965332,0.7776,-0.1455078,0.7776,-4.146341,0.7776,5.487805,0.7776,2.439024,0.134069,1.795987E-05,0.134069,-1.09102E-05,0.7776,-0.02099609,0.7776,-1.003906,0.7776,-0.1958008,0.7776,-1.646341,0.7776,7.682927,0.7776,1.707317,0.134069,4.867628E-06,0.134069,0
0.7803,0.2758789,0.7803,-0.9663086,0.7803,-0.1484375,0.7803,-3.963415,0.7803,5.365854,0.7803,2.317073,0.1345345,1.728847E-05,0.1345345,-1.02388E-05,0.7803,-0.02050781,0.7803,-1.001465,0.7803,-0.2001953,0.7803,-1.52439,0.7803,7.804878,0.7803,1.707317,0.1345345,5.874723E-06,0.1345345,0
0.783,0.2739258,0.783,-0.9633789,0.783,-0.1469727,0.783,-3.780488,0.783,5.670732,0.783,2.317073,0.135,1.560998E-05,0.135,-1.02388E-05,0.783,-0.01855469,0.783,-1.00293,0.783,-0.2011719,0.783,-1.707317,0.783,7.682927,0.783,1.890244,0.135,1.393149E-05,0.135,0
0.7857,0.2729492,0.7857,-0.9648438,0.7857,-0.1503906,0.7857,-3.536585,0.7857,5.792683,0.7857,2.439024,0.1354655,1.326009E-05,0.1354655,-1.09102E-05,0.7857,-0.01953125,0.7857,-1.001953,0.7857,-0.1987305,0.7857,-0.9146342,0.7857,7.256098,0.7857,1.585366,0.1354655,2.400244E-05,0.1354655,0
0.7884,0.2709961,0.7884,-0.9619141,0.7884,-0.1518555,0.7884,-3.841464,0.7884,5.792683,0.7884,2.560976,0.135931,1.05745E-05,0.135931,-1.15816E-05,0.7884,-0.02050781,0.7884,-1.000488,0.7884,-0.2060547,0.7884,-0.9146342,0.7884,7.012195,0.7884,1.829268,0.135931,2.735943E-05,0.135931,0
0.7911,0.2729492,0.7911,-0.9624023,0.7911,-0.1542969,0.7911,-3.719512,0.7911,5.914634,0.7911,2.317073,0.1363965,8.392462E-06,0.1363965,-8.89601E-06,0.7911,-0.01904297,0.7911,-0.9975586,0.7911,-0.2099609,0.7911,-0.7317073,0.7911,7.073171,0.7911,2.012195,0.1363965,2.534523E-05,0.1363965,0
0.7938,0.2695313,0.7938,-0.9614258,0.7938,-0.1547852,0.7938,-4.02439,0.7938,5.426829,0.7938,2.256098,0.1368621,8.89601E-06,0.1368621,-5.874723E-06,0.7938,-0.02246094,0.7938,-0.9926758,0.7938,-0.2045898,0.7938,-0.7926829,0.7938,6.52439,0.7938,1.829268,0.1368621,2.265965E-05,0.1368621,0
0.7965,0.2719727,0.7965,-0.9614258,0.7965,-0.1542969,0.7965,-3.780488,0.7965,5,0.7965,2.5,0.1373276,9.903105E-06,0.1373276,-5.706874E-06,0.7965,-0.02197266,0.7965,-0.9956055,0.7965,-0.2045898,0.7965,-0.3658537,0.7965,6.280488,0.7965,2.134146,0.1373276,2.198825E-05,0.1373276,0
0.7992,0.2651367,0.7992,-0.9643555,0.7992,-0.1577148,0.7992,-4.02439,0.7992,4.939024,0.7992,2.621951,0.1377931,7.888914E-06,0.1377931,-6.378271E-06,0.7992,-0.02441406,0.7992,-0.996582,0.7992,-0.2021484,0.7992,-0.6097561,0.7992,6.280488,0.7992,2.073171,0.1377931,2.265965E-05,0.1377931,0
0.8019,0.2705078,0.8019,-0.9589844,0.8019,-0.1547852,0.8019,-3.658537,0.8019,4.817073,0.8019,2.621951,0.1382586,4.867628E-06,0.1382586,-6.881819E-06,0.8019,-0.0234375,0.8019,-0.9941406,0.8019,-0.2050781,0.8019,-0.7926829,0.8019,6.463415,0.8019,1.95122,0.1382586,2.131685E-05,0.1382586,0
0.8046,0.2675781,0.8046,-0.9580078,0.8046,-0.1518555,0.8046,-3.719512,0.8046,4.634146,0.8046,2.439024,0.1387241,5.203327E-06,0.1387241,-4.867628E-06,0.8046,-0.02050781,0.8046,-0.9892578,0.8046,-0.2050781,0.8046,-0.8536586,0.8046,6.463415,0.8046,1.768293,0.1387241,1.443504E-05,0.1387241,0
0.8073,0.2602539,0.8073,-0.9599609,0.8073,-0.1557617,0.8073,-3.841464,0.8073,4.390244,0.8073,2.865854,0.1391896,7.888914E-06,0.1391896,-4.196231E-06,0.8073,-0.02148438,0.8073,-0.9897461,0.8073,-0.2060547,0.8073,-1.158537,0.8073,7.195122,0.8073,1.646341,0.1391896,1.678492E-06,0.1391896,0
0.81,0.2597656,0.81,-0.9638672,0.81,-0.1591797,0.81,-3.597561,0.81,4.329268,0.81,2.439024,0.1396552,9.231709E-06,0.1396552,-5.874723E-06,0.81,-0.02929688,0.81,-0.9926758,0.81,-0.2104492,0.81,-1.036585,0.81,7.073171,0.81,1.829268,0.1396552,-1.15816E-05,0.1396552,0
0.8127,0.262207,0.8127,-0.9599609,0.8127,-0.1616211,0.8127,-3.780488,0.8127,4.878049,0.8127,2.439024,0.1401207,1.040665E-05,0.1401207,-8.224612E-06,0.8127,-0.02441406,0.8127,-0.9951172,0.8127,-0.2080078,0.8127,-1.341463,0.8127,6.890244,0.8127,1.829268,0.1401207,-1.728847E-05,0.1401207,0
0.8154,0.2587891,0.8154,-0.9638672,0.8154,-0.1650391,0.8154,-3.658537,0.8154,4.878049,0.8154,2.621951,0.1405862,1.09102E-05,0.1405862,-1.02388E-05,0.8154,-0.02197266,0.8154,-0.9941406,0.8154,-0.2026367,0.8154,-1.463415,0.8154,6.95122,0.8154,1.890244,0.1405862,-1.258869E-05,0.1405862,0
0.8181,0.2666016,0.8181,-0.9609375,0.8181,-0.1635742,0.8181,-3.963415,0.8181,5.243903,0.8181,2.682927,0.1410517,1.326009E-05,0.1410517,-1.040665E-05,0.8181,-0.02685547,0.8181,-0.9926758,0.8181,-0.2021484,0.8181,-1.829268,0.8181,7.073171,0.8181,1.890244,0.1410517,-2.18204E-06,0.1410517,0
0.8208,0.262207,0.8208,-0.9638672,0.8208,-0.1645508,0.8208,-4.146341,0.8208,5.060976,0.8208,2.560976,0.1415172,1.644922E-05,0.1415172,-9.735256E-06,0.8208,-0.02441406,0.8208,-0.9941406,0.8208,-0.2016602,0.8208,-1.890244,0.8208,6.890244,0.8208,1.646341,0.1415172,8.560311E-06,0.1415172,0
0.8235,0.2651367,0.8235,-0.9658203,0.8235,-0.1582031,0.8235,-4.45122,0.8235,5.060976,0.8235,2.621951,0.1419827,1.795987E-05,0.1419827,-9.063859E-06,0.8235,-0.02783203,0.8235,-0.996582,0.8235,-0.1982422,0.8235,-1.768293,0.8235,6.890244,0.8235,1.707317,0.1419827,1.695277E-05,0.1419827,0
0.8262,0.2636719,0.8262,-0.9716797,0.8262,-0.1572266,0.8262,-4.207317,0.8262,5.121951,0.8262,2.865854,0.1424483,1.460288E-05,0.1424483,-8.89601E-06,0.8262,-0.02880859,0.8262,-0.996582,0.8262,-0.1977539,0.8262,-1.585366,0.8262,6.768293,0.8262,1.52439,0.1424483,1.963836E-05,0.1424483,0
0.8289,0.265625,0.8289,-0.972168,0.8289,-0.1567383,0.8289,-4.146341,0.8289,5.182927,0.8289,2.865854,0.1429138,9.231709E-06,0.1429138,-8.728161E-06,0.8289,-0.02929688,0.8289,-0.9951172,0.8289,-0.1972656,0.8289,-1.95122,0.8289,6.890244,0.8289,1.463415,0.1429138,1.661708E-05,0.1429138,0
0.8316,0.2636719,0.8316,-0.9716797,0.8316,-0.1538086,0.8316,-3.780488,0.8316,5.060976,0.8316,2.439024,0.1433793,1.225299E-05,0.1433793,-7.217518E-06,0.8316,-0.02685547,0.8316,-0.9975586,0.8316,-0.2016602,0.8316,-1.585366,0.8316,6.829268,0.8316,1.52439,0.1433793,1.326009E-05,0.1433793,0
0.8343,0.265625,0.8343,-0.972168,0.8343,-0.1547852,0.8343,-3.841464,0.8343,5.121951,0.8343,2.560976,0.1438448,2.534523E-05,0.1438448,-5.035477E-06,0.8343,-0.02685547,0.8343,-1.00293,0.8343,-0.2055664,0.8343,-1.707317,0.8343,6.52439,0.8343,1.402439,0.1438448,1.12459E-05,0.1438448,0
0.837,0.2666016,0.837,-0.972168,0.837,-0.1591797,0.837,-3.841464,0.837,5,0.837,2.5,0.1443103,4.011597E-05,0.1443103,-4.196231E-06,0.837,-0.03027344,0.837,-1.001465,0.837,-0.2050781,0.837,-1.829268,0.837,6.707317,0.837,1.646341,0.1443103,8.89601E-06,0.1443103,0
0.8397,0.2666016,0.8397,-0.9682617,0.8397,-0.1572266,0.8397,-4.207317,0.8397,4.756098,0.8397,2.5,0.1447759,4.548714E-05,0.1447759,-4.196231E-06,0.8397,-0.02978516,0.8397,-0.9995117,0.8397,-0.2016602,0.8397,-1.95122,0.8397,6.585366,0.8397,1.829268,0.1447759,9.567407E-06,0.1447759,0
0.8424,0.2705078,0.8424,-0.9731445,0.8424,-0.152832,0.8424,-4.02439,0.8424,4.695122,0.8424,2.621951,0.1452414,4.061952E-05,0.1452414,-2.853437E-06,0.8424,-0.02832031,0.8424,-1.001953,0.8424,-0.203125,0.8424,-1.768293,0.8424,6.402439,0.8424,1.829268,0.1452414,1.393149E-05,0.1452414,0
0.8451,0.2651367,0.8451,-0.9741211,0.8451,-0.1513672,0.8451,-4.02439,0.8451,4.45122,0.8451,2.560976,0.1457069,3.323415E-05,0.1457069,-3.524834E-06,0.8451,-0.03271484,0.8451,-1.004395,0.8451,-0.2070313,0.8451,-1.646341,0.8451,6.097561,0.8451,1.463415,0.1457069,1.997406E-05,0.1457069,0
0.8478,0.2670898,0.8478,-0.972168,0.8478,-0.1518555,0.8478,-3.963415,0.8478,4.634146,0.8478,2.621951,0.1461724,3.138781E-05,0.1461724,-7.217518E-06,0.8478,-0.02880859,0.8478,-1.007324,0.8478,-0.2080078,0.8478,-1.829268,0.8478,6.036585,0.8478,1.646341,0.1461724,2.333104E-05,0.1461724,0
0.8505,0.2641602,0.8505,-0.9765625,0.8505,-0.1513672,0.8505,-3.841464,0.8505,4.390244,0.8505,2.560976,0.1466379,3.189136E-05,0.1466379,-9.567407E-06,0.8505,-0.02880859,0.8505,-1.005371,0.8505,-0.2041016,0.8505,-1.585366,0.8505,6.341464,0.8505,1.585366,0.1466379,2.265965E-05,0.1466379,0
0.8532,0.2651367,0.8532,-0.9746094,0.8532,-0.1503906,0.8532,-3.719512,0.8532,4.45122,0.8532,2.378049,0.1471034,2.937362E-05,0.1471034,-9.231709E-06,0.8532,-0.02929688,0.8532,-1.004395,0.8532,-0.2011719,0.8532,-1.707317,0.8532,6.52439,0.8532,1.707317,0.1471034,1.930266E-05,0.1471034,0
0.8559,0.2651367,0.8559,-0.9702148,0.8559,-0.1552734,0.8559,-3.902439,0.8559,4.146341,0.8559,2.134146,0.147569,2.668803E-05,0.147569,-8.056763E-06,0.8559,-0.03076172,0.8559,-1.005371,0.8559,-0.2006836,0.8559,-1.585366,0.8559,6.52439,0.8559,1.768293,0.147569,1.661708E-05,0.147569,0
0.8586,0.2685547,0.8586,-0.9716797,0.8586,-0.1572266,0.8586,-3.719512,0.8586,4.268293,0.8586,2.073171,0.1480345,2.601663E-05,0.1480345,-7.721065E-06,0.8586,-0.03076172,0.8586,-1.006348,0.8586,-0.1987305,0.8586,-1.646341,0.8586,6.890244,0.8586,1.463415,0.1480345,1.393149E-05,0.1480345,0
0.8613,0.269043,0.8613,-0.9697266,0.8613,-0.1557617,0.8613,-3.47561,0.8613,4.45122,0.8613,2.317073,0.1485,2.500954E-05,0.1485,-9.063859E-06,0.8613,-0.02734375,0.8613,-1.00293,0.8613,-0.1958008,0.8613,-1.646341,0.8613,6.52439,0.8613,1.707317,0.1485,9.903105E-06,0.1485,-1.594568E-05
0.864,0.2709961,0.864,-0.9702148,0.864,-0.1577148,0.864,-3.597561,0.864,4.329268,0.864,2.134146,0.1489655,2.098116E-05,0.1489655,-1.040665E-05,0.864,-0.02587891,0.864,-0.9990234,0.864,-0.199707,0.864,-1.646341,0.864,6.52439,0.864,1.768293,0.1489655,9.903105E-06,0.1489655,-7.049668E-06
0.8667,0.2631836,0.8667,-0.9638672,0.8667,-0.1650391,0.8667,-3.597561,0.8667,4.207317,0.8667,2.195122,0.149431,1.594568E-05,0.149431,-1.05745E-05,0.8667,-0.02734375,0.8667,-1.001953,0.8667,-0.2001953,0.8667,-1.646341,0.8667,6.158537,0.8667,2.073171,0.149431,1.661708E-05,0.149431,8.224612E-06
0.8694,0.2617188,0.8694,-0.965332,0.8694,-0.1655273,0.8694,-3.719512,0.8694,4.329268,0.8694,2.378049,0.1498965,1.225299E-05,0.1498965,-1.02388E-05,0.8694,-0.02490234,0.8694,-1.003418,0.8694,-0.2006836,0.8694,-1.585366,0.8694,5.914634,0.8694,1.585366,0.1498965,2.450599E-05,0.1498965,3.524834E-05
0.8721,0.2583008,0.8721,-0.965332,0.8721,-0.1630859,0.8721,-3.841464,0.8721,4.390244,0.8721,2.317073,0.1503621,1.12459E-05,0.1503621,-8.89601E-06,0.8721,-0.02392578,0.8721,-1,0.8721,-0.1987305,0.8721,-1.341463,0.8721,5.426829,0.8721,1.768293,0.1503621,3.038071E-05,0.1503621,5.287251E-05
0.8748,0.2612305,0.8748,-0.9667969,0.8748,-0.1660156,0.8748,-3.841464,0.8748,4.45122,0.8748,2.378049,0.1508276,1.577783E-05,0.1508276,-9.063859E-06,0.8748,-0.02734375,0.8748,-0.9980469,0.8748,-0.2001953,0.8748,-1.280488,0.8748,5.426829,0.8748,1.768293,0.1508276,2.819867E-05,0.1508276,4.733349E-05
0.8775,0.2583008,0.8775,-0.9609375,0.8775,-0.159668,0.8775,-3.597561,0.8775,3.963415,0.8775,2.256098,0.1512931,2.400244E-05,0.1512931,-1.007095E-05,0.8775,-0.02685547,0.8775,-0.9980469,0.8775,-0.203125,0.8775,-0.7317073,0.8775,5.243903,0.8775,1.707317,0.1512931,1.963836E-05,0.1512931,2.803082E-05
0.8802,0.2573242,0.8802,-0.9628906,0.8802,-0.1621094,0.8802,-3.780488,0.8802,3.902439,0.8802,2.195122,0.1517586,3.172351E-05,0.1517586,-1.02388E-05,0.8802,-0.02587891,0.8802,-1,0.8802,-0.2011719,0.8802,-1.036585,0.8802,5.426829,0.8802,1.585366,0.1517586,1.05745E-05,0.1517586,1.426719E-05
0.8829,0.2548828,0.8829,-0.9609375,0.8829,-0.1660156,0.8829,-3.658537,0.8829,3.780488,0.8829,2.195122,0.1522241,3.172351E-05,0.1522241,-8.89601E-06,0.8829,-0.03027344,0.8829,-1.001465,0.8829,-0.199707,0.8829,-0.6707317,0.8829,5.609756,0.8829,1.219512,0.1522241,9.231709E-06,0.1522241,8.560311E-06
0.8856,0.2597656,0.8856,-0.9648438,0.8856,-0.1665039,0.8856,-3.841464,0.8856,3.902439,0.8856,2.378049,0.1526897,2.668803E-05,0.1526897,-8.728161E-06,0.8856,-0.02783203,0.8856,-1.001953,0.8856,-0.2041016,0.8856,-0.4878049,0.8856,5.487805,0.8856,1.707317,0.1526897,1.527428E-05,0.1526897,2.014191E-06
0.8883,0.2597656,0.8883,-0.965332,0.8883,-0.1669922,0.8883,-4.02439,0.8883,3.536585,0.8883,2.256098,0.1531552,2.400244E-05,0.1531552,-9.567407E-06,0.8883,-0.02734375,0.8883,-1.001465,0.8883,-0.2041016,0.8883,-0.5487805,0.8883,5.243903,0.8883,1.341463,0.1531552,1.980621E-05,0.1531552,-8.89601E-06
0.891,0.2539063,0.891,-0.9628906,0.891,-0.1694336,0.891,-3.597561,0.891,3.597561,0.891,2.317073,0.1536207,2.433814E-05,0.1536207,-8.224612E-06,0.891,-0.02783203,0.891,-0.9936523,0.891,-0.2055664,0.891,-0.8536586,0.891,5.304878,0.891,1.402439,0.1536207,1.594568E-05,0.1536207,-1.661708E-05
0.8937,0.2558594,0.8937,-0.9628906,0.8937,-0.1674805,0.8937,-3.841464,0.8937,3.353659,0.8937,2.378049,0.1540862,2.500954E-05,0.1540862,-6.210422E-06,0.8937,-0.02587891,0.8937,-0.9941406,0.8937,-0.2021484,0.8937,-0.7317073,0.8937,5.121951,0.8937,1.402439,0.1540862,6.54612E-06,0.1540862,-1.460288E-05
0.8964,0.2592773,0.8964,-0.9658203,0.8964,-0.1669922,0.8964,-3.719512,0.8964,3.597561,0.8964,2.378049,0.1545517,2.265965E-05,0.1545517,-4.867628E-06,0.8964,-0.02392578,0.8964,-0.9912109,0.8964,-0.2006836,0.8964,-1.463415,0.8964,5.243903,0.8964,1.219512,0.1545517,-3.692683E-06,0.1545517,-7.217518E-06
0.8991,0.2578125,0.8991,-0.9609375,0.8991,-0.1669922,0.8991,-3.536585,0.8991,3.292683,0.8991,2.378049,0.1550172,1.963836E-05,0.1550172,-5.539025E-06,0.8991,-0.02539063,0.8991,-0.9926758,0.8991,-0.2006836,0.8991,-1.890244,0.8991,5.060976,0.8991,1.52439,0.1550172,-9.063859E-06,0.1550172,-1.174945E-06
0.9018,0.2578125,0.9018,-0.9614258,0.9018,-0.1674805,0.9018,-3.47561,0.9018,3.04878,0.9018,2.317073,0.1554828,1.728847E-05,0.1554828,-7.553216E-06,0.9018,-0.02490234,0.9018,-0.9970703,0.9018,-0.2021484,0.9018,-2.073171,0.9018,5.365854,0.9018,1.341463,0.1554828,-7.888914E-06,0.1554828,1.174945E-06
0.9045,0.2602539,0.9045,-0.9619141,0.9045,-0.1621094,0.9045,-3.597561,0.9045,3.231707,0.9045,2.073171,0.1559483,1.661708E-05,0.1559483,-7.888914E-06,0.9045,-0.02539063,0.9045,-0.9956055,0.9045,-0.2036133,0.9045,-2.317073,0.9045,5.487805,0.9045,1.158537,0.1559483,-6.210422E-06,0.1559483,-1.510643E-06
0.9072,0.2573242,0.9072,-0.9648438,0.9072,-0.1577148,0.9072,-3.658537,0.9072,3.841464,0.9072,1.890244,0.1564138,1.795987E-05,0.1564138,-5.874723E-06,0.9072,-0.02734375,0.9072,-0.9946289,0.9072,-0.2045898,0.9072,-2.621951,0.9072,5.365854,0.9072,1.280488,0.1564138,-4.196231E-06,0.1564138,-4.867628E-06
0.9099,0.2597656,0.9099,-0.9643555,0.9099,-0.15625,0.9099,-3.292683,0.9099,3.414634,0.9099,2.256098,0.1568793,2.24918E-05,0.1568793,-4.196231E-06,0.9099,-0.02294922,0.9099,-0.9936523,0.9099,-0.203125,0.9099,-2.743902,0.9099,5.304878,0.9099,1.158537,0.1568793,-1.678492E-07,0.1568793,-4.196231E-06
0.9126,0.2617188,0.9126,-0.9633789,0.9126,-0.1538086,0.9126,-3.47561,0.9126,3.536585,0.9126,2.195122,0.1573448,2.786297E-05,0.1573448,-4.36408E-06,0.9126,-0.02294922,0.9126,-0.9931641,0.9126,-0.1977539,0.9126,-2.926829,0.9126,5,0.9126,1.463415,0.1573448,3.860533E-06,0.1573448,2.517739E-06
0.9153,0.2641602,0.9153,-0.965332,0.9153,-0.1557617,0.9153,-3.231707,0.9153,3.170732,0.9153,2.195122,0.1578103,2.937362E-05,0.1578103,-5.874723E-06,0.9153,-0.02001953,0.9153,-0.9951172,0.9153,-0.2050781,0.9153,-2.682927,0.9153,5.182927,0.9153,1.158537,0.1578103,7.888914E-06,0.1578103,1.393149E-05
0.918,0.2700195,0.918,-0.9663086,0.918,-0.1611328,0.918,-3.04878,0.918,3.231707,0.918,2.317073,0.1582759,2.702373E-05,0.1582759,-6.881819E-06,0.918,-0.01757813,0.918,-0.9951172,0.918,-0.206543,0.918,-2.682927,0.918,5.121951,0.918,1.341463,0.1582759,1.258869E-05,0.1582759,2.131685E-05
0.9207,0.2685547,0.9207,-0.9599609,0.9207,-0.1601563,0.9207,-3.04878,0.9207,3.04878,0.9207,2.317073,0.1587414,2.467384E-05,0.1587414,-7.217518E-06,0.9207,-0.01855469,0.9207,-0.996582,0.9207,-0.2026367,0.9207,-2.743902,0.9207,4.878049,0.9207,1.097561,0.1587414,1.712062E-05,0.1587414,1.997406E-05
0.9234,0.2719727,0.9234,-0.9609375,0.9234,-0.1655273,0.9234,-3.414634,0.9234,3.109756,0.9234,2.439024,0.1592069,2.534523E-05,0.1592069,-8.728161E-06,0.9234,-0.02148438,0.9234,-0.9960938,0.9234,-0.2016602,0.9234,-2.317073,0.9234,4.817073,0.9234,1.097561,0.1592069,1.527428E-05,0.1592069,1.258869E-05
0.9261,0.2695313,0.9261,-0.9628906,0.9261,-0.1689453,0.9261,-3.536585,0.9261,2.682927,0.9261,2.317073,0.1596724,2.735943E-05,0.1596724,-1.19173E-05,0.9261,-0.02392578,0.9261,-0.9980469,0.9261,-0.1962891,0.9261,-2.073171,0.9261,4.573171,0.9261,1.280488,0.1596724,1.19173E-05,0.1596724,1.678492E-06
0.9288,0.2705078,0.9288,-0.9624023,0.9288,-0.1669922,0.9288,-3.353659,0.9288,2.621951,0.9288,2.256098,0.1601379,2.769513E-05,0.1601379,-1.258869E-05,0.9288,-0.02294922,0.9288,-0.9980469,0.9288,-0.2045898,0.9288,-1.707317,0.9288,4.817073,0.9288,1.158537,0.1601379,1.560998E-05,0.1601379,-1.225299E-05
0.9315,0.2670898,0.9315,-0.9609375,0.9315,-0.1694336,0.9315,-3.658537,0.9315,2.439024,0.9315,2.134146,0.1606034,2.400244E-05,0.1606034,-1.05745E-05,0.9315,-0.02197266,0.9315,-0.9956055,0.9315,-0.206543,0.9315,-1.646341,0.9315,4.756098,0.9315,1.219512,0.1606034,2.534523E-05,0.1606034,-2.232395E-05
0.9342,0.2709961,0.9342,-0.9609375,0.9342,-0.1645508,0.9342,-3.47561,0.9342,2.439024,0.9342,1.95122,0.161069,1.930266E-05,0.161069,-9.231709E-06,0.9342,-0.02783203,0.9342,-0.996582,0.9342,-0.2050781,0.9342,-1.463415,0.9342,4.45122,0.9342,1.280488,0.161069,3.138781E-05,0.161069,-2.433814E-05
0.9369,0.2700195,0.9369,-0.9614258,0.9369,-0.1606445,0.9369,-3.47561,0.9369,2.987805,0.9369,1.890244,0.1615345,1.846342E-05,0.1615345,-1.007095E-05,0.9369,-0.02539063,0.9369,-0.9975586,0.9369,-0.2045898,0.9369,-1.463415,0.9369,4.146341,0.9369,1.219512,0.1615345,2.803082E-05,0.1615345,-1.846342E-05
0.9396001,0.2719727,0.9396001,-0.9609375,0.9396001,-0.1601563,0.9396001,-3.47561,0.9396001,3.231707,0.9396001,1.890244,0.162,1.795987E-05,0.162,-1.107805E-05,0.9396001,-0.02197266,0.9396001,-0.9970703,0.9396001,-0.2055664,0.9396001,-1.341463,0.9396001,4.146341,0.9396001,1.646341,0.162,2.131685E-05,0.162,-1.107805E-05
0.9423,0.2729492,0.9423,-0.9628906,0.9423,-0.1616211,0.9423,-3.536585,0.9423,3.109756,0.9423,1.890244,0.1624655,1.594568E-05,0.1624655,-9.903105E-06,0.9423,-0.02880859,0.9423,-0.9985352,0.9423,-0.2055664,0.9423,-1.52439,0.9423,4.207317,0.9423,1.52439,0.1624655,1.460288E-05,0.1624655,-5.539025E-06
0.9450001,0.2714844,0.9450001,-0.9624023,0.9450001,-0.1577148,0.9450001,-3.658537,0.9450001,3.414634,0.9450001,2.134146,0.162931,1.359579E-05,0.162931,-7.553216E-06,0.9450001,-0.02978516,0.9450001,-0.9980469,0.9450001,-0.2080078,0.9450001,-1.52439,0.9450001,4.45122,0.9450001,2.073171,0.162931,8.224612E-06,0.162931,-2.517739E-06
0.9477,0.2695313,0.9477,-0.9614258,0.9477,-0.1601563,0.9477,-3.780488,0.9477,2.987805,0.9477,1.890244,0.1633966,1.02388E-05,0.1633966,-5.539025E-06,0.9477,-0.03271484,0.9477,-0.9960938,0.9477,-0.2060547,0.9477,-1.463415,0.9477,4.085366,0.9477,1.768293,0.1633966,4.867628E-06,0.1633966,0
0.9504,0.2714844,0.9504,-0.9609375,0.9504,-0.159668,0.9504,-3.841464,0.9504,3.04878,0.9504,1.768293,0.1638621,9.231709E-06,0.1638621,-4.867628E-06,0.9504,-0.02929688,0.9504,-0.9946289,0.9504,-0.2080078,0.9504,-1.463415,0.9504,4.268293,0.9504,1.646341,0.1638621,4.531929E-06,0.1638621,2.014191E-06
0.9531,0.2719727,0.9531,-0.9614258,0.9531,-0.1616211,0.9531,-4.02439,0.9531,2.987805,0.9531,1.890244,0.1643276,1.326009E-05,0.1643276,-4.196231E-06,0.9531,-0.0234375,0.9531,-0.9946289,0.9531,-0.2099609,0.9531,-1.707317,0.9531,4.207317,0.9531,1.402439,0.1643276,6.210422E-06,0.1643276,3.860533E-06
0.9558,0.2670898,0.9558,-0.9614258,0.9558,-0.1665039,0.9558,-4.207317,0.9558,2.987805,0.9558,2.073171,0.1647931,1.728847E-05,0.1647931,-2.853437E-06,0.9558,-0.02685547,0.9558,-0.9946289,0.9558,-0.2089844,0.9558,-1.402439,0.9558,4.085366,0.9558,1.402439,0.1647931,7.888914E-06,0.1647931,3.524834E-06
0.9585,0.2641602,0.9585,-0.9672852,0.9585,-0.1645508,0.9585,-4.146341,0.9585,2.926829,0.9585,2.012195,0.1652586,1.963836E-05,0.1652586,-2.18204E-06,0.9585,-0.03320313,0.9585,-0.9960938,0.9585,-0.2036133,0.9585,-1.097561,0.9585,3.963415,0.9585,1.463415,0.1652586,8.560311E-06,0.1652586,1.510643E-06
0.9612,0.2641602,0.9612,-0.9667969,0.9612,-0.1655273,0.9612,-4.390244,0.9612,2.012195,0.9612,1.95122,0.1657241,1.896696E-05,0.1657241,-3.189136E-06,0.9612,-0.03564453,0.9612,-0.9951172,0.9612,-0.2001953,0.9612,-0.9756098,0.9612,4.02439,0.9612,1.646341,0.1657241,7.888914E-06,0.1657241,-1.174945E-06
0.9639,0.2602539,0.9639,-0.9624023,0.9639,-0.1645508,0.9639,-4.817073,0.9639,2.012195,0.9639,1.95122,0.1661897,1.728847E-05,0.1661897,-7.217518E-06,0.9639,-0.03515625,0.9639,-0.9956055,0.9639,-0.2011719,0.9639,-1.158537,0.9639,4.02439,0.9639,1.280488,0.1661897,5.203327E-06,0.1661897,-1.510643E-06
0.9666,0.262207,0.9666,-0.9658203,0.9666,-0.1689453,0.9666,-4.695122,0.9666,1.890244,0.9666,2.073171,0.1666552,1.930266E-05,0.1666552,-9.903105E-06,0.9666,-0.03466797,0.9666,-0.9931641,0.9666,-0.2050781,0.9666,-1.646341,0.9666,4.085366,0.9666,1.341463,0.1666552,4.867628E-06,0.1666552,2.853437E-06
0.9693,0.2587891,0.9693,-0.9672852,0.9693,-0.1611328,0.9693,-4.085366,0.9693,1.890244,0.9693,1.768293,0.1671207,2.735943E-05,0.1671207,-1.02388E-05,0.9693,-0.03417969,0.9693,-0.9941406,0.9693,-0.2075195,0.9693,-1.829268,0.9693,3.963415,0.9693,1.158537,0.1671207,1.040665E-05,0.1671207,1.12459E-05
0.972,0.2583008,0.972,-0.9667969,0.972,-0.1650391,0.972,-4.329268,0.972,1.890244,0.972,1.890244,0.1675862,3.608759E-05,0.1675862,-9.903105E-06,0.972,-0.03417969,0.972,-0.9951172,0.972,-0.2060547,0.972,-1.768293,0.972,3.597561,0.972,1.463415,0.1675862,1.594568E-05,0.1675862,1.628138E-05
0.9747,0.2617188,0.9747,-0.9658203,0.9747,-0.1665039,0.9747,-4.146341,0.9747,2.012195,0.9747,1.829268,0.1680517,3.978027E-05,0.1680517,-1.02388E-05,0.9747,-0.03369141,0.9747,-0.9980469,0.9747,-0.2070313,0.9747,-1.646341,0.9747,3.597561,0.9747,1.463415,0.1680517,1.728847E-05,0.1680517,1.527428E-05
0.9774,0.2607422,0.9774,-0.9667969,0.9774,-0.1679688,0.9774,-3.902439,0.9774,2.012195,0.9774,1.95122,0.1685172,3.843748E-05,0.1685172,-1.12459E-05,0.9774,-0.03173828,0.9774,-0.9970703,0.9774,-0.2045898,0.9774,-1.341463,0.9774,3.841464,0.9774,1.158537,0.1685172,1.527428E-05,0.1685172,1.007095E-05
0.9801,0.2578125,0.9801,-0.9692383,0.9801,-0.1616211,0.9801,-3.597561,0.9801,2.134146,0.9801,2.134146,0.1689828,3.474479E-05,0.1689828,-1.258869E-05,0.9801,-0.02832031,0.9801,-0.9995117,0.9801,-0.2001953,0.9801,-1.402439,0.9801,3.780488,0.9801,0.9146342,0.1689828,1.393149E-05,0.1689828,3.524834E-06
0.9828,0.2592773,0.9828,-0.9697266,0.9828,-0.1665039,0.9828,-3.658537,0.9828,2.134146,0.9828,2.317073,0.1694483,3.138781E-05,0.1694483,-1.225299E-05,0.9828,-0.03076172,0.9828,-1.002441,0.9828,-0.2026367,0.9828,-1.219512,0.9828,3.292683,0.9828,0.9756098,0.1694483,1.510643E-05,0.1694483,-8.392462E-07
0.9855,0.2597656,0.9855,-0.9692383,0.9855,-0.1645508,0.9855,-3.536585,0.9855,2.195122,0.9855,2.317073,0.1699138,2.803082E-05,0.1699138,-1.05745E-05,0.9855,-0.02783203,0.9855,-1,0.9855,-0.2050781,0.9855,-1.463415,0.9855,3.109756,0.9855,0.8536586,0.1699138,1.594568E-05,0.1699138,-8.392462E-07
0.9882,0.2646484,0.9882,-0.972168,0.9882,-0.1635742,0.9882,-3.780488,0.9882,2.195122,0.9882,2.073171,0.1703793,2.366674E-05,0.1703793,-8.89601E-06,0.9882,-0.03466797,0.9882,-1.003418,0.9882,-0.2055664,0.9882,-1.341463,0.9882,2.682927,0.9882,1.280488,0.1703793,1.762417E-05,0.1703793,3.524834E-06
0.9909,0.2666016,0.9909,-0.9692383,0.9909,-0.1640625,0.9909,-3.47561,0.9909,2.073171,0.9909,2.073171,0.1708448,1.963836E-05,0.1708448,-7.049668E-06,0.9909,-0.03027344,0.9909,-0.9985352,0.9909,-0.2045898,0.9909,-1.768293,0.9909,2.743902,0.9909,1.036585,0.1708448,2.047761E-05,0.1708448,7.217518E-06
0.9936,0.2592773,0.9936,-0.96875,0.9936,-0.1621094,0.9936,-3.414634,0.9936,2.195122,0.9936,2.073171,0.1713103,1.863127E-05,0.1713103,-5.874723E-06,0.9936,-0.02832031,0.9936,-1.000488,0.9936,-0.2011719,0.9936,-1.95122,0.9936,2.5,0.9936,0.7317073,0.1713103,2.265965E-05,0.1713103,6.881819E-06
0.9963,0.2602539,0.9963,-0.96875,0.9963,-0.159668,0.9963,-3.414634,0.9963,2.378049,0.9963,2.012195,0.1717759,1.863127E-05,0.1717759,-5.539025E-06,0.9963,-0.03076172,0.9963,-1.001465,0.9963,-0.1933594,0.9963,-2.317073,0.9963,2.5,0.9963,1.036585,0.1717759,2.333104E-05,0.1717759,3.860533E-06
0.999,0.2646484,0.999,-0.9697266,0.999,-0.1625977,0.999,-2.804878,0.999,2.560976,0.999,1.707317,0.1722414,1.863127E-05,0.1722414,-6.210422E-06,0.999,-0.02734375,0.999,-1.00293,0.999,-0.1958008,0.999,-2.256098,0.999,2.682927,0.999,0.9756098,0.1722414,2.232395E-05,0.1722414,2.853437E-06
1.0017,0.2631836,1.0017,-0.9682617,1.0017,-0.1601563,1.0017,-2.804878,1.0017,2.560976,1.0017,1.646341,0.1727069,1.863127E-05,0.1727069,-8.560311E-06,1.0017,-0.02441406,1.0017,-1.000488,1.0017,-0.1967773,1.0017,-2.5,1.0017,2.439024,1.0017,0.9756098,0.1727069,1.779202E-05,0.1727069,4.531929E-06
1.0044,0.2617188,1.0044,-0.9707031,1.0044,-0.1640625,1.0044,-2.5,1.0044,2.804878,1.0044,2.012195,0.1731724,1.896696E-05,0.1731724,-1.040665E-05,1.0044,-0.02441406,1.0044,-1.001953,1.0044,-0.1982422,1.0044,-2.560976,1.0044,2.195122,1.0044,0.9756098,0.1731724,1.258869E-05,0.1731724,6.378271E-06
1.0071,0.2636719,1.0071,-0.9692383,1.0071,-0.1625977,1.0071,-2.560976,1.0071,2.682927,1.0071,1.890244,0.1736379,2.064546E-05,0.1736379,-1.15816E-05,1.0071,-0.02880859,1.0071,-1.00293,1.0071,-0.2016602,1.0071,-2.439024,1.0071,1.890244,1.0071,1.097561,0.1736379,8.392462E-06,0.1736379,6.881819E-06
1.0098,0.2714844,1.0098,-0.9667969,1.0098,-0.1679688,1.0098,-2.621951,1.0098,2.134146,1.0098,1.646341,0.1741034,2.131685E-05,0.1741034,-1.12459E-05,1.0098,-0.02539063,1.0098,-1.002441,1.0098,-0.2026367,1.0098,-2.195122,1.0098,1.707317,1.0098,0.7926829,0.1741034,5.203327E-06,0.1741034,5.874723E-06
1.0125,0.2695313,1.0125,-0.965332,1.0125,-0.1655273,1.0125,-2.317073,1.0125,2.256098,1.0125,1.768293,0.174569,1.930266E-05,0.174569,-1.02388E-05,1.0125,-0.02636719,1.0125,-1.003906,1.0125,-0.2036133,1.0125,-2.073171,1.0125,1.585366,1.0125,0.7926829,0.174569,3.860533E-06,0.174569,3.524834E-06
1.0152,0.2661133,1.0152,-0.9663086,1.0152,-0.1674805,1.0152,-2.5,1.0152,1.646341,1.0152,1.768293,0.1750345,1.493858E-05,0.1750345,-9.567407E-06,1.0152,-0.02490234,1.0152,-1.00293,1.0152,-0.2021484,1.0152,-2.012195,1.0152,1.646341,1.0152,0.9756098,0.1750345,3.692683E-06,0.1750345,1.174945E-06
1.0179,0.2636719,1.0179,-0.9672852,1.0179,-0.1699219,1.0179,-2.378049,1.0179,1.829268,1.0179,1.646341,0.1755,1.242084E-05,0.1755,-9.567407E-06,1.0179,-0.02294922,1.0179,-1,1.0179,-0.2075195,1.0179,-1.707317,1.0179,1.890244,1.0179,1.097561,0.1755,6.54612E-06,0.1755,-1.174945E-06
1.0206,0.265625,1.0206,-0.965332,1.0206,-0.1665039,1.0206,-2.317073,1.0206,1.646341,1.0206,1.829268,0.1759655,1.493858E-05,0.1759655,-8.89601E-06,1.0206,-0.02392578,1.0206,-0.9980469,1.0206,-0.2094727,1.0206,-1.52439,1.0206,1.768293,1.0206,0.7926829,0.1759655,1.12459E-05,0.1759655,-2.18204E-06
1.0233,0.2680664,1.0233,-0.9677734,1.0233,-0.168457,1.0233,-2.439024,1.0233,0.9146342,1.0233,1.768293,0.176431,2.198825E-05,0.176431,-8.224612E-06,1.0233,-0.02587891,1.0233,-0.9985352,1.0233,-0.2070313,1.0233,-1.585366,1.0233,2.012195,1.0233,0.5487805,0.176431,1.728847E-05,0.176431,-3.189136E-06
1.026,0.2617188,1.026,-0.965332,1.026,-0.1704102,1.026,-2.621951,1.026,1.219512,1.026,1.768293,0.1768965,2.803082E-05,0.1768965,-8.89601E-06,1.026,-0.02978516,1.026,-1.002441,1.026,-0.2075195,1.026,-1.158537,1.026,2.195122,1.026,0.7317073,0.1768965,2.366674E-05,0.1768965,-4.531929E-06
1.0287,0.2597656,1.0287,-0.9658203,1.0287,-0.1704102,1.0287,-2.5,1.0287,1.097561,1.0287,1.95122,0.1773621,2.937362E-05,0.1773621,-9.567407E-06,1.0287,-0.02148438,1.0287,-1.005371,1.0287,-0.2055664,1.0287,-1.036585,1.0287,1.768293,1.0287,0.6097561,0.1773621,2.836652E-05,0.1773621,-6.210422E-06
1.0314,0.2607422,1.0314,-0.9667969,1.0314,-0.1694336,1.0314,-2.682927,1.0314,1.036585,1.0314,1.768293,0.1778276,2.735943E-05,0.1778276,-8.728161E-06,1.0314,-0.02392578,1.0314,-1.005371,1.0314,-0.2114258,1.0314,-1.036585,1.0314,2.256098,1.0314,0.8536586,0.1778276,2.937362E-05,0.1778276,-6.210422E-06
1.0341,0.2636719,1.0341,-0.9682617,1.0341,-0.1694336,1.0341,-2.804878,1.0341,0.8536586,1.0341,2.012195,0.1782931,2.635233E-05,0.1782931,-8.392462E-06,1.0341,-0.02587891,1.0341,-0.9985352,1.0341,-0.2099609,1.0341,-1.158537,1.0341,2.134146,1.0341,0.9756098,0.1782931,2.803082E-05,0.1782931,-1.174945E-06
1.0368,0.2636719,1.0368,-0.9677734,1.0368,-0.1640625,1.0368,-2.682927,1.0368,1.036585,1.0368,1.829268,0.1787586,2.903792E-05,0.1787586,-8.392462E-06,1.0368,-0.02880859,1.0368,-1.000977,1.0368,-0.2084961,1.0368,-0.7926829,1.0368,2.134146,1.0368,1.036585,0.1787586,2.836652E-05,0.1787586,6.378271E-06
1.0395,0.2617188,1.0395,-0.9628906,1.0395,-0.1635742,1.0395,-2.621951,1.0395,0.8536586,1.0395,2.195122,0.1792241,3.105211E-05,0.1792241,-8.560311E-06,1.0395,-0.02929688,1.0395,-1.001465,1.0395,-0.2070313,1.0395,-0.8536586,1.0395,1.95122,1.0395,1.036585,0.1792241,2.937362E-05,0.1792241,1.007095E-05
1.0422,0.2568359,1.0422,-0.9648438,1.0422,-0.1650391,1.0422,-2.743902,1.0422,0.9756098,1.0422,1.890244,0.1796896,2.937362E-05,0.1796896,-7.553216E-06,1.0422,-0.02734375,1.0422,-0.9941406,1.0422,-0.2084961,1.0422,-0.9146342,1.0422,2.012195,1.0422,1.097561,0.1796896,2.786297E-05,0.1796896,8.728161E-06
1.0449,0.262207,1.0449,-0.9614258,1.0449,-0.1606445,1.0449,-2.804878,1.0449,0.7926829,1.0449,1.890244,0.1801552,2.584878E-05,0.1801552,-5.539025E-06,1.0449,-0.02685547,1.0449,-0.9980469,1.0449,-0.2055664,1.0449,-1.097561,1.0449,2.5,1.0449,1.158537,0.1801552,2.467384E-05,0.1801552,8.560311E-06
1.0476,0.2592773,1.0476,-0.9667969,1.0476,-0.1660156,1.0476,-2.743902,1.0476,0.3658537,1.0476,1.829268,0.1806207,2.098116E-05,0.1806207,-4.699779E-06,1.0476,-0.02392578,1.0476,-0.9970703,1.0476,-0.203125,1.0476,-0.9146342,1.0476,2.378049,1.0476,1.219512,0.1806207,2.265965E-05,0.1806207,1.258869E-05
1.0503,0.253418,1.0503,-0.9658203,1.0503,-0.1606445,1.0503,-2.804878,1.0503,0.4878049,1.0503,1.890244,0.1810862,1.460288E-05,0.1810862,-5.874723E-06,1.0503,-0.02392578,1.0503,-0.9941406,1.0503,-0.2060547,1.0503,-1.158537,1.0503,2.134146,1.0503,1.036585,0.1810862,2.232395E-05,0.1810862,1.695277E-05
1.053,0.2563477,1.053,-0.96875,1.053,-0.1625977,1.053,-2.804878,1.053,0.1829268,1.053,1.768293,0.1815517,1.02388E-05,0.1815517,-7.721065E-06,1.053,-0.02441406,1.053,-0.9951172,1.053,-0.2114258,1.053,-1.097561,1.053,1.52439,1.053,0.9146342,0.1815517,2.064546E-05,0.1815517,1.594568E-05
1.0557,0.2583008,1.0557,-0.96875,1.0557,-0.159668,1.0557,-2.987805,1.0557,0.06097561,1.0557,1.890244,0.1820172,9.903105E-06,0.1820172,-9.567407E-06,1.0557,-0.02587891,1.0557,-0.9926758,1.0557,-0.2158203,1.0557,-1.585366,1.0557,0.9146342,1.0557,1.036585,0.1820172,1.728847E-05,0.1820172,1.05745E-05
1.0584,0.2617188,1.0584,-0.9736328,1.0584,-0.1572266,1.0584,-3.109756,1.0584,0.06097561,1.0584,1.707317,0.1824827,1.05745E-05,0.1824827,-9.231709E-06,1.0584,-0.02294922,1.0584,-0.9926758,1.0584,-0.2163086,1.0584,-1.707317,1.0584,0.9756098,1.0584,0.7926829,0.1824827,1.393149E-05,0.1824827,5.874723E-06
1.0611,0.2617188,1.0611,-0.9692383,1.0611,-0.1567383,1.0611,-3.109756,1.0611,0,1.0611,1.95122,0.1829483,1.258869E-05,0.1829483,-7.217518E-06,1.0611,-0.02783203,1.0611,-0.9951172,1.0611,-0.2128906,1.0611,-1.890244,1.0611,0.8536586,1.0611,0.9146342,0.1829483,1.15816E-05,0.1829483,5.539025E-06
1.0638,0.2626953,1.0638,-0.9716797,1.0638,-0.1601563,1.0638,-3.04878,1.0638,0,1.0638,1.95122,0.1834138,1.863127E-05,0.1834138,-5.539025E-06,1.0638,-0.02539063,1.0638,-0.9921875,1.0638,-0.2143555,1.0638,-2.195122,1.0638,0.7317073,1.0638,0.7317073,0.1834138,9.903105E-06,0.1834138,6.54612E-06
1.0665,0.2617188,1.0665,-0.972168,1.0665,-0.1586914,1.0665,-3.231707,1.0665,-0.1219512,1.0665,1.829268,0.1838793,2.584878E-05,0.1838793,-5.539025E-06,1.0665,-0.02587891,1.0665,-0.9882813,1.0665,-0.2182617,1.0665,-2.317073,1.0665,0.9756098,1.0665,1.280488,0.1838793,9.231709E-06,0.1838793,7.888914E-06
1.0692,0.2602539,1.0692,-0.9726563,1.0692,-0.1625977,1.0692,-2.926829,1.0692,0,1.0692,1.585366,0.1843448,2.752728E-05,0.1843448,-6.881819E-06,1.0692,-0.02636719,1.0692,-0.9926758,1.0692,-0.2148438,1.0692,-2.256098,1.0692,1.097561,1.0692,0.8536586,0.1843448,7.888914E-06,0.1843448,7.721065E-06
1.0719,0.2583008,1.0719,-0.9716797,1.0719,-0.1591797,1.0719,-2.987805,1.0719,-0.2439024,1.0719,1.890244,0.1848103,2.299535E-05,0.1848103,-7.888914E-06,1.0719,-0.02246094,1.0719,-0.9931641,1.0719,-0.2114258,1.0719,-2.256098,1.0719,0.9146342,1.0719,0.8536586,0.1848103,7.385367E-06,0.1848103,5.203327E-06
1.0746,0.2612305,1.0746,-0.9711914,1.0746,-0.1645508,1.0746,-2.865854,1.0746,0.06097561,1.0746,2.134146,0.1852759,1.863127E-05,0.1852759,-8.224612E-06,1.0746,-0.02441406,1.0746,-0.9921875,1.0746,-0.2197266,1.0746,-2.073171,1.0746,1.036585,1.0746,0.8536586,0.1852759,1.02388E-05,0.1852759,2.853437E-06
1.0773,0.2646484,1.0773,-0.96875,1.0773,-0.1611328,1.0773,-2.621951,1.0773,-0.1219512,1.0773,2.012195,0.1857414,1.628138E-05,0.1857414,-6.54612E-06,1.0773,-0.02539063,1.0773,-0.9897461,1.0773,-0.2197266,1.0773,-2.256098,1.0773,1.036585,1.0773,0.7317073,0.1857414,1.594568E-05,0.1857414,1.174945E-06
1.08,0.2607422,1.08,-0.9682617,1.08,-0.1577148,1.08,-2.378049,1.08,-0.3048781,1.08,2.012195,0.1862069,1.695277E-05,0.1862069,-5.874723E-06,1.08,-0.02832031,1.08,-0.9887695,1.08,-0.2192383,1.08,-2.256098,1.08,1.158537,1.08,0.9756098,0.1862069,2.098116E-05,0.1862069,8.392462E-07
1.0827,0.2631836,1.0827,-0.9638672,1.0827,-0.1586914,1.0827,-2.073171,1.0827,-0.3048781,1.0827,1.890244,0.1866724,1.829557E-05,0.1866724,-7.217518E-06,1.0827,-0.02978516,1.0827,-0.9897461,1.0827,-0.2148438,1.0827,-2.073171,1.0827,1.158537,1.0827,0.7926829,0.1866724,2.584878E-05,0.1866724,-5.035477E-07
1.0854,0.2641602,1.0854,-0.96875,1.0854,-0.1650391,1.0854,-2.073171,1.0854,-0.3658537,1.0854,1.95122,0.1871379,2.064546E-05,0.1871379,-9.903105E-06,1.0854,-0.02880859,1.0854,-0.9936523,1.0854,-0.2143555,1.0854,-2.195122,1.0854,1.158537,1.0854,0.6097561,0.1871379,2.668803E-05,0.1871379,-1.510643E-06
1.0881,0.2636719,1.0881,-0.9628906,1.0881,-0.1665039,1.0881,-2.378049,1.0881,-0.3658537,1.0881,1.95122,0.1876034,2.467384E-05,0.1876034,-1.107805E-05,1.0881,-0.02636719,1.0881,-0.9897461,1.0881,-0.2192383,1.0881,-2.256098,1.0881,1.463415,1.0881,0.2439024,0.1876034,2.232395E-05,0.1876034,-1.510643E-06
1.0908,0.2631836,1.0908,-0.9633789,1.0908,-0.1665039,1.0908,-2.5,1.0908,-0.3048781,1.0908,1.95122,0.188069,2.786297E-05,0.188069,-9.903105E-06,1.0908,-0.02636719,1.0908,-0.9941406,1.0908,-0.21875,1.0908,-2.256098,1.0908,1.890244,1.0908,0.5487805,0.188069,1.661708E-05,0.188069,3.860533E-06
1.0935,0.262207,1.0935,-0.9643555,1.0935,-0.1625977,1.0935,-2.5,1.0935,-0.1829268,1.0935,1.890244,0.1885345,2.870222E-05,0.1885345,-8.89601E-06,1.0935,-0.02441406,1.0935,-0.9941406,1.0935,-0.2182617,1.0935,-2.560976,1.0935,1.890244,1.0935,0.4268293,0.1885345,1.527428E-05,0.1885345,1.12459E-05
1.0962,0.262207,1.0962,-0.9658203,1.0962,-0.1567383,1.0962,-2.378049,1.0962,0.06097561,1.0962,2.073171,0.189,2.668803E-05,0.189,-9.399558E-06,1.0962,-0.02636719,1.0962,-0.9946289,1.0962,-0.2167969,1.0962,-2.317073,1.0962,2.195122,1.0962,0.1829268,0.189,1.661708E-05,0.189,1.309224E-05
1.0989,0.2646484,1.0989,-0.9658203,1.0989,-0.1616211,1.0989,-2.256098,1.0989,0.2439024,1.0989,1.890244,0.1894655,1.997406E-05,0.1894655,-9.567407E-06,1.0989,-0.02099609,1.0989,-0.9956055,1.0989,-0.2192383,1.0989,-2.317073,1.0989,1.646341,1.0989,0.1829268,0.1894655,1.527428E-05,0.1894655,7.721065E-06
1.1016,0.2578125,1.1016,-0.9672852,1.1016,-0.1611328,1.1016,-1.829268,1.1016,0.1219512,1.1016,1.829268,0.189931,1.05745E-05,0.189931,-8.560311E-06,1.1016,-0.0234375,1.1016,-0.996582,1.1016,-0.2148438,1.1016,-2.317073,1.1016,1.52439,1.1016,0.1829268,0.189931,1.040665E-05,0.189931,1.678492E-07
1.1043,0.2607422,1.1043,-0.9658203,1.1043,-0.1591797,1.1043,-1.646341,1.1043,0.3048781,1.1043,1.829268,0.1903965,3.860533E-06,0.1903965,-6.210422E-06,1.1043,-0.02148438,1.1043,-0.9980469,1.1043,-0.2148438,1.1043,-2.012195,1.1043,1.463415,1.1043,0.2439024,0.1903965,7.721065E-06,0.1903965,-5.203327E-06
1.107,0.262207,1.107,-0.9672852,1.107,-0.1591797,1.107,-1.646341,1.107,0.4878049,1.107,1.646341,0.1908621,4.867628E-06,0.1908621,-3.524834E-06,1.107,-0.02294922,1.107,-1.002441,1.107,-0.2138672,1.107,-2.134146,1.107,1.585366,1.107,0,0.1908621,9.903105E-06,0.1908621,-6.54612E-06
1.1097,0.2617188,1.1097,-0.9667969,1.1097,-0.1591797,1.1097,-1.646341,1.1097,0.6707317,1.1097,1.829268,0.1913276,8.560311E-06,0.1913276,-2.853437E-06,1.1097,-0.02587891,1.1097,-1,1.1097,-0.2138672,1.1097,-1.829268,1.1097,1.768293,1.1097,0.06097561,0.1913276,1.19173E-05,0.1913276,-5.706874E-06
1.1124,0.2636719,1.1124,-0.9658203,1.1124,-0.1591797,1.1124,-1.585366,1.1124,0.4878049,1.1124,1.707317,0.1917931,1.05745E-05,0.1917931,-3.021286E-06,1.1124,-0.02636719,1.1124,-0.996582,1.1124,-0.2167969,1.1124,-2.195122,1.1124,1.463415,1.1124,-0.06097561,0.1917931,1.05745E-05,0.1917931,-4.531929E-06
1.1151,0.2607422,1.1151,-0.9672852,1.1151,-0.1611328,1.1151,-1.585366,1.1151,0.3658537,1.1151,1.646341,0.1922586,7.217518E-06,0.1922586,-1.678492E-06,1.1151,-0.02539063,1.1151,-1.001465,1.1151,-0.2158203,1.1151,-2.439024,1.1151,1.52439,1.1151,0.1219512,0.1922586,5.035477E-06,0.1922586,-3.860533E-06
1.1178,0.2612305,1.1178,-0.9643555,1.1178,-0.15625,1.1178,-1.829268,1.1178,0.4878049,1.1178,1.707317,0.1927241,3.860533E-06,0.1927241,-1.846342E-06,1.1178,-0.02294922,1.1178,-1.000488,1.1178,-0.2148438,1.1178,-2.560976,1.1178,1.768293,1.1178,0.06097561,0.1927241,-8.392462E-07,0.1927241,-3.189136E-06
1.1205,0.262207,1.1205,-0.9624023,1.1205,-0.1577148,1.1205,-1.707317,1.1205,0.3658537,1.1205,1.829268,0.1931897,5.035477E-06,0.1931897,-2.853437E-06,1.1205,-0.02539063,1.1205,-1.005859,1.1205,-0.2089844,1.1205,-2.621951,1.1205,1.646341,1.1205,0.06097561,0.1931897,-1.174945E-06,0.1931897,-2.517739E-06
1.1232,0.2607422,1.1232,-0.965332,1.1232,-0.1606445,1.1232,-1.341463,1.1232,0.4878049,1.1232,2.012195,0.1936552,1.242084E-05,0.1936552,-4.196231E-06,1.1232,-0.02441406,1.1232,-1.001953,1.1232,-0.2124023,1.1232,-2.012195,1.1232,2.195122,1.1232,0.1219512,0.1936552,2.517739E-06,0.1936552,-1.510643E-06
1.1259,0.262207,1.1259,-0.965332,1.1259,-0.1625977,1.1259,-1.341463,1.1259,0.3658537,1.1259,2.134146,0.1941207,1.829557E-05,0.1941207,-4.867628E-06,1.1259,-0.02490234,1.1259,-1.004883,1.1259,-0.2128906,1.1259,-2.012195,1.1259,2.012195,1.1259,0.3658537,0.1941207,7.888914E-06,0.1941207,-5.035477E-07
1.1286,0.2666016,1.1286,-0.9648438,1.1286,-0.1650391,1.1286,-1.219512,1.1286,0.5487805,1.1286,1.95122,0.1945862,1.863127E-05,0.1945862,-7.049668E-06,1.1286,-0.0234375,1.1286,-1,1.1286,-0.2138672,1.1286,-1.890244,1.1286,1.829268,1.1286,0.2439024,0.1945862,1.258869E-05,0.1945862,-1.678492E-07
1.1313,0.2685547,1.1313,-0.9648438,1.1313,-0.1625977,1.1313,-1.402439,1.1313,0.5487805,1.1313,1.95122,0.1950517,1.460288E-05,0.1950517,-9.735256E-06,1.1313,-0.02441406,1.1313,-0.9936523,1.1313,-0.2138672,1.1313,-2.195122,1.1313,1.585366,1.1313,0.4268293,0.1950517,1.896696E-05,0.1950517,0
1.134,0.2675781,1.134,-0.9633789,1.134,-0.1640625,1.134,-1.829268,1.134,0.3658537,1.134,2.134146,0.1955172,1.393149E-05,0.1955172,-1.09102E-05,1.134,-0.0234375,1.134,-0.9956055,1.134,-0.2143555,1.134,-2.073171,1.134,1.52439,1.134,0.7317073,0.1955172,2.635233E-05,0.1955172,2.517739E-06
1.1367,0.269043,1.1367,-0.9614258,1.1367,-0.1611328,1.1367,-1.646341,1.1367,0.3048781,1.1367,1.829268,0.1959828,2.232395E-05,0.1959828,-1.040665E-05,1.1367,-0.02148438,1.1367,-0.9975586,1.1367,-0.215332,1.1367,-2.378049,1.1367,1.158537,1.1367,0.8536586,0.1959828,3.3402E-05,0.1959828,6.210422E-06
1.1394,0.2680664,1.1394,-0.9624023,1.1394,-0.1611328,1.1394,-1.707317,1.1394,0.2439024,1.1394,1.890244,0.1964483,3.3402E-05,0.1964483,-9.063859E-06,1.1394,-0.02246094,1.1394,-0.9980469,1.1394,-0.2148438,1.1394,-2.073171,1.1394,1.036585,1.1394,0.8536586,0.1964483,3.3402E-05,0.1964483,9.063859E-06
1.1421,0.2675781,1.1421,-0.9633789,1.1421,-0.1630859,1.1421,-1.890244,1.1421,0.2439024,1.1421,1.829268,0.1969138,4.078737E-05,0.1969138,-8.89601E-06,1.1421,-0.02392578,1.1421,-0.9936523,1.1421,-0.215332,1.1421,-2.012195,1.1421,0.8536586,1.1421,0.6097561,0.1969138,2.668803E-05,0.1969138,9.063859E-06
1.1448,0.269043,1.1448,-0.9628906,1.1448,-0.1591797,1.1448,-1.95122,1.1448,0.6097561,1.1448,2.012195,0.1973793,4.213016E-05,0.1973793,-9.231709E-06,1.1448,-0.02636719,1.1448,-0.9970703,1.1448,-0.2202148,1.1448,-1.95122,1.1448,0.9146342,1.1448,0.6097561,0.1973793,1.863127E-05,0.1973793,6.54612E-06
1.1475,0.2680664,1.1475,-0.9643555,1.1475,-0.1606445,1.1475,-2.012195,1.1475,0.4268293,1.1475,1.890244,0.1978448,3.675899E-05,0.1978448,-9.231709E-06,1.1475,-0.02099609,1.1475,-0.9956055,1.1475,-0.2197266,1.1475,-1.890244,1.1475,0.9146342,1.1475,0.7926829,0.1978448,1.443504E-05,0.1978448,4.196231E-06
1.1502,0.269043,1.1502,-0.9614258,1.1502,-0.1582031,1.1502,-2.012195,1.1502,0.6097561,1.1502,1.829268,0.1983103,2.584878E-05,0.1983103,-7.553216E-06,1.1502,-0.02392578,1.1502,-0.9936523,1.1502,-0.2163086,1.1502,-1.890244,1.1502,0.8536586,1.1502,0.4268293,0.1983103,1.460288E-05,0.1983103,3.189136E-06
1.1529,0.265625,1.1529,-0.9584961,1.1529,-0.1625977,1.1529,-2.317073,1.1529,0.5487805,1.1529,1.646341,0.1987759,1.762417E-05,0.1987759,-6.54612E-06,1.1529,-0.02197266,1.1529,-0.9941406,1.1529,-0.2158203,1.1529,-2.012195,1.1529,0.6707317,1.1529,0.6097561,0.1987759,1.443504E-05,0.1987759,3.189136E-06
1.1556,0.2680664,1.1556,-0.9594727,1.1556,-0.159668,1.1556,-2.195122,1.1556,0.8536586,1.1556,1.829268,0.1992414,1.460288E-05,0.1992414,-7.217518E-06,1.1556,-0.02490234,1.1556,-0.9960938,1.1556,-0.2143555,1.1556,-2.012195,1.1556,1.097561,1.1556,0.9146342,0.1992414,1.678492E-05,0.1992414,1.846342E-06
1.1583,0.2709961,1.1583,-0.9609375,1.1583,-0.159668,1.1583,-2.804878,1.1583,1.585366,1.1583,1.52439,0.1997069,1.695277E-05,0.1997069,-7.385367E-06,1.1583,-0.02148438,1.1583,-0.9951172,1.1583,-0.2128906,1.1583,-2.134146,1.1583,0.9756098,1.1583,0.4878049,0.1997069,2.265965E-05,0.1997069,1.174945E-06
1.161,0.2670898,1.161,-0.9604492,1.161,-0.1577148,1.161,-2.804878,1.161,1.768293,1.161,1.707317,0.2001724,2.165255E-05,0.2001724,-5.539025E-06,1.161,-0.01904297,1.161,-0.996582,1.161,-0.2138672,1.161,-2.256098,1.161,1.158537,1.161,0.5487805,0.2001724,2.601663E-05,0.2001724,1.678492E-06
1.1637,0.2719727,1.1637,-0.9614258,1.1637,-0.1606445,1.1637,-3.109756,1.1637,1.768293,1.1637,1.585366,0.2006379,2.517739E-05,0.2006379,-3.189136E-06,1.1637,-0.02539063,1.1637,-0.9975586,1.1637,-0.2158203,1.1637,-2.195122,1.1637,1.158537,1.1637,0.5487805,0.2006379,2.467384E-05,0.2006379,-1.510643E-06
1.1664,0.2675781,1.1664,-0.9648438,1.1664,-0.1591797,1.1664,-3.109756,1.1664,1.95122,1.1664,1.52439,0.2011034,2.702373E-05,0.2011034,-2.014191E-06,1.1664,-0.02148438,1.1664,-0.9956055,1.1664,-0.2119141,1.1664,-2.256098,1.1664,1.158537,1.1664,0.4878049,0.2011034,1.930266E-05,0.2011034,-1.12459E-05
1.1691,0.2670898,1.1691,-0.9594727,1.1691,-0.1577148,1.1691,-2.804878,1.1691,1.829268,1.1691,1.463415,0.201569,2.467384E-05,0.201569,-3.524834E-06,1.1691,-0.01855469,1.1691,-0.9970703,1.1691,-0.2045898,1.1691,-2.256098,1.1691,1.280488,1.1691,0.4268293,0.201569,1.527428E-05,0.201569,-2.030976E-05
1.1718,0.2709961,1.1718,-0.9633789,1.1718,-0.1630859,1.1718,-2.621951,1.1718,2.134146,1.1718,1.463415,0.2020345,2.265965E-05,0.2020345,-6.210422E-06,1.1718,-0.01953125,1.1718,-0.9980469,1.1718,-0.2050781,1.1718,-2.195122,1.1718,1.768293,1.1718,0.6097561,0.2020345,1.443504E-05,0.2020345,-2.366674E-05
1.1745,0.2719727,1.1745,-0.9638672,1.1745,-0.1611328,1.1745,-2.804878,1.1745,1.890244,1.1745,1.707317,0.2025,3.071641E-05,0.2025,-8.89601E-06,1.1745,-0.01708984,1.1745,-0.9985352,1.1745,-0.2089844,1.1745,-2.134146,1.1745,1.707317,1.1745,1.036585,0.2025,1.426719E-05,0.2025,-1.863127E-05
1.1772,0.2734375,1.1772,-0.9692383,1.1772,-0.1582031,1.1772,-2.804878,1.1772,2.073171,1.1772,1.585366,0.2029655,4.414435E-05,0.2029655,-1.05745E-05,1.1772,-0.02001953,1.1772,-0.9951172,1.1772,-0.2089844,1.1772,-1.829268,1.1772,2.073171,1.1772,0.7317073,0.2029655,9.903105E-06,0.2029655,-1.15816E-05
1.1799,0.2680664,1.1799,-0.9667969,1.1799,-0.1591797,1.1799,-2.926829,1.1799,2.256098,1.1799,1.707317,0.203431,4.934768E-05,0.203431,-1.05745E-05,1.1799,-0.01708984,1.1799,-1.001953,1.1799,-0.2084961,1.1799,-1.585366,1.1799,2.195122,1.1799,0.6707317,0.203431,5.874723E-06,0.203431,-5.874723E-06
1.1826,0.2675781,1.1826,-0.9628906,1.1826,-0.1601563,1.1826,-2.987805,1.1826,2.073171,1.1826,1.52439,0.2038966,4.145876E-05,0.2038966,-9.903105E-06,1.1826,-0.01367188,1.1826,-1.004395,1.1826,-0.2080078,1.1826,-1.829268,1.1826,2.560976,1.1826,0.6707317,0.2038966,6.210422E-06,0.2038966,-4.196231E-06
1.1853,0.2700195,1.1853,-0.9667969,1.1853,-0.1577148,1.1853,-3.109756,1.1853,2.378049,1.1853,1.585366,0.2043621,3.038071E-05,0.2043621,-9.567407E-06,1.1853,-0.01220703,1.1853,-0.9970703,1.1853,-0.2104492,1.1853,-1.585366,1.1853,2.439024,1.1853,0.9146342,0.2043621,7.888914E-06,0.2043621,-2.349889E-06
1.188,0.2685547,1.188,-0.9692383,1.188,-0.1542969,1.188,-3.170732,1.188,1.890244,1.188,1.52439,0.2048276,2.534523E-05,0.2048276,-8.89601E-06,1.188,-0.01171875,1.188,-0.9990234,1.188,-0.2124023,1.188,-1.646341,1.188,2.926829,1.188,0.9146342,0.2048276,8.89601E-06,0.2048276,1.174945E-06
1.1907,0.2700195,1.1907,-0.9643555,1.1907,-0.1523438,1.1907,-3.231707,1.1907,1.890244,1.1907,1.646341,0.2052931,2.803082E-05,0.2052931,-7.553216E-06,1.1907,-0.01416016,1.1907,-0.9990234,1.1907,-0.2114258,1.1907,-1.52439,1.1907,2.804878,1.1907,1.341463,0.2052931,8.224612E-06,0.2052931,9.903105E-06
1.1934,0.2670898,1.1934,-0.9638672,1.1934,-0.1494141,1.1934,-3.109756,1.1934,1.95122,1.1934,1.768293,0.2057586,3.3402E-05,0.2057586,-6.881819E-06,1.1934,-0.015625,1.1934,-0.9970703,1.1934,-0.2133789,1.1934,-0.8536586,1.1934,3.04878,1.1934,1.036585,0.2057586,5.874723E-06,0.2057586,2.131685E-05
1.1961,0.2685547,1.1961,-0.9624023,1.1961,-0.1518555,1.1961,-2.987805,1.1961,1.463415,1.1961,1.585366,0.2062241,3.642328E-05,0.2062241,-5.874723E-06,1.1961,-0.01416016,1.1961,-0.9951172,1.1961,-0.2119141,1.1961,-0.7926829,1.1961,3.04878,1.1961,1.036585,0.2062241,3.189136E-06,0.2062241,2.786297E-05
1.1988,0.2666016,1.1988,-0.9609375,1.1988,-0.152832,1.1988,-3.231707,1.1988,1.463415,1.1988,1.402439,0.2066897,3.508049E-05,0.2066897,-4.867628E-06,1.1988,-0.01123047,1.1988,-0.9951172,1.1988,-0.2163086,1.1988,-0.5487805,1.1988,3.170732,1.1988,1.097561,0.2066897,1.174945E-06,0.2066897,2.366674E-05
1.2015,0.2695313,1.2015,-0.9599609,1.2015,-0.1557617,1.2015,-3.109756,1.2015,1.52439,1.2015,1.463415,0.2071552,2.769513E-05,0.2071552,-4.867628E-06,1.2015,-0.01269531,1.2015,-0.9956055,1.2015,-0.2109375,1.2015,-0.3048781,1.2015,3.170732,1.2015,0.9756098,0.2071552,1.174945E-06,0.2071552,1.326009E-05
1.2042,0.2646484,1.2042,-0.9594727,1.2042,-0.1601563,1.2042,-3.231707,1.2042,1.768293,1.2042,1.463415,0.2076207,2.316319E-05,0.2076207,-5.874723E-06,1.2042,-0.01269531,1.2042,-0.9956055,1.2042,-0.2124023,1.2042,-0.4268293,1.2042,3.536585,1.2042,1.158537,0.2076207,3.524834E-06,0.2076207,5.371176E-06
1.2069,0.2661133,1.2069,-0.9570313,1.2069,-0.15625,1.2069,-3.536585,1.2069,1.829268,1.2069,1.646341,0.2080862,2.198825E-05,0.2080862,-6.881819E-06,1.2069,-0.01513672,1.2069,-0.9951172,1.2069,-0.2148438,1.2069,-0.3048781,1.2069,3.414634,1.2069,1.280488,0.2080862,3.860533E-06,0.2080862,3.356985E-06
1.2096,0.2675781,1.2096,-0.9594727,1.2096,-0.1586914,1.2096,-3.597561,1.2096,1.890244,1.2096,1.707317,0.2085517,2.165255E-05,0.2085517,-5.706874E-06,1.2096,-0.01367188,1.2096,-0.9956055,1.2096,-0.2133789,1.2096,-0.7317073,1.2096,3.841464,1.2096,1.341463,0.2085517,1.846342E-06,0.2085517,3.692683E-06
1.2123,0.2626953,1.2123,-0.9584961,1.2123,-0.1582031,1.2123,-3.536585,1.2123,1.829268,1.2123,1.707317,0.2090172,1.644922E-05,0.2090172,-5.035477E-06,1.2123,-0.01416016,1.2123,-0.9921875,1.2123,-0.2050781,1.2123,-0.7926829,1.2123,4.207317,1.2123,1.158537,0.2090172,-1.510643E-06,0.2090172,4.531929E-06
