time,hip_angle_l,hip_angle_l_velocity,hip_angle_l_velocity_filt,hip_angle_l_torque_estimated,hip_angle_l_torque_desired,hip_angle_l_torque_measured,hip_angle_l_torque_interaction,knee_angle_l,knee_angle_l_velocity,knee_angle_l_velocity_filt,knee_angle_l_torque_estimated,knee_angle_l_torque_desired,knee_angle_l_torque_measured,knee_angle_l_torque_interaction,thigh_imu_l_accel_x,thigh_imu_l_accel_y,thigh_imu_l_accel_z,thigh_imu_l_gyro_x,thigh_imu_l_gyro_y,thigh_imu_l_gyro_z,shank_imu_l_accel_x,shank_imu_l_accel_y,shank_imu_l_accel_z,shank_imu_l_gyro_x,shank_imu_l_gyro_y,shank_imu_l_gyro_z,foot_imu_l_accel_x,foot_imu_l_accel_y,foot_imu_l_accel_z,foot_imu_l_gyro_x,foot_imu_l_gyro_y,foot_imu_l_gyro_z,insole_l_force_y,insole_l_cop_x,insole_l_cop_z,hip_angle_r,hip_angle_r_velocity,hip_angle_r_velocity_filt,hip_angle_r_torque_estimated,hip_angle_r_torque_desired,hip_angle_r_torque_measured,hip_angle_r_torque_interaction,knee_angle_r,knee_angle_r_velocity,knee_angle_r_velocity_filt,knee_angle_r_torque_estimated,knee_angle_r_torque_desired,knee_angle_r_torque_measured,knee_angle_r_torque_interaction,thigh_imu_r_accel_x,thigh_imu_r_accel_y,thigh_imu_r_accel_z,thigh_imu_r_gyro_x,thigh_imu_r_gyro_y,thigh_imu_r_gyro_z,shank_imu_r_accel_x,shank_imu_r_accel_y,shank_imu_r_accel_z,shank_imu_r_gyro_x,shank_imu_r_gyro_y,shank_imu_r_gyro_z,foot_imu_r_accel_x,foot_imu_r_accel_y,foot_imu_r_accel_z,foot_imu_r_gyro_x,foot_imu_r_gyro_y,foot_imu_r_gyro_z,insole_r_force_y,insole_r_cop_x,insole_r_cop_z
105.475,-36.297021913016,84.2927905484642,92.6197339619748,0.266550272492075,4.12981915610357,1.55925667433101,1.53474405275863,-26.5812656235348,107.57016021753,159.435468214726,-0.240611558634581,-3.20292550100122,-1.32615229973906,-1.31337650118287,4.32304684666012,5.66671866093177,1.70809892729439,-25.7735552830127,-1.299939797461,-134.526706319731,-0.413758874436416,10.4618749028346,-1.44086801057159,-11.7161034434445,82.1342810914765,128.468698518352,-23.5405546172935,0.0794285326654036,-9.12389337674888,-131.412598564408,-12.909503934522,4.25119530198956,0,0,0,-23.4240061488974,14.0135044264671,-0.393815876435348,0.132050338862893,2.09240840738917,1.54103328026211,1.52152328214458,-44.2529764028922,-62.7805023193359,-65.5641811156478,0.541291828429815,2.58772096371726,1.97067311782197,1.95305683756931,3.13138881691453,8.84851557236876,-0.868203088562982,5.30674473163806,-19.2805742209017,5.27828127828993,-3.30979167746282,10.0419790641032,-2.47446183344561,6.48124604540974,41.821812960116,-117.183223964321,-2.51412408363759,9.16193142580715,-1.63022870400498,-15.378824209496,-10.3580853968709,-0.17123283105835,750.855029279163,0.123216493884858,0.109804237382554
105.48,-34.6867145517923,80.9226712408073,92.4258583791192,0.251630446564848,4.48067447729611,1.87893587830931,1.87641591928459,-24.3234390430369,91.1732423366996,151.117418994289,-0.230134051146453,-3.33826213937245,-1.59462902372665,-1.54583831250091,4.52612793338382,6.21139969719912,1.84463525107241,-26.3129947383669,-2.40154235318672,-133.029881496435,0.706127933383824,11.0577697451426,-1.71086739843553,-8.80262162658916,78.627781204537,115.91111017654,-23.3282361960429,0.439378000078796,-9.46615519669211,-135.828849835026,2.50197499256648,-8.0611171738054,0.0439313651274287,0,0,-23.2587401079163,20.6533897696858,0.490854767802193,0.133841853965881,2.07411124070066,1.65530344535689,1.63214866292585,-45.4507452332898,-62.3707373978843,-63.7814345998242,0.567385343893436,2.78337732542356,1.75597032230971,1.70660887750844,3.56097161241481,9.13934102952308,-1.07790764572293,7.60117335352005,-22.7608081544409,6.2091184506064,-3.29129548321978,10.540368786273,-2.29957191521574,4.50041868767582,41.2517532546425,-117.477156444021,-2.50040054321289,9.44356250762939,-1.57831788063049,-16.8350009918213,-12.3199996948242,0.910000026226044,781,0.132411971688271,0.102184519171715
105.485,-33.9175362102846,83.3906762515118,91.2952971930997,0.238564260975926,4.7136882296173,2.22087727759843,2.26227573746222,-23.7566761342438,78.833221320615,138.858871237219,-0.228496098857061,-3.37637097483446,-1.79467637297062,-1.68046591867942,5.08178274034823,6.83055791067375,1.41863323239969,-26.0679970280651,-3.07446939748227,-129.374515658732,1.26178274034824,11.7536612414837,-1.96223504920514,-5.53271885309483,62.9903940150092,104.876413304549,-23.1641037490492,1.34685972151117,-9.21900596192711,-110.879950778797,17.8843523872205,-0.606081544224915,0.573126419379258,0,0,-23.0389747953884,23.1213937710308,3.66435056146614,0.129916938382491,2.06879147546191,1.7390441962032,1.71157841536084,-45.9076252334791,-57.4347293951943,-62.3090344301238,0.586960505716101,2.99712180678571,1.78155777395719,1.68167050024495,3.93405412566236,9.1314031037093,-1.17316275548826,9.78655292941186,-23.0025392286054,5.01026298819638,-3.7887388342165,9.70159462528389,-2.05349621498864,2.79523462397547,42.2023443706134,-117.127626377324,-2.50040054321289,9.44356250762939,-1.57831788063049,-16.8350009918213,-12.3199996948242,0.910000026226044,781,0.132411971688271,0.102184519171715
105.49,-33.1483945452189,85.8585635812602,90.1647899152047,0.225498698417025,4.94669087123125,2.56280237222422,2.64651627089769,-23.1899402501936,66.4937887091183,126.600907999878,-0.226858224669534,-3.41447799316717,-1.99471418343197,-1.82330393281154,5.63741105223316,7.44968660105981,0.992651526621234,-25.8230109998972,-3.74736435485028,-125.719324118466,1.81741105223316,12.449519555892,-2.21359071410547,-2.26297199714645,47.3537524571421,93.8422425958636,-22.9999791283214,2.25429817183343,-8.97186851188627,-85.9322413515509,33.2659963097501,6.84859860969137,1.10229624022205,0,0,-22.8192199618474,25.5892800914679,6.83769503452197,0.125992209949377,2.06347196388352,1.82278095407074,1.79373719011705,-46.3644834484309,-52.4989567543201,-60.8367044683278,0.606534734143677,3.21085609625003,1.80714400552783,1.67152348397532,4.30711884935653,9.12346555639667,-1.26841332323997,11.9718283006701,-23.2442587763977,3.81146469036115,-4.28615846580873,8.86286045924805,-1.80743224829673,1.09013186792646,43.152890159905,-116.778112977137,-2.50040054321289,9.44356250762939,-1.57831788063049,-16.8350009918213,-12.3199996948242,0.910000026226044,781,0.132411971688271,0.102184519171715
105.495,-32.3792162037112,88.3265685919647,89.0342287291852,0.212432512828104,5.17970462355243,2.90474377151333,3.0273133237328,-22.6231773414005,54.1537676930337,114.342360242809,-0.225220272380142,-3.45258682862917,-2.19476153267594,-1.97011985892146,6.19306585919757,8.06884481453445,0.566649507948508,-25.5780132895954,-4.42029139914582,-122.063958280764,2.37306585919757,13.1454110522332,-2.46495836487508,1.00693077634788,31.7163652676143,82.8075457238717,-22.8358466813277,3.16177989326581,-8.72471927712128,-60.9833422953211,48.6483737044042,14.3036342392719,1.63149129447388,0,0,-22.5994546493195,28.0572840928129,10.0111908281859,0.122067294365987,2.05815219864476,1.90652170491706,1.87555448201403,-46.8213634486202,-47.5629487516301,-59.3643042986274,0.626109895966342,3.42460057761218,1.83273145717531,1.66561158408163,4.68020136260408,9.1155276305829,-1.3636684330053,14.1572078765619,-23.4859898505622,2.61260922795114,-4.78360181680545,8.0240862982589,-1.56135654806963,-0.615052195773882,44.1034812758759,-116.42858291044,-2.50040054321289,9.44356250762939,-1.57831788063049,-16.8350009918213,-12.3199996948242,0.910000026226044,781,0.132411971688271,0.102184519171715
105.5,-31.5632262899017,89.7593573792625,88.0919449555421,0.199710281315444,5.36499555576734,3.26963370070758,3.42686767598193,-22.1449202421946,43.1026206062128,101.81302978602,-0.220978857023205,-3.45916251837837,-2.39009977359028,-2.1176251043854,6.66126661160747,8.68563843631904,0.203871286633114,-25.1978965350715,-5.07479290237007,-118.919494475079,2.74167517581399,13.7391522136296,-2.6917875466126,3.92428666371905,16.7913712487838,68.9650174863905,-22.7215518951416,3.79371118545532,-8.55261516571045,-43.6100006103516,59.3600006103516,19.4950008392334,2,0,0,-22.3506419416847,30.118884898534,13.352545556544,0.117110466755647,2.06459412892877,1.95853135774458,1.92560082491363,-47.25444821755,-43.5540766982484,-57.5996832496847,0.645103844720035,3.63923918708282,1.92759601618222,1.73433564552809,4.96469867607678,9.21596528768427,-1.38936669419627,15.8777034077065,-22.9638203661529,0.556122832044443,-5.30528092699652,7.42565883324574,-1.34697649973721,-2.13001430241214,43.7867310754122,-115.371732173815,-2.5410449416632,9.45787391366163,-1.54835933885599,-17.1835710170985,-12.4120222362046,0.0622776831516851,811.275796481217,0.137718821523728,0.0966676722455049
105.505,-30.6397364244963,88.8178937811601,87.5813654455351,0.187774979769519,5.440853666575,3.687218026111,3.87428955711399,-21.869593971654,35.0060304089596,88.6606366816507,-0.210765207324539,-3.39341160465655,-2.57466740357248,-2.26103177189681,6.92894736842105,9.29710526315789,-0.0139473684210654,-24.5077972709552,-5.687134502924,-116.946393762183,2.68131578947367,14.0986842105263,-2.86236842105263,6.03346328784926,3.4980506822612,48.6799870045484,-22.7215518951416,3.79371118545532,-8.55261516571045,-43.6100006103516,59.3600006103516,19.4950008392334,2,0,0,-22.0351640902067,31.2486417168065,17.0794434350516,0.109785962049474,2.09801489435409,1.93776749937158,1.90316304938507,-47.6330218395434,-41.6711485009444,-55.164517463581,0.662767647139425,3.85596237100074,2.18137650740774,1.96838182482659,5.04605263157895,9.56500000000001,-1.25552631578948,16.53216374269,-20.6894087069526,-3.46783625730994,-5.88263157894736,7.37842105263157,-1.20526315789474,-3.20890188434049,40.5630279402209,-112.692332683561,-2.67492185768328,9.50501366665489,-1.4496801275956,-18.3317115181371,-12.7151315086766,-2.73000015239967,911,0.155198836405026,0.0784959565652044
105.51,-29.7162905935114,87.8764750745128,87.0708102812991,0.175840247330096,5.51670816026884,4.10478243999785,4.31634022492545,-21.5942808293925,26.9098262783762,75.5088707179023,-0.200552044639495,-3.32766382611085,-2.7592262328857,-2.41217845765274,7.19661536151363,9.90854293365367,-0.231755637310117,-23.8177309125829,-6.29944690542334,-114.973387131908,2.6209592812273,14.4581990639938,-3.03294116174889,8.1425393409026,-9.79463602384909,28.3959237661968,-22.7215518951416,3.79371118545532,-8.55261516571045,-43.6100006103516,59.3600006103516,19.4950008392334,2,0,0,-21.7197012815407,32.3783446653089,20.8061636052872,0.102461806594908,2.1314340661896,1.91700463107384,1.88135823988015,-48.0115774101529,-39.7883100865986,-52.729467792573,0.680430607302358,4.07267522098847,2.43514489771341,2.20975894803669,5.127402707911,9.91401806942464,-1.1216923192432,17.1865928712873,-18.4151054976693,-7.49160347373426,-6.45995470130389,7.33118552443876,-1.06355657331632,-4.28773802207744,37.3394785196555,-110.013060954106,-2.80879239010066,9.55215117190101,-1.35100562161898,-19.4797972728234,-13.0182263281031,-5.52214484481562,1010.71944840704,0.172678017793339,0.0603251073599983
105.515,-28.792800728106,86.9350114764103,86.5602307712921,0.163904945784171,5.5925662710765,4.52236676540127,4.75265975137768,-21.3189545588519,18.8132360811231,62.3564776135329,-0.190338394940829,-3.26191291238902,-2.9437938628679,-2.57193001070087,7.46429611832722,10.5200097604925,-0.449574292364296,-23.1276316484665,-6.91178850597727,-113.000286419012,2.56059989488698,14.8177310608905,-3.20352203618892,10.2517159650328,-23.0879565903717,8.11089328435473,-22.7215518951416,3.79371118545532,-8.55261516571045,-43.6100006103516,59.3600006103516,19.4950008392334,2,0,0,-21.4042234300627,33.5081014835814,24.5330614837948,0.0951373018887343,2.16485483161492,1.89624077270085,1.86053002754945,-48.3901510321463,-37.9053818892946,-50.2943020064694,0.698094409721748,4.28939840490638,2.68892538893893,2.45928584472073,5.20875666341317,10.2630527817404,-0.987851940836414,17.8410532062708,-16.1406938384689,-11.5155625630886,-7.03730535325473,7.2839477438246,-0.921843231473852,-5.36662560400578,34.1157753844642,-107.333661463851,-2.94266930612074,9.59929092489426,-1.25232641035859,-20.627937773862,-13.3213356005751,-8.31442268036697,1110.44365192582,0.190158032674637,0.0421533916796978
105.52,-27.9312171645581,84.6259038776147,86.0172770749687,0.151998340449558,5.60892369220211,4.83506743194251,5.0780808405766,-21.1458930262743,12.96834481771,50.9684208011542,-0.180438188331397,-3.1658075048211,-3.06990747831111,-2.68241697704655,7.29490554622681,11.0125460539312,-0.579148187475306,-22.1001052992278,-9.00781040407588,-110.751821853462,2.39085650434608,14.9719159917029,-3.35255074575268,12.9395216902996,-34.0318818258532,-8.69425512533476,-22.8811456896909,3.07737351704208,-8.01513263444239,-23.5803583940938,54.1236095503355,18.7667313302543,2.38296374950612,0,0,-21.0601390767597,34.2640269464864,27.4465192250585,0.0878562146527642,2.16834506686996,1.91489248122565,1.88043352696454,-48.7634324643236,-37.4087651340635,-47.9471105223568,0.715982405650173,4.52408484126897,2.91858379127173,2.69345078412956,5.11468614184117,10.5229754790597,-1.00297547905967,17.7741159315842,-14.5448032361678,-14.803733702094,-7.12319957526668,7.66083539114973,-0.687878679375759,-5.74022217100545,27.9852033854281,-105.868141831414,-3.01053977012634,9.62318897247314,-1.20229983329773,-21.2100009918213,-13.4750003814697,-9.73000049591064,1161,0.199019730091095,0.0329410284757614
105.525,-27.1332109506363,80.9101708679508,85.4409792155141,0.140120092936141,5.56409579798983,5.03994235514723,5.28954265255409,-21.0779776038129,9.43839873016728,41.3935988663877,-0.170859350008851,-3.03847808294045,-3.13592273134375,-2.74231882100065,6.67604096700909,11.3828290448439,-0.617989060647959,-20.7254900346811,-12.6297617871724,-108.219972342947,2.1086128259581,14.9149493777163,-3.47943093145002,16.2226144267869,-42.5608900254133,-21.9225294618338,-23.2048714909569,1.62432838869673,-6.9248837084579,17.0484893241922,43.5019253148528,17.2894832267327,3.15978121295931,0,0,-20.6866042532218,34.6356000498979,29.5237662997746,0.0806190710724637,2.14105689932634,1.97407857015146,1.94250939648879,-49.1313078339521,-38.3376988803667,-45.6901594471123,0.73410267872184,4.77726629517949,3.12345871447646,2.91201529480819,4.84021063808771,10.6912859294745,-1.17128592947452,16.9653306712811,-13.6465081446849,-17.3355832126081,-6.70371814500196,8.47390433623072,-0.359025953180569,-5.38857640565627,18.8647909441444,-105.650760812834,-3.01053977012634,9.62318897247314,-1.20229983329773,-21.2100009918213,-13.4750003814697,-9.73000049591064,1161,0.199019730091095,0.0329410284757614
105.53,-26.3352427877451,77.1946150341885,84.864708835454,0.12824241180874,5.5192700412892,5.24480750937793,5.49489363144227,-21.010065419737,5.90862095971816,31.8192334842598,-0.161280968430455,-2.91115473246081,-3.20193483659586,-2.81177801067442,6.0572058968787,11.7530943796918,-0.656828081785843,-19.3509403153977,-16.2515404661213,-105.688243557663,1.82638260568944,14.8579854800474,-3.60630506716712,19.5055506167962,-51.0894915394784,-35.1501730394954,-23.528581856127,0.171352545356548,-5.8346867684035,57.6753997523904,32.8807475491505,15.8123055622776,3.93656163571711,0,0,-20.3130872408047,35.0071554357287,31.6009143258985,0.0733822725781625,2.11377003295418,2.03326183692922,2.00651645845179,-49.4991656623175,-39.2665883326709,-43.4333159892182,0.752222087771331,5.03043567673383,3.32832386870716,3.13995242635425,4.56574822204662,10.8595883544054,-1.33958835440537,16.1565839759818,-12.7482558862695,-19.8673119978928,-6.28425671671274,9.28693451205055,-0.0301889075464222,-5.03694740770006,9.74481338806209,-105.433390159552,-3.01053977012634,9.62318897247314,-1.20229983329773,-21.2100009918213,-13.4750003814697,-9.73000049591064,1161,0.199019730091095,0.0329410284757614
105.535,-25.5372365738233,73.4788820245246,84.2884109759994,0.116364164295323,5.47444214707692,5.44968243258266,5.69434026439315,-20.9421499972756,2.37867487217541,22.2444115494933,-0.151702130107909,-2.78382531058017,-3.2679500896285,-2.8905728591946,5.43834131766099,12.1233773706045,-0.695668954958496,-17.9763250508509,-19.8734918492178,-103.156394047149,1.54413892730146,14.8010188660608,-3.73318525286446,22.7886433532835,-59.6184997390384,-48.3784473759944,-23.8523076573929,-1.2816925829888,-4.74443784241901,98.3042474706763,22.2590633136677,14.335057458756,4.71337909917029,0,0,-19.9395524172668,35.3787285391402,33.6781614006146,0.066145128997862,2.08648186541056,2.09244792585503,2.07272208114031,-49.867041031946,-40.1955220789742,-41.1763649139736,0.770342360842998,5.28361713064435,3.53319879191188,3.37723756492891,4.29127271829316,11.0278988048202,-1.50789880482022,15.3477987156787,-11.8499607947866,-22.3991615084068,-5.86477528644802,10.1000034571315,0.298663818648768,-4.68530164235089,0.624400946778446,-105.216009140973,-3.01053977012634,9.62318897247314,-1.20229983329773,-21.2100009918213,-13.4750003814697,-9.73000049591064,1161,0.199019730091095,0.0329410284757614
105.54,-24.8662109923354,70.6950827155296,82.7667202541576,0.104501486542332,5.37565785423083,5.55124088945172,5.78489768470879,-20.9386106100083,-0.454308676693649,15.4607848656481,-0.143739089312932,-2.66020229443198,-3.25912866387645,-2.90336943037763,4.82110299588312,12.2222589405287,-0.696872674966502,-16.0875253591306,-22.8811794988613,-100.962161084749,0.931316154952625,14.5535536431724,-3.60114019641881,25.0574789610304,-66.0229534959624,-57.3655999757507,-23.7646396499406,-1.83825606799961,-3.27163185416266,105.030526953092,14.1359742511496,-12.1233404492062,4.50772531124448,0,0,-19.6044703660589,35.2803586906197,34.7717249481893,0.0589361941393353,2.02465750543931,2.12871133851884,2.11842036966178,-50.217967729569,-40.8914717754718,-40.01391027786,0.789623304938636,5.54335298394697,3.75881771489118,3.64430232860341,4.25727754079659,11.0719499280789,-1.54210443430384,13.8642769838602,-12.2316077795965,-23.1753192357081,-5.47534906502652,10.5624506472893,0.684187416298804,-4.11392641091068,-3.33430651771758,-105.504502030261,-3.03569192374535,9.6558081985945,-1.19797681912024,-20.7907469984877,-13.7104716866234,-12.2225512677872,1176.26051535142,0.199129473530157,0.0306894452451806
105.545,-24.2693866583495,68.4560214989148,80.6920958317284,0.0926470167639814,5.24531507903596,5.59239269189256,5.80996782582488,-20.9727148576646,-2.87995729465451,10.3087976607529,-0.136720284762761,-2.53873725792118,-3.20654580520204,-2.88049891469518,4.20476898467336,12.1624459352215,-0.676068151381366,-13.8979134632872,-25.5299035664138,-98.965183666546,0.125140866028459,14.1946756113288,-3.31767856257128,26.7333989165,-71.1855574967193,-63.8734347453615,-23.4364023868494,-1.87064375064982,-1.57501423182123,91.9327796290634,7.47332547876512,-53.1914712661588,3.72755567680175,0,0,-19.2918482612153,34.9071821518629,35.2901619508028,0.0517432095682891,1.94263342648029,2.15157345098598,2.1533030385325,-50.5590102061324,-41.451236583607,-39.4913748582022,0.809584408735595,5.80694115179273,3.99658374655171,3.93197954162461,4.36390072417044,11.0433437081494,-1.49789482168542,11.9860908268684,-13.3617300484189,-22.9248944147759,-5.10346820594214,10.8199066266554,1.10287845344973,-3.41402114215136,-4.27500488352713,-106.088826612437,-3.07555370608479,9.70750399019255,-1.19112559465637,-20.1263024471244,-14.0836526895467,-16.1728100743915,1200.44577401915,0.199303397765327,0.0271210780184187
105.55,-23.6725907825141,66.2170670466151,78.6175703328363,0.0807931122378617,5.11497851892669,5.63354253210746,5.83059073306529,-21.0068174791409,-5.30549025132326,5.15705611612871,-0.129701814887611,-2.4172780131821,-3.15396545381633,-2.86475367915005,3.58846436188679,12.1026357819552,-0.655264619810516,-11.7084059738855,-28.1785013358513,-96.9683014694671,-0.680995982342164,13.8358146917315,-3.0342304449184,28.4092389597077,-76.3479153309684,-70.380959204331,-23.1081807749724,-1.90302988897033,0.12152249133928,78.8356568400015,0.81099439895991,-94.2576438468527,2.9474232428947,0,0,-18.9792410630141,34.5340234071429,35.8085742329793,0.0445505679776249,1.86061325864462,2.17443447332759,2.19088491283587,-50.9000364208955,-42.0109747006871,-38.9688643544045,0.829544560734738,6.07051675106287,4.23433844090383,4.22727013741378,4.47051882347107,11.0147388522395,-1.45368731709735,10.1079942267218,-14.4917984300455,-22.6744815347563,-4.73160507911311,11.0773503298447,1.52154952631317,-2.71414924671212,-5.21565839436977,-106.673123332482,-3.11541358770983,9.75919731679958,-1.18427469687686,-19.461889578221,-14.4568158982203,-20.1228805222887,1224.62987947026,0.199477313707334,0.0235528809407712
105.555,-23.0757664485281,63.9780058300003,76.542945910407,0.0689386424595115,4.98463574373183,5.67469433454831,5.84753735665663,-21.0409217267973,-7.73113886928412,0.00506891123348008,-0.122683010337441,-2.2958129766713,-3.10138259514191,-2.85495739934796,2.97213035067702,12.042822776648,-0.63446009622538,-9.51879407804211,-30.8272254034038,-94.9713240512638,-1.48717127126633,13.4769366598879,-2.75076881107088,30.0851589151773,-81.5105193317253,-76.8887939739419,-22.7799435118812,-1.93541757162054,1.81814011368071,65.7379095159727,-5.85165437342457,-135.325774663805,2.16725360845196,0,0,-18.6666189581704,34.1608468683861,36.3270112355928,0.0373575834065787,1.7785891796856,2.19729658579473,2.23122131744813,-51.2410788974589,-42.5707395088223,-38.4463289347466,0.849505664531696,6.33410491890863,4.47210447256435,4.52909043801176,4.57714200684492,10.9861326323099,-1.40947770447892,8.22980806973001,-15.6219206988679,-22.4240567138241,-4.35972422002874,11.3348063092108,1.94024056346409,-2.01424397795279,-6.15635676017932,-107.257447914657,-3.15527537004927,9.81089310839763,-1.17742347241299,-18.7974450268577,-14.8299969011436,-24.073139328893,1248.81513813799,0.199651237942504,0.0199845137140093
105.56,-22.4135011641581,63.6505142647615,74.1768688234209,0.0476743939526804,4.79367175145225,5.64614065241461,5.79198325358363,-21.1876203313476,-11.7591319574282,-3.36684409343164,-0.115418315629398,-2.19728631566695,-2.97985106773529,-2.7808250779804,2.49987974503882,12.0087424840649,-0.681018038244172,-7.41701544301046,-29.8440503805397,-94.1364302506251,-2.22544992387295,13.3383532037883,-2.45829307630771,29.5652755755248,-78.069225294385,-84.2518013872043,-21.7468265481913,-0.531584673077241,2.02148951375528,53.0123060997039,-6.15654044905335,-150.5657165347,2,0,0,-18.353348069037,33.0131989050329,36.0379739833884,0.0261430256972985,1.71991172210325,2.17603469516984,2.23017384905909,-51.6765985240116,-44.5209928498644,-39.1446509177632,0.866335314462919,6.57135712060856,4.75667602271253,4.8828750189144,4.742425356765,10.9374849681299,-1.42125751593505,6.77740662049023,-15.4495447508961,-22.1551708263363,-4.30976052230908,11.4941618280818,2.25745542050526,-1.74085145074711,-5.89875737177312,-107.973202603135,-3.20098685696831,9.87950631756404,-1.24672260193919,-18.0672302980589,-15.8251359732898,-30.8721049435692,1256.55090191221,0.205025635076161,0.0172739067872522
105.565,-21.7333369554657,63.8446669885074,71.7311111745571,0.0238409418396728,4.58615273908132,5.59856272674044,5.71558882177773,-21.3650546522683,-16.2246466680932,-6.25318248861391,-0.108086076955074,-2.10501351867572,-2.83949618699649,-2.69101138196493,2.06692059559752,11.9816825372248,-0.74596191066037,-5.33907878442643,-27.8696764814671,-93.618616453068,-2.94524450981911,13.259879357952,-2.16333965575083,28.4461296259659,-72.2797329642787,-91.8486309074939,-20.5212863826287,1.2642756346281,1.81734085143765,40.3874877156579,-4.72642220307134,-158.758113788927,2,0,0,-18.039881112829,31.6541293226843,35.5285608108857,0.013830306689857,1.66760195691859,2.14273014719792,2.21973995184426,-52.1379272422777,-46.8508265670698,-40.1761852348865,0.882311417387742,6.8014366818478,5.05403799366014,5.25301671690115,4.92372700059354,10.8833650744497,-1.44831746277514,5.4411129493751,-14.9217087508056,-21.8812306237577,-4.34764444788521,11.6267555675982,2.54699685169415,-1.58383694439108,-5.31412889066024,-108.724867793137,-3.2482974930999,9.95274042643281,-1.33680724227989,-17.3190226750277,-16.9900667673357,-38.4488905749196,1259.79809553302,0.211819558798512,0.0147972166861033
105.57,-21.0532051787879,64.0388104545418,69.2854701458368,8.62616821162288e-06,4.37864362176152,5.55098706970664,5.63843206169389,-21.5424805126548,-20.6899484512972,-9.13938325560644,-0.100754187901133,-2.01274512149361,-2.69914799874676,-2.60278220496986,1.63398209078475,11.954623880674,-0.810902686382289,-3.26124120731572,-25.8953967257237,-93.1008273462317,-3.66500477407035,13.1814092539547,-1.86840029934713,27.327037040223,-66.490516692361,-99.4450981910144,-19.2958046540375,3.06005031100083,1.613201923464,27.7632713160857,-3.29637214888056,-166.950120408152,2,0,0,-17.726429103548,30.2951245443402,35.01917192854,0.00151817478517187,1.61529468600082,2.10942718727426,2.2118062130514,-52.5992339631798,-49.180549191689,-41.2076703657463,0.898286758530049,7.03150527228973,5.35138578560856,5.62491572515193,5.10501999948388,10.8292477613481,-1.47537611932595,4.10488299624925,-14.3938979193209,-21.6073034833669,-4.38552656705634,11.7593429846972,2.83652447678771,-1.42682992489879,-4.72952828616767,-109.47649714177,-3.2956058733362,10.0259710433071,-1.42688758714852,-16.5708507284995,-18.154942014424,-46.0253149252461,1263.04513431911,0.218613158568749,0.0123206446800383
105.575,-20.4342726135254,64.2154846191406,67.0059191830275,-0.0232377014245133,4.17697063398245,5.50769233703613,5.56588792735355,-21.7039413452148,-24.7534561157227,-11.8789869387173,-0.093135267164985,-1.92428752096269,-2.57142853736877,-2.52714196019776,1.22438812877404,11.9223908526798,-0.875772456587757,-1.37231395844707,-23.8666686226081,-92.5893001770384,-4.29835328779592,13.0817936780371,-1.59868807804826,26.1688655994605,-60.9303600793735,-106.711109858622,-18.1266754296526,4.72581654988064,1.43000820689592,16.6469294968593,-2.07030432648855,-174.417396537829,2.02623843903524,0,0,-17.4411819458008,29.0584049224854,34.510662511432,-0.0113789493584291,1.56713698888357,2.07912087440491,2.20913425175908,-53.0190316581726,-51.3006401062012,-42.2225588761254,0.910322191434912,7.25137053317145,5.62197780609131,5.96986985918048,5.28220087415137,10.7819678829276,-1.50131192195176,2.60237161325105,-13.6644770417519,-21.2185722468559,-4.38510287608315,11.9362814517306,3.11889167610539,-1.24896603190363,-4.38994608378926,-110.327804367428,-3.35568744419188,10.117560373404,-1.51992249516912,-15.8808168921627,-19.4753510799297,-54.9587287667447,1264.1370708285,0.225197476674735,0.00974633125593799
105.58,-20.4342726135254,64.2154846191406,66.4063938540448,-0.0405493445124313,4.03438956003339,5.50769233703613,5.5380806223949,-21.7039413452148,-24.7534561157227,-13.1353886911236,-0.0826185495708658,-1.87439412024571,-2.57142853736877,-2.57755123686309,1.05097066937205,11.837868057341,-0.939893197879249,-1.39390343362939,-21.2885254612526,-92.1413185670053,-4.05790050795283,12.7684764194537,-1.58411518230019,24.6162225092652,-57.6883405561616,-110.633197850077,-17.5277508670455,5.07658532611932,1.45862814747002,20.7783454970274,-2.90678856118959,-174.555111469999,2.31769635399657,0,0,-17.4411819458008,29.0584049224854,34.0112882998072,-0.0301832703338445,1.56094860691385,2.07912087440491,2.23872384412082,-53.0190316581726,-51.3006401062012,-43.0691907255381,0.882525131404969,7.36798912666808,5.62197780609131,6.04196263006209,5.41772880460839,10.8038272265497,-1.51588481769983,-0.580276853209411,-10.8974259725511,-19.6695274025244,-3.99746384918458,12.5614586793226,3.32874137487755,-0.860355478621856,-6.52730412683901,-112.18629835604,-3.54485827260824,10.3946852129918,-1.64277885891178,-15.7788066497218,-22.3673424190253,-77.6050095375167,1243.44355886624,0.229663090552593,0.00618523631954746
105.585,-20.4342726135254,64.2154846191406,65.8068971120032,-0.0578601621357733,3.89181528472413,5.50769233703613,5.5128067674982,-21.7039413452148,-24.7534561157227,-14.391730534997,-0.0721023334414422,-1.82450309857703,-2.57142853736877,-2.62468901163064,0.877561478969651,11.7533492922709,-1.00401088172551,-1.41549187936887,-18.7105052325293,-91.693358317911,-3.81745919352933,12.4551741006594,-1.56954298142604,23.0636534531674,-54.4464756209492,-114.555098826083,-16.9288548627335,5.42733737678217,1.48724672337024,24.9095645004378,-3.74323291012701,-174.69281983556,2.60914037147959,0,0,-17.4411819458008,29.0584049224854,33.5119378996554,-0.0489866946698848,1.55476052002242,2.07912087440491,2.26988329518094,-53.0190316581726,-51.3006401062012,-43.9157822053222,0.854729396811801,7.48460215948412,5.62197780609131,6.10963899532164,5.553250272738,10.825685527861,-1.53045701857399,-3.76277356263828,-8.13050684360729,-18.1205564207165,-3.60984330593215,13.1866060968237,3.53858106746533,-0.47176345531115,-8.66456025504789,-114.04470372678,-3.73402008086302,10.67179683854,-1.7656293645406,-15.676801271397,-25.2591958603839,-100.250210474187,1222.75103362495,0.234128491498262,0.00262431118550942
105.59,-20.4342726135254,64.2154846191406,65.2073717830205,-0.0751718052236913,3.74923421077507,5.50769233703613,5.49110415756064,-21.7039413452148,-24.7534561157227,-15.6481322874033,-0.061585615847323,-1.77460969786005,-2.57142853736877,-2.66702289972865,0.70414401956766,11.6688264969321,-1.06813162301701,-1.43708135455119,-16.1323620711738,-91.2453767078778,-3.57700641368624,12.141856842076,-1.55497008567797,21.5110103629721,-51.2044560977374,-118.477186817538,-16.3299303001265,5.77810615302085,1.51586666394434,29.0409805006059,-4.57971714482806,-174.83053476773,2.90059828644093,0,0,-17.4411819458008,29.0584049224854,33.0125636880306,-0.0677910156453003,1.5485721380527,2.07912087440491,2.30215462284777,-53.0190316581726,-51.3006401062012,-44.7624140547349,0.826932336781858,7.60122075298075,5.62197780609131,6.17074361589184,5.68877820319502,10.8475448714831,-1.54502991432206,-6.94542202909874,-5.36345577440652,-16.571511576385,-3.22220427903357,13.8117833244158,3.74843076623749,-0.0831529020293736,-10.8019182980976,-115.903197715392,-3.92319090927938,10.9489216781277,-1.88848572828326,-15.5747910289562,-28.1511871994795,-122.896491244959,1202.05752166269,0.23859410537612,-0.000936783750881113
105.595,-20.4342726135254,64.2154846191406,64.6078750409789,-0.0924826228470333,3.60665993546581,5.50769233703613,5.47392244767421,-21.7039413452148,-24.7534561157227,-16.9044741312766,-0.0510693997178993,-1.72471867619137,-2.57142853736877,-2.70312915801833,0.530734829165258,11.5843077318621,-1.13224930686327,-1.45866980029068,-13.5543418424505,-90.7974164587835,-3.33656509926275,11.8285545232817,-1.54039788480381,19.9584413068743,-47.9625911625249,-122.399087793545,-15.7310342958144,6.1288582036837,1.54448523984457,33.1721995040163,-5.41616149376547,-174.96824313329,3.19204230392395,0,0,-17.4411819458008,29.0584049224854,32.5132132878788,-0.0865944399813406,1.54238405116127,2.07912087440491,2.33501239778366,-53.0190316581726,-51.3006401062012,-45.609005534519,0.799136602188689,7.71783378579679,5.62197780609131,6.22317531762759,5.82429967132462,10.8694031727943,-1.55960211519621,-10.1279187385276,-2.59653664546271,-15.022540594577,-2.83458373578114,14.4369307419169,3.95827045882527,0.305439121281333,-12.9391744263065,-117.761603086132,-4.11235271753417,11.2260333036759,-2.01133623391208,-15.4727856506314,-31.0430406408382,-145.54169218163,1181.3649964214,0.243059506321789,-0.00449770888491915
105.6,-20.4342726135254,64.2154846191406,64.0083497119962,-0.109794265934951,3.46407886151675,5.50769233703613,5.4620900098087,-21.7039413452148,-24.7534561157227,-18.1608758836829,-0.0405526821237801,-1.67482527547439,-2.57142853736877,-2.73173043650829,0.357317369763267,11.4997849365233,-1.19637004815477,-1.480259275473,-10.976198681095,-90.3494348487504,-3.09611231941965,11.5152372646983,-1.52582498905574,18.405798216679,-44.7205716393131,-126.321175784999,-15.1321097332074,6.47962697992238,1.57310518041867,37.3036155041844,-6.25264572846652,-175.10595806546,3.48350021888528,0,0,-17.4411819458008,29.0584049224854,32.013839076254,-0.105398760956756,1.53619566919154,2.07912087440491,2.36787145117185,-53.0190316581726,-51.3006401062012,-46.4556373839317,0.771339542158746,7.83445237929343,5.62197780609131,6.26495120539515,5.95982760178164,10.8912625164164,-1.57417501094428,-13.3105672049881,0.170514423738064,-13.4734957502455,-2.44694470888257,15.0621079695089,4.16812015759742,0.694049674563109,-15.0765324693563,-119.620097074744,-4.30152354595053,11.5031581432636,-2.13419259765475,-15.3707754081905,-33.9350319799338,-168.187972952402,1160.67148445914,0.247525120199647,-0.00805880382130968
105.605,-20.4342726135254,64.2154846191406,63.4088529699547,-0.127105083558293,3.32150458620749,5.50769233703613,5.45628379972549,-21.7039413452148,-24.7534561157227,-19.4172177275563,-0.0300364659943564,-1.62493425380571,-2.57142853736877,-2.75173122521919,0.183908179360866,11.4152661714532,-1.26048773200103,-1.50184772121248,-8.39817845237166,-89.9014745996561,-2.85567100499616,11.201934945904,-1.51125278818159,16.8532291605812,-41.4787067041006,-130.243076761006,-14.5332137288954,6.83037903058523,1.60172375631889,41.4348345075948,-7.08909007740394,-175.243666431021,3.77494423636831,0,0,-17.4411819458008,29.0584049224854,31.5144886761022,-0.124202185292796,1.53000758230011,2.07912087440491,2.40009734219107,-53.0190316581726,-51.3006401062012,-47.3022288637159,0.743543807565577,7.95106541210946,5.62197780609131,6.29426996274562,6.09534906991125,10.9131208177276,-1.58874721181844,-16.4930639144169,2.93743355268187,-11.9245247684376,-2.05932416563014,15.68725538701,4.3779598501852,1.08264169787382,-17.2137885975651,-121.478502445484,-4.49068535420531,11.7802697688118,-2.25704310328356,-15.2687700298657,-36.8268854212924,-190.833173889073,1139.97895921785,0.251990521145316,-0.0116197289553477
105.61,-20.2109645923236,63.3195388614129,62.7871159197236,-0.140058279893798,3.15222978402464,5.48374086613679,5.43305225582571,-21.7895426450811,-23.8982349929308,-20.5178325766687,-0.0218544232328825,-1.56278706369686,-2.56893359248343,-2.75975540682106,-0.0141387994630374,11.274509200632,-1.3253251998717,-1.72663851677621,-5.70736741326792,-89.4567511119383,-2.56612920086959,10.8408040009979,-1.40010240083631,14.9984276598119,-39.8785634492283,-132.028490874605,-12.8800307195592,8.89130819731337,0.907412544740597,62.3712975821461,-11.0844078537919,-168.682976178251,5.30547998907091,0,0,-17.3865955045311,26.8999896897768,30.6190979616097,-0.143457844381009,1.51554034123012,2.07862188542784,2.43052064916129,-53.344068852946,-55.4952961796358,-48.9087941638433,0.71600245487001,8.08845834428703,5.70031908902387,6.38791303818373,6.08648000095034,10.8136420009741,-1.60000000000002,-20.6688335658625,5.09509629612031,-7.4040810154845,-1.45349600256595,16.647919195999,4.65579039903066,1.92438863744061,-19.5074775254789,-124.082415792684,-4.63675785064697,11.9942579269409,-2.35190939903259,-15.1900005340576,-39.060001373291,-208.320007324219,1124,0.25543874502182,-0.0143695082515478
105.615,-19.230848955525,59.3871658004445,62.0901302688708,-0.138239548156561,2.89249473542305,5.37861606575378,5.33547651455005,-22.1652531640211,-20.1446054060603,-21.090414029379,-0.0215852698735305,-1.45911324225065,-2.55798309244353,-2.74920434715313,-0.295648796017996,10.9431744259257,-1.39258865037598,-2.64009278288374,-2.63483942726983,-89.0230910058064,-2.110232480785,10.317643830409,-0.961644353104697,12.1196626999579,-43.8430164762069,-126.572370106676,-7.65391540039625,16.7480823385904,-2.23696787303602,140.261127342545,-25.7852092983165,-139.420882297396,11.0353294764728,0,0,-17.1470115238138,17.4265435103854,28.3816014581428,-0.164242225511411,1.47301572143963,2.07643178541986,2.45725876678222,-54.7706814547863,-73.9059559778771,-53.0907904981567,0.689329038926738,8.29625150612731,6.0441648496724,6.73177930325809,5.58823221943714,10.3029380249231,-1.60000000000002,-28.2102135675315,5.18736440380794,7.18658241351944,-0.108226992480308,18.7455423561696,5.16400313617411,4.30183021219188,-22.3308816207203,-129.212522580116,-4.63675785064697,11.9942579269409,-2.35190939903259,-15.1900005340576,-39.060001373291,-208.320007324219,1124,0.25543874502182,-0.0143695082515478
105.62,-18.2506865820122,55.454605224667,61.3931113823283,-0.136420729693286,2.63274730138211,5.27348625250536,5.24481776238767,-22.5409815986789,-16.3907968277451,-21.6630227855775,-0.021316103679628,-1.35543447712882,-2.54703207023015,-2.72816247564351,-0.577172216348482,10.6118238515544,-1.45985530833105,-3.55359060696496,0.437835071912461,-88.5894102206366,-1.65431402131172,9.79445871298067,-0.523165397545711,9.24076046648978,-47.8076585477244,-121.115989164184,-2.42755087445638,24.6052311293424,-5.38149823027274,218.154671271547,-40.4867117490614,-110.157393056573,16.7654521911641,0,0,-16.9074161185589,7.95264559067752,26.1439982598828,-0.185027597742912,1.43048907386697,2.07424158097718,2.48131038163643,-56.1973620845032,-92.3174936865566,-57.2729862505396,0.662654351064342,8.50405457656335,6.38802700657103,7.05945784213428,5.0899606790292,9.79220969600494,-1.60000000000002,-35.7519531791381,5.2796369112909,21.7779415968236,1.23710616662113,20.843265541287,5.6722401073902,6.6793851550026,-25.1544203496987,-134.342873996168,-4.63675785064697,11.9942579269409,-2.35190939903259,-15.1900005340576,-39.060001373291,-208.320007324219,1124,0.25543874502182,-0.0143695082515478
105.625,-17.2705709452136,51.5222321636986,60.6961257314755,-0.134601997956049,2.37301225278052,5.16836145212235,5.16096266366423,-22.9166921176189,-12.6371672408746,-22.2356042382878,-0.0210469503202761,-1.25176065568262,-2.53608157019026,-2.6965464235639,-0.858682212903441,10.2804890768481,-1.52711875883533,-4.46704487307249,3.51036305791055,-88.1557501145047,-1.19841730122713,9.27129854239181,-0.084707349814094,6.36199550663572,-51.7721115747029,-115.659868396256,2.79856444470655,32.4620052706194,-8.52587864804936,296.044501031946,-55.1875131935861,-80.8952991757178,22.4953016785659,0,0,-16.6678321378416,-1.52080058871381,23.9065017564159,-0.205811978873314,1.38796445407647,2.0720514809692,2.50200140233912,-57.6239746863435,-110.728153484798,-61.454982584853,0.635980935121069,8.71184773840363,6.73187276721957,7.37037072151236,4.591712897516,9.28150571995391,-1.60000000000002,-43.2933331808071,5.37190501897853,36.3686050258275,2.58237517670677,22.9408887014576,6.18045284453366,9.05682672975387,-27.9778244449401,-139.472980783601,-4.63675785064697,11.9942579269409,-2.35190939903259,-15.1900005340576,-39.060001373291,-208.320007324219,1124,0.25543874502182,-0.0143695082515478
105.63,-16.4180090409167,47.6722975092776,59.6889391538775,-0.132307769574167,2.12294386879534,5.04901022507864,5.06934117913818,-23.1982070768581,-8.13146046812044,-22.0884048054004,-0.0204988847614856,-1.14720649263663,-2.51074657589197,-2.64018519314743,-1.15821691176469,9.8773069852941,-1.50865349264704,-5.4429069081336,6.43158247095134,-87.6132046568628,-0.748042279411742,8.68031250000001,-0.0348988970588318,5.52569557915761,-54.8412593046478,-108.425818128177,7.29569534935495,37.8010510924984,-9.79053135128582,359.327643282273,-67.9991155722562,-51.9061414739665,31.2807904411765,0.0151825710610651,-0.00142042638959966,-16.5464729082935,-11.4712904586511,20.7866126675233,-0.225468606649594,1.33424542713017,2.07172349281609,2.52055821750686,-59.0424169374915,-127.022369507481,-66.8379145146948,0.609609542962978,8.89063347950856,7.03193271160126,7.62060631940895,3.95742187499999,8.78222886029411,-1.52231158088237,-50.4755979938272,6.19542597131446,51.5011120188816,3.63577205882352,24.4843014705882,6.49438419117645,12.1714721768337,-28.5585511982571,-144.221269063181,-4.73890391693396,12.3460099894334,-2.33469519413569,-19.7477211101967,-42.1860352596816,-220.911080136019,1105.97840073529,0.257079278228476,-0.0167904890181757
105.635,-16.0345287307463,44.1262674130286,57.5416688543907,-0.128266112217512,1.90846620229392,4.87738882074888,4.93136342414802,-23.1333934502005,-0.862099100741506,-19.2953011893654,-0.0189256514509484,-1.03943947835486,-2.4325393805137,-2.52110823236578,-1.52394419306183,9.21010180995474,-1.17505090497737,-6.6479642664283,8.79593551570675,-86.6705142170829,-0.318065610859718,7.84012820512821,-1.41378959276019,12.1977473325513,-54.6185525017224,-94.657656462395,9.11205408610909,33.8836585982712,-4.14496432602136,368.902036341787,-73.8631066686248,-23.9267692666608,51.2969457013575,0.086173362080373,-0.00806206782021157,-16.8597386133617,-23.173189210676,14.4237165180235,-0.24097519514445,1.23938738753037,2.07824075909761,2.5413875228756,-60.4305084608547,-135.532839099027,-76.6343229733098,0.584354279576001,8.96274717347753,7.17096772560707,7.69319988614291,2.82317307692307,8.32506975867269,-1.15905542986427,-56.3361427666983,9.70687159004154,68.6220788410331,3.61600301659124,23.9900754147813,6.09406108597283,17.9954076122377,-20.8949965551273,-147.564921885183,-5.21651933635522,13.9907351850924,-2.25420487286638,-41.0587485800322,-56.8027702945749,-279.784522262274,1021.71285822021,0.264750096930098,-0.0281105308591909
105.64,-15.6510301343564,40.5800682246955,55.3942961625382,-0.124224262134838,1.69397830844682,4.70575923266993,4.79855149192341,-23.0685767329117,6.40760890539415,-16.5020643844688,-0.0173523431209409,-0.931667325213974,-2.35432845583329,-2.39300059223622,-1.88968891402714,8.54286481900451,-0.841432409502265,-7.85307908776045,11.1604013043964,-85.7277788252053,0.111931561085972,6.99990384615384,-2.79274604072398,18.8701172420535,-54.3958350790459,-80.8888382632255,10.9284994357447,29.9660793035818,1.50087190753195,378.476885955258,-79.7273773888118,4.05393713416018,71.3140554298643,0.157167538288323,-0.0147040259568189,-17.1730192564731,-34.8756459665514,8.06051695446859,-0.256482523069399,1.14452482463461,2.08475833615431,2.55714639755369,-61.8186661752209,-144.043714511448,-86.4311985726649,0.55909781189436,9.03486430618065,7.31000936948336,7.74987572302776,1.68887019230769,7.86788885746605,-0.795781957013582,-62.1969669990503,13.2184846516954,85.7438620747444,3.5962330316742,23.4958257918552,5.6937188914027,23.81962076141,-13.2310764761745,-150.90873414893,-5.69415753081913,15.6355388093049,-2.17371071342429,-62.3707922640429,-71.4202023269904,-338.660771762624,937.443297511312,0.27242128141393,-0.0394311124952489
105.645,-15.267549824186,37.0340381284465,53.2470258630513,-0.120182604778183,1.4795006419454,4.53413782834018,4.67000714275452,-23.0037631062541,13.6769702727731,-13.7089607684338,-0.0157791098104037,-0.823900310932197,-2.27612126045502,-2.25697296886633,-2.25541619532428,7.87565964366515,-0.50782982183259,-9.05813644605514,13.5247543491518,-84.7850883854254,0.541908229637996,6.15971955128204,-4.17163673642534,25.5421689954472,-54.1731282761205,-67.1206765974433,12.7448581724988,26.0486868093546,7.14643893279641,388.051279014772,-85.5913684851803,32.0333093414659,91.3302106900452,0.228158329307631,-0.0213456673874308,-17.4862849615413,-46.5775447185762,1.69762080496877,-0.271989111564255,1.04966678503481,2.09127560243584,2.56743184749121,-63.2067576985841,-152.554184102994,-96.2276070312799,0.533842548507383,9.10697800014962,7.44904438348917,7.79172184744888,0.554621394230778,7.41072975584462,-0.432525805995476,-68.0575117719215,16.7299302704225,102.864828896896,3.57646398944193,23.0015997360482,5.29339578619908,29.643556196814,-5.56752183304469,-154.252386970933,-6.17177295024039,17.2802640049638,-2.09322039215498,-83.6818197338784,-86.0369373618837,-397.534213888879,853.177754996229,0.280092100115552,-0.0507511543362641
105.65,-14.9118040141772,33.6730920970585,50.9113182849066,-0.115189745050892,1.27063404553742,4.3462439903543,4.52838400234998,-22.900987001548,20.1678941288096,-10.5192414129299,-0.0109701859680102,-0.71809306992889,-2.18029883479284,-2.09677417258964,-2.52346621293146,7.24368497812347,-0.134606222654368,-10.5638800362508,15.329951325495,-83.6677379859198,0.902841516771977,5.52494895478851,-5.05411521633446,30.9363930451275,-53.7886980320135,-54.4425418774795,13.4483795565891,22.3168324591989,11.5508590810903,383.643084810263,-86.4585145680025,61.8733291644521,124.561983471074,0.286732398774013,-0.0279560018517349,-17.8776023187855,-58.0414686615628,-5.31493372725406,-0.289370779515,0.950098545632195,2.08528369517366,2.55944237884812,-64.6165343976705,-159.408844201844,-106.041447695812,0.512092029110476,9.13640075103428,7.57839584153546,7.81055010483981,-0.51989790957704,6.97966456003887,-0.0816942148760286,-73.8658990379133,19.5596037619211,119.102996693015,3.30182790471561,22.0123602333495,4.76961837627611,34.3504984485377,2.97476848100736,-155.321101688303,-6.57284458366249,18.7500593123299,-1.98438155771345,-101.341913359572,-97.6402751327314,-447.943138571346,775.368497812348,0.286775313038877,-0.0613383528462706
105.655,-14.6942785609208,31.234830450851,47.637851549596,-0.105461283229666,1.08977035924584,4.07736635996291,4.30778110660984,-22.6091855466814,22.7803172550342,-5.35526937123631,0.00995123465654066,-0.622075748386513,-1.99677918230347,-1.84392311327595,-2.30500312521704,6.78733986156445,0.435825173044413,-13.5666237110087,14.3500140184632,-81.6808926202866,0.919833090260889,5.91332777739193,-3.4641894113017,29.9654459886189,-52.5989882127731,-47.1963999557583,8.60972589486881,19.5100295891002,9.77306234132036,309.602304813931,-62.440925747012,100.970939688333,223.598583234947,0.283453997184985,-0.0344085414768511,-18.6575084379051,-68.316999686444,-15.5608133520703,-0.316085461731262,0.827101714465486,2.01699731285203,2.48322029330971,-66.1339021481699,-158.015552361707,-115.93930308395,0.507801476724113,8.95321251140902,7.65948592054239,7.76962736966031,-1.29665555478388,6.67867097252123,0.207162534435266,-79.4128836107446,18.9932179789577,130.940159881931,1.758022084867,18.5582160798203,3.63118295251983,33.4934278986567,15.8907617327107,-145.060229091126,-6.59261074399971,19.3482776894587,-1.73439703073745,-100.81517502588,-94.233465611213,-456.184054676558,729.733986156446,0.28853830408285,-0.0682729434365227
105.66,-14.4767427349852,28.7964525363852,44.3642287193574,-0.0957323575077294,0.908898048487791,3.80847590816908,4.08788632351564,-22.3173701772922,25.3928649543896,-0.19105108606161,0.0308736529169041,-0.526053848267935,-1.81325077869816,-1.58790215747616,-2.08652962011252,6.33097298423501,1.00628376970622,-16.5695105712931,13.3700299832207,-79.6939525121343,0.936825473991253,6.30172511979998,-1.87418779081879,28.9944526325988,-51.4092216623411,-39.9499125024972,3.77084150244125,16.7030928768924,7.99518082749389,235.557994190542,-38.4221916497437,140.070414577791,322.639905548996,0.280175439265712,-0.0408613887906625,-19.4374517467686,-78.593020698976,-25.8071815506134,-0.342801417834425,0.704099018207405,1.94870767430122,2.40101107332825,-67.651342254196,-156.62219408259,-125.837630450314,0.503510719743197,8.77001553647121,7.74057986632148,7.71937828025057,-2.07345023959995,6.37766303215501,0.496033057851243,-84.9601326909705,18.426805187946,142.777887524768,0.21414264879505,15.1039072157789,2.49269324258627,32.6363164794537,28.8073708822372,-134.798867205284,-6.61237784688428,19.9465245925699,-1.48440058327473,-100.288411574725,-90.8264936363294,-464.425363749015,684.097298423502,0.290301379194872,-0.0752078647020211
105.665,-14.2592172817288,26.3581908901778,41.0907619840468,-0.086003895686504,0.72803436219621,3.53959827777768,3.86738145343421,-22.0255687224257,28.0052880806142,4.97292095563201,0.051795073541455,-0.430036526725558,-1.6297311262088,-1.33066771342923,-1.8680665323981,5.87462786767599,1.576715165405,-19.572254246051,12.3900926761889,-77.7071071465011,0.953817047480165,6.6901039424034,-0.284261985786034,28.0235055760903,-50.2195118431007,-32.7037705807759,-1.06781215927906,13.8962900067937,6.21738408772397,161.517214194209,-14.4046028287532,179.168025101672,421.676505312869,0.276897037676684,-0.0473139284157788,-20.2173578658882,-88.8685517238572,-36.0530611754296,-0.369516100050687,0.581102187040696,1.8804212919796,2.31290432513579,-69.1687100046954,-155.228902242453,-135.735485838452,0.499220167356835,8.58682729684595,7.82166994532841,7.66221933137376,-2.85020788480679,6.07666944463737,0.784889807162537,-90.5071172638017,17.8604194049827,154.615050713684,-1.32966317105355,11.6497630622497,1.35425781882999,31.7792459295727,41.7233641339405,-124.537994608108,-6.63214400722149,20.5447429696987,-1.23441605629873,-99.7616732410334,-87.4196841148109,-472.666279854227,638.4627867676,0.292064370238845,-0.0821424552922732
105.67,-14.0481947866192,23.8352920260285,37.8228362554594,-0.0756949999521126,0.545469239556793,3.27277060430706,3.64693360378964,-21.7458426855254,29.9879887387249,9.98110878306079,0.0719154195495339,-0.336034560007059,-1.4464759372252,-1.07450496552309,-1.62550528826216,5.44797625466611,2.11823900871008,-22.2801701051252,11.2274903861417,-75.5219556968831,0.987091974284556,7.09325165906263,1.25030319369558,26.4950152592798,-47.7057616582433,-26.5823184376136,-5.67619657516479,11.2230615615845,4.52419185638428,91,8.47000026702881,216.404998779297,516,0.273774653673172,-0.053459394723177,-21.0031667236864,-98.6996691169406,-46.2256962747815,-0.395474392338966,0.457288406040626,1.80973852666173,2.21671027999953,-70.6711489619046,-153.619487981982,-145.278774523458,0.493825705366148,8.3971219099184,7.90600414837806,7.60403028233357,-3.58057351721275,5.8151718166736,1.06217534218167,-95.6550757587395,17.0343949541966,165.986977510484,-2.88255941518043,8.23704137287434,0.214373392783059,30.8119295052,54.3037387795649,-114.219102774833,-6.60087920002599,21.1619281242518,-1.06232134475408,-98.0443483986928,-83.7896049096049,-479.316400878729,592.337795520531,0.293693907906571,-0.0886612241355334
105.675,-13.9673971219025,19.6227672809093,34.6689630323911,-0.0537918122738463,0.329070059807561,3.04719479995761,3.46438421135504,-21.7078204014548,19.378667818961,11.8696907052452,0.075999745877129,-0.282419664223508,-1.26869160388699,-0.826681097680117,-0.901392575694748,5.61541372874325,2.08127229365409,-19.0908848846081,6.41403213665763,-69.374259438479,1.34588656159272,7.7912702198258,1.67650767316468,13.821096466299,-18.7229979876185,-42.9529087361937,-5.67619657516479,11.2230615615845,4.52419185638428,91,8.47000026702881,216.404998779297,516,0.273774653673172,-0.053459394723177,-21.9062023990731,-99.6357869251493,-54.9237712718324,-0.40628420182055,0.317265290465271,1.69121564641032,2.06731580397106,-71.8736127165688,-147.690750711442,-147.723660755684,0.466366186253155,8.07730913792404,8.05511368206061,7.60911825249973,-3.38269286603067,6.34357839070927,1.10784010783907,-92.8201555627244,11.0182432882212,168.046053069522,-4.61564599751141,5.65589485690586,-0.953339900456261,27.6414363693156,60.161500017922,-102.750561981863,-5.54938391262641,22.157698123992,-2.44764943433248,-72.5253548752663,-75.6993301958031,-454.155110223518,536.45282040647,0.292653681989257,-0.0868599464107121
105.68,-13.8865956043574,15.4100416619765,31.5149394171993,-0.0318875801443055,0.112660561085473,2.82160823904889,3.27715601011292,-21.6697963042953,8.76884099480919,13.7583626842664,0.0800842669654092,-0.228802211819109,-1.09089879292094,-0.583746800030834,-0.177245333886361,5.7828591870593,2.04430381584405,-15.90144758335,1.60034435790694,-63.2262700278047,1.70469825798426,8.48932206553297,2.10273247615098,1.14657331879095,10.2611477231413,-59.3242796647055,-5.67619657516479,11.2230615615845,4.52419185638428,91,8.47000026702881,216.404998779297,516,0.273774653673172,-0.053459394723177,-22.8092811356239,-100.57194937204,-63.6222610357039,-0.4170945267668,0.177235497901904,1.57268711440744,1.9129970215737,-73.0761338105947,-141.761730729668,-150.168663572061,0.438905357735789,7.75748111569022,8.20423032601608,7.61556704948158,-3.18480277892989,6.87201016175863,1.15350705101617,-89.9851001838282,5.00180474266609,170.105226815368,-6.34881522189962,3.07462525922855,-2.12110887598509,24.4707920487888,66.0195405830274,-91.2814743126924,-4.49783848478111,23.1535156069233,-3.8330435831398,-47.0051444812317,-67.6086696980752,-428.992619754723,480.565180423061,0.291613406468877,-0.0850585827921459
105.685,-13.8057979396407,11.1975169168573,28.361066194131,-0.00998439246603916,-0.103738618663759,2.59603243469945,3.08403783679063,-21.6317740202247,-1.8404799249547,15.6469446064508,0.0841685932930043,-0.175187316035557,-0.913114459582727,-0.347655495332055,0.546867378681047,5.95029666113644,2.00733710078805,-12.7121623628329,-3.21311389157716,-57.0785737694005,2.06349284529242,9.18734062629613,2.52893695562008,-11.5273454741898,39.2439113937662,-75.6948699632856,-5.67619657516479,11.2230615615845,4.52419185638428,91,8.47000026702881,216.404998779297,516,0.273774653673172,-0.053459394723177,-23.7123168110106,-101.508067180249,-72.3203360327548,-0.427904336248384,0.037212382326549,1.45416423415604,1.75430517330624,-74.2785975652589,-135.832993459128,-152.613549804287,0.411445838622796,7.43766834369586,8.35333985969863,7.62621952263341,-2.98692212774782,7.4004167357943,1.19917181667357,-87.150179987813,-1.0143469233093,172.164302374405,-8.0819018042306,0.493478743260068,-3.28882216922441,21.3002989129044,71.8773018213845,-79.8129335197219,-3.44634319738153,24.1492856066635,-5.2183716727182,-21.4861509578053,-59.5183949842734,-403.831329099512,424.680205309,0.290573180551563,-0.0832573050673246
105.69,-13.7249964220956,6.98479129792446,25.2070425789391,0.0119198396635017,-0.320148117385846,2.37044587379073,2.88389266427997,-21.5937499230653,-12.4503067491065,17.535616585472,0.0882531143812845,-0.121569863631159,-0.735321648616679,-0.120171896154503,1.27101462048943,6.11774211945249,1.97036862297801,-9.52272506157476,-8.02680167032784,-50.9305843587262,2.42230454168396,9.8853924720033,2.95516175860639,-24.2018686216979,68.2280571045261,-92.0662408917974,-5.67619657516479,11.2230615615845,4.52419185638428,91,8.47000026702881,216.404998779297,516,0.273774653673172,-0.053459394723177,-24.6153955475615,-102.44422962714,-81.0188257966264,-0.438714661194634,-0.102817410236817,1.33563570215315,1.59185182027868,-75.4811186592849,-129.903973477354,-155.058552620664,0.383985010105429,7.11784032146204,8.50245650365411,7.64387959750647,-2.78903204064704,7.92884850684366,1.24483875985067,-84.3151246089169,-7.0307854688644,174.223476120251,-9.81507102861882,-2.08779085441724,-4.45659114475324,18.1296545923775,77.7353423864899,-68.3438458505512,-2.39479776953622,25.1451030895948,-6.60376582152551,4.0340594362293,-51.4277344865455,-378.668838630717,368.792565325591,0.289532905031183,-0.0814559414487584
105.695,-13.697404666415,2.99666863880889,21.7251599140297,0.0333903732025484,-0.568826587682183,2.15667039238182,2.68757737567164,-21.7759299034087,-22.5826697875433,16.0799248662201,0.104677123298622,-0.0713618553526924,-0.60818327336497,0.0464716583486834,1.78174488285199,6.53638356872604,2.06063849787323,-7.3215121998913,-10.9836096916757,-44.1024891834235,3.81932131694593,10.8099158696214,3.06608488238197,-31.2903600535338,86.145314789719,-104.206152211636,-5.59723210568417,11.1562863339986,4.32148112927559,87.0463332109714,10.1467266727541,215.150358618585,540.561746527859,0.273801444107152,-0.0509460410918462,-25.5941928959267,-101.21362161057,-87.7269695829686,-0.436375161173851,-0.285456062711412,1.21488888082786,1.42411281223378,-76.6176457101846,-119.175320353925,-153.541632123341,0.362962636664288,6.78221290164111,8.54473713909846,7.56435459316184,-2.30714826216719,8.50987286442791,1.30540431931942,-79.1880681549487,-12.4177605095519,173.112472956746,-10.6162124879562,-4.10302234860056,-5.4031494841727,16.033043759808,75.4474289578748,-55.7333219604427,5.66817936401873,25.1139921056082,-6.08377541424012,31.5707689029833,-55.6130809784384,-339.07711712315,316.978685404084,0.278200395010116,-0.0809915396796464
105.7,-13.7351072189958,-0.716252334024938,17.8405698147372,0.0543309665674638,-0.857130869895549,1.95736636893157,2.49696859309463,-22.2283563042624,-32.1301813305574,10.5199873711331,0.136245482882239,-0.0253324705732562,-0.543192823591589,0.139475949649156,2.03063121284047,7.26332878997955,2.30706060677272,-6.33278151603532,-11.6620310532138,-36.4390658214752,6.49053697741639,12.0124557610509,2.79009212041454,-31.5246131694012,90.4835608056533,-111.15464723295,-5.42135669638642,11.0075596907392,3.8699890552608,78.240438999044,13.8812536673241,212.355932806089,595.267454703546,0.273861113710106,-0.0453481170947913,-26.6660135404754,-97.3238947204542,-91.9933398320801,-0.417898387683008,-0.520402278368539,1.09140702552404,1.25130687220581,-77.6733077821895,-102.555578699807,-147.162610860267,0.349839087143319,6.42716134561174,8.45591669152341,7.36582117589275,-1.4767057551759,9.15549878974456,1.38425939416725,-71.2478002015207,-17.0328511169658,168.111016820563,-10.2736857565859,-5.42384485230183,-6.07834606255729,15.2542282057553,63.1628304919965,-41.7207264840099,22.3362070855737,23.8226655793297,-3.22550563821445,61.5849829889746,-74.8635768024851,-281.774121574108,270.158484713181,0.254236395804103,-0.0821677634169783
105.705,-13.7728097715766,-4.42917330685876,13.9559797154447,0.0752715599323792,-1.14543515210892,1.75806234548132,2.29701912954307,-22.6807827051161,-41.6776928735716,4.9600498760461,0.167813842465855,0.02069691420618,-0.478202373818208,0.219990312606884,2.27951754282895,7.99027401123306,2.55348271567221,-5.34405083217934,-12.3404524147519,-28.7756424595269,9.16175263788686,13.2149956524804,2.51409935844711,-31.7588662852686,94.8218068215875,-118.103142254264,-5.24548128708867,10.8588330474799,3.418496981246,69.4345447871166,17.615780661894,209.561506993594,649.973162879233,0.273920783313061,-0.0397501930977365,-27.7378341850241,-93.4341678303383,-96.2597100811915,-0.399421614192166,-0.755348494025666,0.967925170220222,1.07693211954569,-78.7289698541943,-85.9358370456898,-140.783589597193,0.336715537622349,6.07210978958236,8.36709624394836,7.18154859694892,-0.646263248184621,9.80112471506121,1.46311446901509,-63.3075322480926,-21.6479417243797,163.109560684381,-9.9311590252156,-6.7446673560031,-6.75354264094188,14.4754126517026,50.8782320261182,-27.7081310075772,39.0042348071287,22.5313390530512,-0.367235862188769,91.599197074966,-94.1140726265318,-224.471126025066,223.338284022278,0.23027239659809,-0.0833439871543101
105.71,-13.8105105264008,-8.14191723787622,10.0715748436031,0.0962111547948454,-1.43372568721747,1.55876782536997,2.08739272440549,-23.1331875330917,-51.2247491661783,-0.599622506629361,0.199380696787237,0.066724104183748,-0.413215022960037,0.287353840164615,2.52839200526403,8.71718456983058,2.79989307451882,-4.35536729359724,-13.018841427379,-21.1125845097167,11.8328409277842,14.4174782036519,2.2381197565389,-31.9931082313327,99.1598459785662,-125.051305953099,-5.06961426399201,10.7101134958972,2.96702643555821,60.6290704633359,21.3501295844158,206.767214426655,704.676262543181,0.273980450070812,-0.0341525360243893,-28.8096037223516,-89.5446264126089,-100.525876898573,-0.380945721722375,-0.990283506830625,0.844449202855337,0.901765660473041,-79.7845815894611,-69.316887864472,-134.404872502594,0.323592613866663,5.71707516334299,8.27828003156536,7.01337751741587,0.184139661128472,10.4467198552393,1.541965783846,-55.3676429074795,-26.2628122721614,158.108343030754,-9.58864862641881,-8.06542687942096,-7.42870702418159,13.6966342336195,38.5942193221351,-13.6962036884722,55.6714677533775,21.2400741006105,2.49089762403259,121.611980004459,-113.363650536416,-167.170862833241,176.520315841421,0.206309540058451,-0.0845201548062073
105.715,-13.9476196983494,-13.6556851656423,5.78405452027164,0.112119830727452,-1.67819887708267,1.38625519398543,1.89476192644411,-23.7167515433828,-60.9996009191107,-8.21384123633417,0.232616584892198,0.126789117259601,-0.329448733029905,0.360053929471987,2.75192943863446,9.41027503305688,3.02192943863444,-2.3480720172029,-13.393171959474,-11.3146212967786,13.4235426132948,15.494867171535,1.7487808630845,-28.7041612313921,87.3472430357994,-128.629493692113,-4.8961674815546,10.6157414701498,2.38639550826121,54.4890482536946,23.0283797631743,194.622424156555,757.608162038707,0.273416580342733,-0.0266394242140977,-29.7812371379381,-85.266398921691,-102.314061280756,-0.356028468154393,-1.25263178350822,0.71552462257281,0.721113300066272,-80.4750136392577,-50.4266272545434,-124.587470139363,0.309351299705102,5.40535799343081,8.14881361260238,6.82210885578814,0.971805745882918,10.8705453780502,1.32593028008172,-47.9823748699615,-27.1995050746543,151.071730784357,-8.98783675922586,-8.98331349921866,-7.52567820651518,12.4011099090436,20.8113215471351,5.03832933386164,63.3827016196037,20.0893362220455,3.74892911929854,127.207340621983,-124.565805896622,-105.865417107941,139.427587450415,0.167315970833667,-0.0905796069509888
105.72,-14.2396398645147,-21.9756709524467,0.868803030359818,0.120185893752301,-1.8543530406366,1.25550310195875,1.73426045415743,-24.5046555549025,-71.1282787247337,-19.0291354039517,0.268449602519804,0.20872470799405,-0.216425741824383,0.448646919527051,2.93595191729777,10.0505724245703,3.20595191729775,1.24648172634711,-13.2935825916873,1.80939007685811,13.3302709460271,16.37716672677,0.926981848779898,-19.9247360274487,50.3653537417692,-126.9551474462,-4.72651379673881,10.6060814139734,1.60453934683824,52.5038742544158,21.5020014556874,167.906392777804,807.773193893497,0.271880999654943,-0.0161419984898554,-30.5966901718417,-80.3829272734602,-100.240099293044,-0.321075412369037,-1.5576715445943,0.578124123607523,0.532679025652715,-80.5962300108877,-27.9988391051285,-109.412084745216,0.293368714819996,5.16118897793484,7.95600976254995,6.58609122007839,1.69277052530352,10.9486919100853,0.65034090635893,-41.4623834476782,-22.4036545821776,140.863820586223,-7.98453612213005,-9.27321192451015,-6.72152518331528,10.3003966822936,-5.53940273566833,31.1307436939684,57.1350969496391,19.1577497533428,2.51305296957844,94.7475389367099,-123.224710649595,-38.325385385397,117.496141363145,0.104901837868062,-0.104248904154262
105.725,-14.5316739556319,-30.2960534769263,-4.04668284281889,0.128252341406545,-2.03051560408387,1.12474477503188,1.56453264482496,-25.2925971375447,-81.2574395153267,-29.8449452977704,0.304284328841208,0.290664205818801,-0.103397361129032,0.524330385180539,3.11998317105423,10.6909003485996,3.38998317105421,4.84120687582644,-13.1939884749918,14.9340272676411,13.2369948311095,17.2595083543695,0.105143647072964,-11.1448921775083,13.3817009701131,-125.280721359256,-4.55685202200434,10.5964208971581,0.822645902683821,50.518605592317,19.9755503630062,141.189087447817,857.940617862724,0.270345345743145,-0.00564407219693614,-31.4121820905401,-75.499222757381,-98.1660384086657,-0.286120689850775,-1.86272585147032,0.440717072713431,0.345617761573739,-80.7174521627081,-5.569981488919,-94.2359757143615,0.277385367806956,4.91700831926422,7.76319671866555,6.36924329849304,2.41376968385624,11.0268421685298,-0.0252806827743668,-34.9420811202676,-17.6075754000585,130.655423624931,-6.98118764274551,-9.56312417357855,-5.91733381416033,8.1995832832472,-31.8913835500765,57.2244022681976,50.8871943632819,18.2261188620343,1.27711788722996,62.2861894090985,-121.883551452578,29.2178669766833,95.5636494771006,0.0424847286908812,-0.11791885317658
105.73,-14.8236941217972,-38.6160392637307,-8.9619343327307,0.136318404431394,-2.2066697676378,0.993992683005198,1.38625082218593,-26.0805011490644,-91.3861173209498,-40.6602394653879,0.340117346468814,0.37259979655325,0.00962563007649055,0.587896769737582,3.30400564971754,11.331197740113,3.57400564971752,8.43576061937645,-13.0943991072051,28.0580386412778,13.1437231638418,18.1418079096045,-0.716655367231637,-2.36546697356492,-23.6001883239171,-123.606375113343,-4.38719833718855,10.5867608409817,0.0407897412608573,48.5334315930383,18.4491720555192,114.473056069067,908.105649717514,0.268809765055355,0.00485335352730616,-32.2276351244436,-70.6157511091502,-96.0920764209537,-0.251167634065419,-2.1677656125564,0.303316573748144,0.160567446584097,-80.8386685343381,16.8578066604959,-79.0605903202145,0.26140278292185,4.67283930376825,7.57039286861312,6.17171663162292,3.13473446327685,11.1049887005649,-0.700870056497157,-28.4220896979843,-12.8117249075818,120.447513426798,-5.9778870056497,-9.85302259887004,-5.11318079096043,6.0988700564972,-58.24210783288,83.3168166283044,44.6395896933173,17.2945323933316,0.0412417375098515,29.8263877238257,-120.542456205551,96.757898699227,73.6322033898305,-0.0199294042747236,-0.131588150379853
105.735,-15.5761442828468,-49.2223486543871,-15.0222935676506,0.139282154763466,-2.30221525052533,0.673509452741739,1.01057021335162,-27.4912058063726,-100.391428526391,-51.4507323016327,0.381506845592859,0.471374122500818,0.0765756313216432,0.594407460009113,3.18794599008322,11.6294899589364,3.55160858194384,9.90592152254658,-14.0699370305065,40.3049609021113,12.0186683313018,18.3427025076033,-1.11422801557341,5.05468517956041,-58.5186242931254,-123.642394170241,-4.28948020935059,10.5811967849731,-0.409548372030258,47.3899993896484,17.5699996948242,99.0849990844727,937,0.267925292253494,0.0108997225761414,-33.1803664624882,-66.3682888053984,-92.7881353971349,-0.211737066360358,-2.46315182592807,0.0594943412226753,-0.128349047264551,-80.1540221198801,42.2347142129134,-60.8984089422338,0.241690363826019,4.46036240861108,7.19381480570053,5.80940645955672,3.55736672070815,10.8700646130906,-1.038432955043,-21.3354017820684,-8.58643253661969,110.653275221582,-5.1747888240654,-9.6221970817604,-4.25535424777816,-0.804403905303653,-71.4215138537707,115.090352114024,39.9252359042141,14.9774765850712,-1.97521192546895,3.2365588636247,-109.67022965168,146.945818759257,58.2637894512621,-0.0499984145154967,-0.124784705224574
105.74,-16.9538931572717,-62.932885696178,-22.6373245773055,0.135315308135414,-2.28826249893043,0.0953581762023519,0.370654749956891,-29.7476766051204,-107.86990396496,-62.2063251295015,0.4304388332468,0.593008710262544,0.0809390368474044,0.528763535058334,2.66431002449619,11.4632169272097,3.24884276297883,8.49044076600101,-16.5056669037829,51.3591915722767,9.49231092387252,17.6180498917198,-0.935546548643252,10.6277576820634,-90.6304290752772,-126.001528764484,-4.28948020935059,10.5811967849731,-0.409548372030258,47.3899993896484,17.5699996948242,99.0849990844727,937,0.267925292253494,0.0108997225761414,-34.3194502017902,-62.985169730508,-87.8139354240179,-0.166229310314982,-2.74539280270291,-0.328848783852092,-0.558764054892509,-78.3748820647224,71.6144370539079,-38.6814264277019,0.216914079329058,4.29095552340189,6.56766605358576,5.21575804564894,3.57473852999303,10.2099358602653,-0.916830290048866,-13.4797899643566,-5.13658116893504,101.422012192423,-4.64370779735629,-8.68411938037702,-3.32472160751687,-14.2300244143571,-66.7093722876082,154.576750361555,37.2939645106706,10.7788547027402,-5.0516655129939,-15.3773348135222,-85.8534778724846,173.559428160167,51.8114031454505,-0.0361309796417435,-0.0901747322942136
105.745,-18.3317077295115,-76.6440765235319,-30.2527187089387,0.131348272348684,-2.274309082,-0.482820669421797,-0.274578342164614,-32.0042550034485,-115.348736013868,-72.9624308367193,0.47937315421759,0.714649098157204,0.085302650441714,0.455202363351673,2.14064908938146,11.2969359667704,2.94606250665656,7.07489251239967,-18.9415129245904,62.4139493623062,6.96583304734744,16.8933627208501,-0.756856561305531,16.2010959359614,-122.743765105571,-128.360775853819,-4.28948020935059,10.5811967849731,-0.409548372030258,47.3899993896484,17.5699996948242,99.0849990844727,937,0.267925292253494,0.0108997225761414,-35.4585882581843,-59.6018893319291,-82.8394982566815,-0.120719384236892,-3.02764723810999,-0.717210427029242,-0.985800802989938,-76.5956571714523,100.995560863995,-16.4633844986208,0.192136613377493,4.12154056004264,5.94148744363149,4.63914881688106,3.59211116765086,9.5497756292676,-0.795221826444035,-5.62380355259505,-1.68656529543914,92.1903089714252,-4.11260144610249,-7.74599694685396,-2.39404459013287,-27.6562851227577,-61.9970060234548,194.065031513966,34.6625676452186,6.58003260955223,-8.12826580089497,-33.992116092294,-62.035590393905,200.174306628332,45.3587091582547,-0.0222628835007701,-0.0555631089908177
105.75,-19.7094566039364,-90.3546135653228,-37.8677497185936,0.127381425720632,-2.2603563304051,-1.06097194596118,-0.923660216751409,-34.2607258021963,-122.827211452436,-83.7180236645881,0.52830514187153,0.83628368591893,0.0896660559674752,0.375552748905333,1.61701312379443,11.1306629350437,2.64329668769154,5.6594117558541,-21.3772427978669,73.4681800324716,4.43947563991813,16.1687101049667,-0.578175094375371,21.7741684384644,-154.855569887723,-130.719910448062,-4.28948020935059,10.5811967849731,-0.409548372030258,47.3899993896484,17.5699996948242,99.0849990844727,937,0.267925292253494,0.0108997225761414,-36.5976719974863,-56.2187702570388,-77.8652982835645,-0.0752116281915162,-3.30988821488483,-1.10555355210401,-1.40914552987313,-74.8165171162945,130.375283704989,5.75359801591106,0.167360328880532,3.95213367483345,5.31533869151673,4.07811448152645,3.60948297693574,8.88964687644226,-0.673619161449905,2.23180826511673,1.76328607224552,82.9590459422655,-3.58152041939338,-6.80791924547058,-1.46341194987158,-41.0819056318111,-57.2848644572923,233.551429761497,32.0312962516751,2.38141072722126,-11.2047193884199,-52.6060097694408,-38.2188386147092,226.787916029241,38.9063228524431,-0.00839544862701689,-0.0209531360604575
105.755,-20.9252107602982,-97.2715630465947,-46.1747615362642,0.121040703298305,-2.19411502574175,-1.53341847008914,-1.46940692665976,-36.1302198699513,-126.509256756285,-93.3427710768461,0.566180576597916,0.996762290389229,0.114910051849338,0.312641532306696,1.2228694582875,10.9753658662869,2.38286945828747,4.35412802399622,-23.3239986864089,82.2223339254082,2.05299398097213,15.261860462106,-0.194686816387311,26.1784069271956,-174.125688616582,-132.361077112752,-4.14554540621687,10.4421367953012,-0.303072533269321,45.1366092047131,15.0916454401103,92.9247329881774,937.749880266649,0.26739461252654,0.0127039853996748,-37.4816214135515,-53.0176776082853,-72.8658285948458,-0.0297695397396467,-3.60191055817684,-1.47062292235097,-1.80536607637844,-73.0697600229784,152.619972136272,29.6527862190052,0.14235347797528,3.78477555260389,4.83737828279574,3.67898419584995,3.1315065691541,8.3421664617177,-0.565719759238902,8.89211214104963,6.75482748729356,73.8696065858536,-3.37033952494984,-6.23464371238108,-0.991056889521693,-50.7744415439969,-50.9551407036661,261.296124187096,29.0751576539251,0.616678993085173,-12.642093692407,-43.9581803139448,-19.0607559763554,248.475355117479,34.0358682285936,0,0
105.76,-21.8923060603664,-93.7658077649581,-55.5423196718118,0.111059044872872,-2.04766719274919,-1.84364894985512,-1.85375422049583,-37.4058369354402,-124.36685075084,-101.231554479437,0.587089859632305,1.21681111689041,0.172183377258169,0.279616895709203,1.02742424438548,10.8369255064397,2.18742424438547,3.21805244936002,-24.5203968579284,87.4469410665817,-0.118619506828012,14.0756165943952,0.502944016568499,28.7890348700911,-173.693376672252,-132.90062922932,-3.7808212935396,10.0897652337485,-0.033267698245684,39.4266230316488,8.81161075238618,77.3149045317484,939.650042068475,0.266049894721568,0.0172759036781088,-37.9740689788156,-50.0962138380821,-67.8281973740354,0.0155663189085003,-3.90890296030871,-1.79994450856409,-2.16191008332654,-71.3728918664234,163.916298852458,56.1297153879988,0.116995942648961,3.62058060738152,4.58680757539618,3.51888817409067,1.89368688110802,7.96756313507217,-0.478855219726882,13.7179198917166,14.1108330516783,64.9988335886207,-3.64993476150411,-6.22107112808233,-1.22179082260047,-54.7389766613851,-42.1446903033165,271.024818562225,25.6210057785037,2.58592914068138,-11.5648246955119,6.51011664548758,-7.051733450951,262.60306175903,31.5928030548185,0,0
105.765,-22.8594474762755,-90.2598853117378,-64.9103244984153,0.101076910473074,-1.90121237640663,-2.15389422292995,-2.23738143820727,-38.681514828599,-122.224342584983,-109.12071405786,0.608000139723727,1.43687043639748,0.22945943373969,0.246443047266296,0.83196971069833,10.698478545078,1.99196971069834,2.08192270107571,-25.7168520795729,92.6717973426148,-2.29033654779623,12.8893161607663,1.20060811597955,31.3997873005143,-173.26104411317,-133.440207074375,-3.41607978903015,9.73737686939374,0.236550002394043,33.7163645784752,2.5312766018473,61.7043317222385,941.550294479322,0.264705112793864,0.0218480399680004,-38.4665400263916,-47.1746107581765,-62.7903259342931,0.0609043393924513,-4.21591000134203,-2.12928179844353,-2.51455664667253,-69.675942794883,175.213164232834,82.6079071066644,0.0916371981511505,3.4563778325399,4.33622491955796,3.36818077541565,0.655808167756135,7.59294194550516,-0.39198653808814,18.5439577605349,21.4671893864395,56.1276375894804,-3.92954333052878,-6.20749789657627,-1.45253575820334,-58.7037008272268,-33.3338197775365,280.753976849155,22.1666891922018,4.55527319177039,-10.4875043291543,56.9808201805225,4.95786172346994,276.731442078834,29.1496213837292,0,0
105.77,-23.8265427763437,-86.7541300301011,-74.2778826339629,0.0910952520476417,-1.75476454341408,-2.46412470269594,-2.61875526944745,-39.957131894088,-120.081936579539,-117.009497460451,0.628909422758116,1.65691926289866,0.286732759148521,0.21503871105817,0.63652449679631,10.5600381852307,1.79652449679633,0.945847126439519,-26.9132502510924,97.8964044837882,-4.46195003559638,11.7030722930555,1.89823894893536,34.0104152434099,-172.82873216884,-133.979759190943,-3.05135567635288,9.38500530784103,0.50635483741768,28.0063784054109,-3.74875808587684,46.0945032658095,943.450456281147,0.263360394988891,0.0264199582464343,-38.9589875916556,-44.2531469879733,-57.7526947134828,0.106240198040598,-4.5229024034739,-2.45860338465665,-2.86337587899799,-67.9790746383279,186.509490949021,109.084836275658,0.0662796628248308,3.29218288731753,4.0856542121584,3.22454068184475,-0.582011520289946,7.21833861885963,-0.305121998576121,23.3697655112019,28.8231949508242,47.2568645922474,-4.20913856708305,-6.19392531227752,-1.68326969128212,-62.6682359446151,-24.5233693771868,290.482671224285,18.7125373167804,6.5245233393666,-9.41023533225916,107.449117139955,16.9668842488744,290.859148720385,26.706556209954,0,0
105.775,-24.5095118409533,-77.9944601060216,-78.7534005776253,0.0798633757956451,-1.55040931081047,-2.5952599280045,-2.81738229925811,-41.0296397957204,-116.223192093361,-120.252906176646,0.649696524318091,1.97078147491739,0.382673184613637,0.225879537904993,1.48290732889157,10.8281661970347,1.54960432412504,-0.274476374213923,-23.8400369268223,98.7046614992524,-5.84176849340319,11.3128917915361,1.86249611566114,31.9592949896499,-159.533276080178,-134.399938000132,-3.02015070041173,9.42835855821799,0.718364585415375,24.7474321979608,-4.25284015513124,32.0170351796809,954.403062702447,0.261924021302142,0.0298141809579661,-39.320206531387,-39.7465955234825,-53.4293972916707,0.135059248780501,-4.83202449727144,-2.80923126505025,-3.22986608437219,-66.162662617266,196.677270460276,130.873721600662,0.0400966209136069,3.13693394031666,3.90447564099067,3.15497325644078,-0.651462223158564,7.52023398203988,-0.0464217996997598,28.0634913435895,28.1032847250467,38.7470969464008,-4.9475520764754,-5.5324479235246,-1.94824704395228,-66.2138439495509,-12.1998707333638,305.138776479584,17.713565826416,7.09404802322388,-9.0986795425415,122.044998168945,20.4400005340576,294.945007324219,26,0,0
105.78,-25.0768366721746,-67.0977919504741,-81.2382631726778,0.068123594583438,-1.32250782319859,-2.65352040631436,-2.93819884720459,-42.0194396013783,-111.666404128203,-121.606099498616,0.670432521179341,2.32279115597428,0.494339109603535,0.257667478644404,2.75310720775287,11.2616909382982,1.28175782793037,-1.52899477308927,-19.029913392004,97.7160464566604,-6.89934795775945,11.2466204935086,1.52837832143892,28.0116528540584,-141.005266575049,-134.771520895451,-3.12464202615976,9.63271185093098,0.906845842599335,22.4859245319782,-2.40690835753864,18.5639612113466,969.037974350196,0.260450453240315,0.0327290236576931,-39.6280101070078,-34.5954441854833,-49.3970207653002,0.157156406516162,-5.14199233185239,-3.16850421462773,-3.60160337438578,-64.2977353264507,206.385211870141,150.753787257113,0.0135794732537058,2.9853351394324,3.75154181959267,3.11599586722831,-0.245550522739853,8.09734653569642,0.282173386353488,32.7031640089953,24.097689293855,30.3847772930279,-5.87258894477656,-4.60741105522344,-2.22713875648487,-69.5887711639167,1.55210541082959,321.798644455954,17.713565826416,7.09404802322388,-9.0986795425415,122.044998168945,20.4400005340576,294.945007324219,26,0,0
105.785,-25.6441885562226,-56.2006041884149,-83.7232442581503,0.056383253560959,-1.09459546812747,-2.7117836627692,-3.05295869440255,-43.0092866055392,-107.109398873075,-122.959357347472,0.691169506834491,2.67481762257697,0.606010359371697,0.296128595696723,4.02336765596608,11.6952363521449,1.01389855950279,-2.78357299354675,-14.2195604869347,96.7273842720607,-7.95697785268481,11.1803460353409,1.1942445948437,24.0638224755536,-122.476373563672,-135.143121509663,-3.22913833456602,9.83707488820993,1.09533608749286,20.2243090262328,-0.560888536876201,5.11024573454973,983.673583862218,0.258976814911545,0.0356440053513974,-39.9358283602108,-29.444047215357,-45.3644519554656,0.179254617952539,-5.45197494721797,-3.52779429609924,-3.97024242047679,-62.4327191067674,216.093616202203,170.634800892471,-0.012938938873682,2.83372910957475,3.59860070556095,3.07712546600247,0.160380533536967,8.67448660890632,0.610784241434729,37.3430579167199,20.091902856253,22.0220588832936,-6.7976699233666,-3.68233007663338,-2.50604376794037,-72.963859311343,15.3047373166054,338.459306856431,17.713565826416,7.09404802322388,-9.0986795425415,122.044998168945,20.4400005340576,294.945007324219,26,0,0
105.79,-26.1839467141797,-45.5525705756217,-85.3926265321535,0.0446069136217497,-0.859368515122449,-2.74662994461521,-3.13730323698901,-43.9895349260039,-102.476277640628,-123.838059336908,0.711738710489388,3.03438912108199,0.728861134262352,0.353660276104159,5.22141677475696,12.1032437361141,0.77529749444564,-3.73893804678347,-9.6061429214455,95.3666768296115,-8.8713593691808,11.0891782141344,0.81342712574003,20.2699595242093,-103.705628955482,-135.469887638419,-3.33518698506148,10.0305966814457,1.26194801784427,18.0512251733611,1.38631950549736,-8.21707678286382,997.626067525396,0.25762628898091,0.0384406641025498,-40.2271638683698,-24.096935791023,-41.2891585379268,0.20059946257953,-5.74613543955632,-3.88415790476514,-4.33315047871544,-60.533485056066,225.089070258708,189.611049531153,-0.0405722486355077,2.67993662428763,3.45150811350378,3.04214945876553,0.608980826280683,9.21565168813489,0.952139160363208,41.6243840597461,16.23278248904,13.6124859625315,-7.71488730784542,-2.69552287875478,-2.74001399822774,-76.3566109163345,28.2379987274915,354.680804733998,17.3289007521576,7.16192669242439,-9.02434172603304,121.246039681111,22.1095540915295,295.449834377188,25.8314433585473,0,0
105.795,-26.4429635199901,-37.4363767499051,-78.7564058613342,0.0324576608005035,-0.54952034126482,-2.54300385267539,-2.97543984393823,-44.8725479315127,-97.0654797019842,-119.884099998611,0.730610103011927,3.47099501996314,0.965635675827141,0.533990437361938,5.68466616153184,12.2513758074666,0.834550322986621,-1.64746615271656,-6.99595939705356,90.2161363464483,-8.32731067075912,10.7444344844414,-0.0430455777158644,18.0421595734544,-82.46172763403,-135.340209730837,-3.45710207458937,10.1138086749714,1.20582838416067,16.7786359121827,4.36512087578444,-20.2642538976821,1004.62867453478,0.257528885092323,0.0400337504525181,-40.350785689141,-16.7537121912357,-36.7765614392483,0.214283001741223,-5.87931187811554,-4.2109068141844,-4.66396095526427,-58.2847454399397,226.828256044284,199.382809568298,-0.0795750082837286,2.50379408813838,3.36390153906456,3.06285012802526,1.49238663361884,9.39071686336959,1.42346847830277,42.2561482248855,13.8653294070437,4.72123660683211,-8.55250683858373,-1.07953664581913,-2.51646923600498,-79.9310660612025,32.8332517602426,366.438268354698,13.0263962522395,7.92115413267679,-8.19286829253148,112.309635730783,40.7836219354233,301.096358619784,23.946126086789,0,0
105.8,-26.7019679751995,-29.3205699256106,-72.1205016229329,0.020308987287517,-0.239686941781301,-2.33938747016205,-2.80532389577149,-45.7555188326439,-91.6549397643865,-115.930329195473,0.749480595696944,3.90758010032918,1.20239892736038,0.723920571228843,6.14789345936018,12.3995008154931,0.893800326197231,0.443906014481476,-4.38590033306237,85.0658414545726,-7.78328791400721,10.3997071930343,-0.899477442305487,15.8144658500479,-61.2188392775462,-135.210538006639,-3.57901135088582,10.1970167007308,1.14971142640849,15.5061073314,7.34378020900447,-32.3108565714782,1011.63094764149,0.25743148584821,0.0416267608399483,-40.4744016152994,-9.41083873562152,-32.2641795130427,0.227965888435858,-6.01248196647265,-4.53764014335813,-4.99258824892226,-56.0361130496201,228.567358900917,209.154103662279,-0.118575908178009,2.32765995092752,3.27629914193672,3.07814528923824,2.37575031784966,9.56577369103729,1.89477532202348,42.8878822658515,11.4979892114237,-4.16958879076338,-9.39008642942452,0.536372532651854,-2.29293513298316,-83.5053507666681,37.4282856792692,378.195171348677,8.72409690702762,8.68034537097229,-7.36143450586539,103.37365789165,59.4567993507531,306.742613621285,22.0608987119062,0,0
105.805,-26.9609847810099,-21.204376099894,-65.4842809521136,0.00815973446627075,0.0701612320763281,-2.13576137822224,-2.62662116228432,-46.6385318381527,-86.2441418257427,-111.976369857177,0.768351988219483,4.34418599921033,1.43917346892517,0.923963169145683,6.61114284613506,12.5476328868455,0.953053154738212,2.53537790854839,-1.77571680867044,79.9153009714095,-7.23923921558553,10.0549634633413,-1.75595014576138,13.586665899293,-39.9749379560939,-135.080860099058,-3.70092644041371,10.2802286942565,1.09359179272489,14.2335180702216,10.3225815792915,-44.3580336862965,1018.63355465088,0.257334081959623,0.0432198471899165,-40.5980234360706,-2.0676151358342,-27.7515824143643,0.241649427597552,-6.14565840503186,-4.8643890527774,-5.31935646587358,-53.7873734334938,230.306544686493,218.925863699424,-0.157578667826229,2.15151741477827,3.1886925674975,3.08671295495318,3.25915612518782,9.74083886627199,2.36610463996304,43.519646430991,9.13053612942741,-13.0608381464628,-10.2277059601628,2.1523587655875,-2.0693903707604,-87.0798059115361,42.0235387120204,389.952634969377,4.42159240710948,9.43957281122469,-6.52996107236383,94.4372539413221,78.1308671946468,312.389137863882,20.1755814401479,0,0
105.81,-27.1314159836721,-14.2397832513003,-57.7264196642606,-0.0018471679242829,0.389419851968095,-1.90292528829409,-2.41002282737122,-47.4634903579232,-80.8200428359375,-107.251146070975,0.785999022151968,4.77900344022721,1.71062250056697,1.1690323542824,6.81325499017477,12.5114132795532,0.894070224428596,4.78570083338758,-1.0426863758301,73.2124847897506,-7.01327877753644,9.49710207880854,-2.4461410176854,11.757821228337,-25.0816887749956,-133.100051200923,-3.73954997256619,10.3066955620753,1.01802511526025,12.9149380455171,12.5014670673626,-56.3883931806704,1023.40821181094,0.257875747088686,0.0447439301355614,-40.6394182541955,4.34177332857622,-22.742685097172,0.253760403173002,-6.1599736616368,-5.17310069313536,-5.62646925441506,-51.5085694550615,230.439118515805,225.999108641079,-0.193810826947414,1.95183470152891,3.1008706222844,3.08733635394279,3.86817018305926,9.63670932878273,2.45589409452893,42.2441955262395,7.02814422827696,-22.4804306495623,-10.8908330747751,3.40084496845591,-1.58914313786328,-87.6052396037227,42.9322440049592,396.346575347713,-0.5047359957371,9.84234876804804,-5.59623180314542,87.3576760944505,91.5144939183918,297.443522176053,17.0609938980246,0,0
105.815,-27.1551201149931,-9.18202108233529,-48.109494250459,-0.00830637463713501,0.724308021062838,-1.62167116190997,-2.13640685471229,-48.1923817949121,-75.3732225457741,-101.247666595764,0.801620050225799,5.21091324936544,2.03954679896437,1.48195456694744,6.58279941048711,12.1697967731927,0.639213465715182,7.29945741066331,-3.41920724116401,63.9373589899756,-7.31422665218739,8.5861247285138,-2.86096106112319,10.5896440705883,-20.7068820552893,-128.052454771454,-3.64019971801152,10.2391632479834,0.910233386085154,11.5200038537674,13.3555082298383,-68.3924170197295,1024.49270865653,0.259476146346066,0.0461538968618764,-40.5446031510146,9.2050061460574,-16.9109949177017,0.263267844033258,-5.97738831510524,-5.4519713585916,-5.90233134157585,-49.1796729418109,227.910236558669,228.602958009035,-0.225457869406206,1.71313063299055,3.01268077416336,3.07917584282633,4.02271098355569,9.07005972696247,1.91364567173443,37.8091389817783,5.36457962254323,-32.7764562576849,-11.2649844865033,4.04069810735341,-0.683588271796458,-83.0798083221291,37.7340230136021,393.856249257842,-6.46509929939416,9.65468726948186,-4.49298982896902,83.3531724022591,96.1358056052146,248.383596951126,11.9096338814769,0,0
105.82,-27.1788231160389,-4.1245000807443,-38.4930273969003,-0.0147652733580592,1.05918022181078,-1.34043044646072,-1.8544683211918,-48.9212384764442,-69.9266619742971,-95.2444733822107,0.817240333448015,5.64280246391044,2.36845541338798,1.80505792990679,6.35235481952632,11.8281965560037,0.384368859240883,9.8130941254282,-5.79561478774599,54.6626754525408,-7.61516017685385,7.67519081600993,-3.27576132485262,9.4215226145924,-16.332283937849,-123.005099024629,-3.54085420073774,10.1716341540096,0.802446796702604,10.125136176141,14.2095086693899,-80.395868475428,1025.57715379046,0.261076469292209,0.0475637963572774,-40.4497925688666,14.0680070718345,-11.0795828085241,0.272774831553782,-5.79481167472218,-5.73082872676263,-6.17692216545162,-46.8508874764582,225.381475185261,231.206683218619,-0.257103402850957,1.47443794648865,2.92449513116572,3.06223418089189,4.17724441514117,8.50343714448237,1.37142310476784,33.3742939124528,3.70109433993584,-43.0719909242852,-11.6391180577102,4.68052073637398,0.221923415037763,-78.5545928249758,32.5360498870643,391.366041913255,-12.4251783972862,9.46703471910844,-3.38980046026536,79.3488596553134,100.756896935768,199.32601103219,6.75851949529424,0,0
105.825,-27.2025272473599,0.933262088220754,-28.8761019830987,-0.0212244800709113,1.39406839090552,-1.0591763200766,-1.56460071403517,-49.650129913433,-64.4798416841337,-89.2409939069998,0.832861361521846,6.07471227304867,2.69737971178538,2.13800875812795,6.12189923983867,11.4865800496432,0.12951210052747,12.3268507027039,-8.1721356530799,45.3875496527658,-7.9161080515048,6.76421346571519,-3.69058136829041,8.25334545684377,-11.9574772181428,-117.957502595159,-3.44150394618308,10.1041018399177,0.694655067527512,8.73020198439131,15.0635498318656,-92.3998923144872,1026.66165063605,0.262676868549589,0.0489737630835924,-40.3549774656856,18.9312398893157,-5.24789262905373,0.282282272414039,-5.61222632819062,-6.00969939221886,-6.45035818412745,-44.5219909632076,222.852593228124,233.810532586575,-0.288750445309748,1.23573387795029,2.83630528304468,3.03643965019822,4.3317852156376,7.93678754266211,0.829174681973342,28.9392373679916,2.0375297342021,-53.3680165324079,-12.0132694694384,5.32037387527147,1.12747828110458,-74.0291615433822,27.3378288957072,388.875715823384,-18.3855417009433,9.27937322054226,-2.28655848608896,75.344355963122,105.378208622591,150.266085807263,1.60715947874651,0,0
105.83,-27.1414230787001,6.21479576849322,-20.6853539892345,-0.0365580156501691,1.64209070517439,-0.804499390523455,-1.29394777572114,-50.1636190683342,-58.283303896582,-83.1153446361636,0.839085753730706,6.42541330373954,3.08361747924687,2.53758080041565,5.56699932284814,11.0205147631885,-0.143568973667726,13.9964530365285,-13.0512450808694,36.7607261061843,-8.3750157789163,5.74259438602769,-3.46420179125834,7.71136531515483,-10.5220383517496,-113.412610104216,-3.52971973342914,9.826947949922,0.548436473677758,7.28198909124401,14.4976532736428,-98.8420585763235,1016.3076185974,0.265929920259339,0.0500824091620396,-40.1158696589543,24.5488945819012,0.705602588553403,0.284159377373331,-5.22245158477702,-6.18421979481078,-6.618302183981,-42.4616872768816,220.211824071925,233.336411634018,-0.299132489013636,0.961374184847368,2.68886146348142,2.94276290121243,4.35419080351097,7.63095401755484,0.475648596506943,25.8076311372508,1.9054288715287,-59.7597396380227,-11.9474921105418,5.81496224558892,1.70496224558895,-67.1481923136559,14.6845524354202,379.220310802142,-21.9948648443182,9.75330474864092,-1.91145412633801,83.1862911340411,94.5928927174966,119.997124177328,0,0,0
105.835,-27.0418663348642,11.5975446004001,-13.1416826636754,-0.0559147971528101,1.85071272631506,-0.561885772914848,-1.02865593433577,-50.5794116943074,-51.7471095571564,-76.9345907611602,0.84104903711064,6.73927429090776,3.49582505823789,2.97177414348287,4.8650097739846,10.4980416256756,-0.424900663097772,15.2832023273961,-19.0648960083687,28.4282801840881,-8.90552696469867,4.67085461677039,-2.94708735259169,7.45335388922251,-10.4194953491354,-109.095880478041,-3.70298128959101,9.45475643524812,0.384800568397201,5.80968655000884,13.2879269171054,-102.761948090658,1000.76739194317,0.269932195841051,0.0510543714957224,-39.8113451474864,30.5083665827917,6.71404522339228,0.282576492125186,-4.73874743437849,-6.311415276328,-6.73774437793572,-40.5232726046146,217.520446685521,231.46663794614,-0.299871633319217,0.670859881965703,2.51455654436522,2.8140688322265,4.31667991158696,7.44339955793481,0.207713654192617,23.2672109434557,2.46776146650937,-64.3807904332463,-11.6822365176507,6.24365815329184,2.13365815329186,-59.1994556916642,-1.34854219911734,366.316431666732,-24.5379598683813,10.5272065237362,-1.86653448610591,96.3995034684102,76.8221074640808,98.2501833169929,0,0,0
105.84,-26.942304843675,16.980550108137,-5.59765161891715,-0.0752725016816064,2.05934469557556,-0.319260586300585,-0.757391392310092,-50.9952241473097,-45.2106035399692,-70.7535421575374,0.843012414109541,7.0531502445052,3.90805229330534,3.41387755163791,4.1629867508209,9.97554357408425,-0.706245767800786,16.5700129767726,-25.0788336962003,20.0954369301565,-9.43606344785292,3.5990637417113,-2.42994825537568,7.19533016004161,-10.3169474567687,-104.778945009053,-3.87625110771254,9.08254717265975,0.221156860155159,4.33731380217688,12.0781428748899,-106.682024524525,985.226424254814,0.273934662270868,0.0520263801773301,-39.5068061147983,36.468122760498,12.7227743702065,0.280993531397319,-4.2550202185968,-6.43861682314882,-6.85592473538618,-38.5847654992413,214.82894096106,229.596775098294,-0.300610812870818,0.380331725939082,2.3402433135367,2.67789317476887,4.2791672309599,7.25583615479947,-0.0602340645721555,20.7266696099823,3.03012087626259,-69.0020615828066,-11.4169682760735,6.67237450331549,2.56237450331549,-51.2503400349759,-17.3824013701402,353.41193721116,-27.0811761596718,11.3011452022589,-1.82161270388534,109.613345873464,59.0504748125794,76.5022054559973,0,0,0
105.845,-26.8427480998391,22.3632989400439,1.94601970664193,-0.0946292831842475,2.26796671671623,-0.0766469686919772,-0.480972884609065,-51.4110167732829,-38.6744092005436,-64.5727882825339,0.844975697489474,7.36701123167342,4.32025987229635,3.86301292082289,3.46099720195736,9.45307043657132,-0.987577457230832,17.8567622676401,-31.0924846236996,11.7629910080603,-9.96657463363529,2.52732397245399,-1.91283381670903,6.93731873410929,-10.2144044541545,-100.462215382878,-4.0495126638744,8.71035565798587,0.0575209548746019,2.86501126094171,10.8684165183526,-110.60191403886,969.686197600583,0.277936937852581,0.0529983425110129,-39.2022816033305,42.4275947613885,18.7312170050454,0.279410646149174,-3.77131606819828,-6.56581230466605,-6.97269305954088,-36.6463508269743,212.137563574655,227.727001410416,-0.301349957176398,0.0898174230574177,2.1659383944205,2.53509882560468,4.2416563390359,7.06828169517945,-0.328169006886482,18.1862494161872,3.59245347124327,-73.6231123780302,-11.1517126831823,7.10107041101841,2.9910704110184,-43.3016034129843,-33.4154960046777,340.50805807575,-29.624271183735,12.0750469773542,-1.77669306365324,122.826558207833,41.2796895591635,54.7552645956625,0,0,0
105.85,-26.8383520507812,22.600980758667,6.73425626600254,-0.114812114679738,2.28875271232157,-0.06593406945467,-0.432114329348033,-51.4293766021729,-38.3857955932617,-59.2920846531519,0.847218204173908,7.57754765630245,4.33846139907837,3.92430334996745,3.27275180420458,9.28323501725762,-0.876822246626915,17.3764773559251,-33.2993604419188,7.45738571434104,-10.1157985566363,2.17860762472546,-1.54667477251332,7.0682905476337,-8.5953323106602,-98.5502872394411,-4.07787695602822,8.42589858152816,0.138171664145455,5.24914073429775,8.57683372852905,-105.408907244263,965.592955757766,0.279626280074027,0.054160193917419,-39.1888349533081,42.6907424926758,23.6541132327334,0.278665286733003,-3.08755329793344,-6.57142877578735,-6.96630290893951,-36.5607577705383,212.01872253418,224.801801791366,-0.302197582753931,-0.258588609555268,2.15824174880981,2.55324302019478,4.64622450580484,7.07310401631629,-0.712154063382471,15.1944260440757,-4.91488667309713,-81.4792589106207,-10.9722685911515,7.51574129275181,2.88682224662692,-38.7346831456496,-45.8620669618473,331.677887986302,-30.785429809398,12.3866573962292,-2.23292147629793,136.077653995606,29.5059711127342,47.1263676603872,0,0,0
105.855,-26.8383520507812,22.600980758667,11.3949700861604,-0.135032097699817,2.30086081978756,-0.06593406945467,-0.39045803069637,-51.4293766021729,-38.3857955932617,-54.0532211530264,0.849473497363045,7.78330062880458,4.33846139907837,3.97263528716168,3.10824756824599,9.12969773036294,-0.747960595126018,16.8145904594411,-35.3302769352346,3.33801009373212,-10.2474019454032,1.86330783913817,-1.18750719067042,7.21722442381019,-6.90628676038587,-96.7495412820344,-4.09954648460009,8.14550847837509,0.230102866001629,7.81129434793305,6.23539024458035,-99.7952006105324,962.028697311997,0.281208694946684,0.055330759053743,-39.1888349533081,42.6907424926758,28.5266184163603,0.27795865296184,-2.39458317861015,-6.57142877578735,-6.95252166000616,-36.5607577705383,212.01872253418,221.827994010455,-0.303050177204667,-0.609651498184031,2.15824174880981,2.57442791738106,5.07119378203118,7.08681270264618,-1.10148075515112,12.1818999123239,-13.8407646612202,-89.4844547551072,-10.7967974061291,7.92974361991423,2.75796059512604,-34.3242094943321,-58.1423420247637,323.036338307244,-31.8826936798207,12.6768972969818,-2.71227703992293,149.32983872791,18.0098670323487,40.1500167478367,0,0,0
105.86,-26.8383520507812,22.600980758667,16.0559061519822,-0.155253044907728,2.31296950462742,-0.06593406945467,-0.34610474598668,-51.4293766021729,-38.3857955932617,-48.8141078382282,0.851728898095608,7.98906341261625,4.33846139907837,4.02528624948815,2.94373548791966,8.97615312205837,-0.619092798870389,16.2526767694376,-37.3612902725966,-0.781561958883888,-10.3790116096643,1.5479930185127,-0.828322481957939,7.3661654018834,-5.21716066814643,-94.94870945624,-4.12121704648122,7.86510500484849,0.322038451587804,10.3735701376026,3.8938351091375,-94.1812262877724,958.464268904926,0.282791185276632,0.0565013800083464,-39.1888349533081,42.6907424926758,33.3993559449009,0.277251985494917,-1.70158001507726,-6.57142877578735,-6.93676410285486,-36.5607577705383,212.01872253418,218.854044423823,-0.303902812311283,-0.960731127210899,2.15824174880981,2.59197340946579,5.49618332287419,7.10052204267337,-1.49082601192343,9.16923012857017,-22.7670682789264,-97.4900323265426,-10.621317853781,8.34376568873549,2.62909279887043,-29.9135255300275,-70.4232026713462,314.394376556768,-32.9800098731595,12.9671510377946,-3.19165546156917,162.582655389293,6.51321476141057,33.1733331687031,0,0,0
105.865,-26.5085568672071,25.4595570208464,20.3000219163171,-0.172135926669534,2.27207005582327,0.141236730338944,-0.0926614156938769,-51.5146047344617,-35.3447570487257,-43.8888942007921,0.856648013817533,8.17404791001158,4.58960010962027,4.33248362711538,3.04616000209562,9.02936502115287,-0.413866979266241,15.4005863910512,-37.9889096027356,-7.02351433936654,-10.6149543543465,1.50038494282831,-0.465562351831707,7.59785853429077,-2.8573892888553,-92.3871736497879,-4.15284684254948,7.62374066835608,0.411991084058304,11.8928137563154,2.31653672402952,-86.054366058956,954.389396062817,0.284255116428894,0.0572072763319602,-38.6941420162635,47.6780451600335,38.339585394489,0.277540203977117,-0.997653192045886,-6.35009879166192,-6.69750777761736,-35.4194435950734,206.970599126247,215.412148064379,-0.305082004176656,-1.31634053866448,2.01366932009053,2.46227624836077,5.98157709989655,7.14221207874368,-1.68625129340265,7.49351847405087,-32.4493672574721,-104.849833181577,-10.122779604186,8.86141835518474,2.45184062659631,-23.519499556051,-87.3893965479186,301.555587248873,-33.738639831543,13.167818069458,-3.52307391166687,171.744995117188,-1.43500006198883,28.3500003814697,0,0,0
105.87,-25.439881868765,34.722545489701,23.6110051967992,-0.181543263310622,2.11241198075933,0.812557189744332,0.626125732528687,-51.79077970207,-25.4905141012585,-39.6661382593439,0.867535319086194,8.31251210606989,5.40339507832927,5.2048615811996,3.74660925486908,9.54577466633486,-0.0375471846389521,13.8982914553038,-35.4726503649825,-18.0211271534275,-11.0846673826769,2.05250376560267,-0.0947362768340086,8.01497428394526,1.00517037664437,-88.1210629744599,-4.20679285713984,7.46979708024474,0.497515273297702,11.0756228566287,2.45113285757422,-72.2967178801797,949.170362414701,0.285453669709381,0.0568721750461186,-37.0911289946785,63.8390018256434,43.4317780073527,0.280057275919578,-0.269145703703697,-5.63289662431357,-5.96004275968904,-31.7211060042434,190.612557699923,210.921394758803,-0.306992952166423,-1.68215281241974,1.54519389130487,2.00688383726796,6.60236741804086,7.24659275170599,-1.44727448951524,8.81268942214514,-43.8267927866657,-110.764059745784,-8.90042698660101,9.61131108462456,2.16616720585733,-12.6812724349474,-114.85460351094,279.312805118924,-33.738639831543,13.167818069458,-3.52307391166687,171.744995117188,-1.43500006198883,28.3500003814697,0,0,0
105.875,-24.3712578275515,43.9850922749552,26.9218306009091,-0.190950151385209,1.95276151861143,1.48384563882837,1.34541625252538,-52.0669415009311,-15.6367410299569,-35.4435836699815,0.878422105219566,8.45096969979194,6.2171512431584,6.07888129964621,4.44702510838386,10.0621596877497,0.338754666072896,12.3960681529215,-32.9565111090737,-29.0182155724468,-11.5543580138574,2.60459626190256,0.276072116203219,8.43207014442611,4.86754586516209,-83.8551557184851,-4.26073629944265,7.3158608325677,0.583035384519303,10.2584709227487,2.58572257322204,-58.5397257021748,943.951577623806,0.286652165839701,0.0565370897387858,-35.4881924089613,79.9991878944258,48.5237278111084,0.282574227841442,0.459327047489515,-4.91572865504682,-5.22014722771875,-28.0229447598559,174.255296267945,206.43085558413,-0.308903809037175,-2.04794764328572,1.07674080065714,1.55047259438262,7.22312813527356,7.35096844752388,-1.20830908066902,10.1317974687065,-55.2036758103504,-116.678004304147,-7.67813265399679,10.361168057211,1.88050740677678,-1.84356210895741,-142.318500860813,257.071083583201,-33.738639831543,13.167818069458,-3.52307391166687,171.744995117188,-1.43500006198883,28.3500003814697,0,0,0
105.88,-23.3025828291095,53.2480807438098,30.2328138813912,-0.200357488026296,1.7931034435475,2.15516609823376,2.06469187039907,-52.3431164685394,-5.78249808248958,-31.2208277285334,0.889309410488227,8.58943389585025,7.03094621186741,6.95382448456731,5.14747436115731,10.5785693329317,0.715074460700185,10.8937732171741,-30.4402518713206,-40.0158283865078,-12.0240710421879,3.15671508467692,0.646898191200918,8.8491858940806,8.73010553066176,-79.5890450431571,-4.31468231403301,7.16191724445636,0.668559573758701,9.44128002306197,2.72031870676674,-44.7820775233985,938.732543975691,0.287850719120187,0.0562019884529442,-33.8851793873763,96.1601445600356,53.6159204239721,0.285091299783903,1.1878345358317,-4.19852648769846,-4.47767772196999,-24.3246071690259,157.897254841621,201.940102278553,-0.310814757026942,-2.41375991704098,0.60826537187147,1.09359544964736,7.84391845341787,7.4553491204862,-0.969332276781608,11.4509684168008,-66.5811013395439,-122.592230868353,-6.45578003641175,11.1110607866508,1.5948339860378,8.99466501214615,-169.783707823835,234.828301453252,-33.738639831543,13.167818069458,-3.52307391166687,171.744995117188,-1.43500006198883,28.3500003814697,0,0,0
105.885,-22.9478186035156,56.3230819702148,33.5923893972388,-0.193465380125902,1.60008714697004,2.37802195549011,2.33495643044484,-52.4347972869873,-2.5112202167511,-27.2467997973774,0.89106937806417,8.67935706900651,7.30109882354736,7.28526687599699,5.11471965130089,10.6181446787531,0.64221701812964,10.0036041315127,-31.089376485525,-47.3370661146621,-11.0655085942227,4.28967225421865,0.600471729825411,8.17373258489573,18.3065957515681,-79.1650488606468,-4.31905645672638,7.33938936165302,0.731913863586065,8.41732593886704,3.45174653230702,-36.4681113087538,941.866089236492,0.288529316664525,0.0559088684054708,-33.353032875061,101.525039672852,59.4574814821964,0.287450237223192,1.74256196100762,-3.96043944358826,-4.21177388016675,-23.0968832367659,152.466934204102,196.195876252259,-0.302783707034125,-2.67913307786793,0.452747255563736,0.94965873274116,7.87419290500416,7.76312887972571,-0.926103242722352,12.6407975403262,-76.6194083325794,-126.398506915135,-5.32793514555275,11.801087443695,1.09344609282209,18.4237604590226,-189.615932850883,215.776294984898,-33.8048067229034,12.3429887873037,-2.99637115318065,175.16224619682,-1.07789188530862,32.272696152637,0,0,0
105.89,-22.9478186035156,56.3230819702148,36.9763534289069,-0.178472506645831,1.39047916258661,2.37802195549011,2.38140394207649,-52.4347972869873,-2.5112202167511,-23.3960976125076,0.888293492613551,8.74516341167731,7.30109882354736,7.34601005059601,4.71758498980346,10.4207523026242,0.34612845393629,9.41757738286432,-33.3116363343601,-52.8317921638705,-9.39707303408556,5.71136734419468,0.346681531945397,6.95526112730992,30.7234001288712,-80.6504235898943,-4.29879536507011,7.68157656290075,0.784254984349487,7.29054444053617,4.47983176861885,-30.8588777565452,949.150807879345,0.288949562203899,0.0556365906923162,-33.353032875061,101.525039672852,65.6718703423809,0.28973075554094,2.21096616023319,-3.96043944358826,-4.18147399570655,-23.0968832367659,152.466934204102,189.82830656777,-0.28981124644778,-2.89461033384472,0.452747255563736,0.96147004849149,7.61100307016562,8.1720130874213,-0.980151155233842,13.766433077334,-85.992935188436,-129.157474429812,-4.24697689532304,12.4614119400309,0.484819599757982,27.1532381158695,-205.656239253245,198.30863630365,-33.9038610483806,11.1081883229351,-2.20787730986756,180.277999615484,-0.543287510882359,38.1451192886867,0,0,0
105.895,-22.9478186035156,56.3230819702148,40.360156104289,-0.163480348065316,1.18088117286199,2.37802195549011,2.42655809104412,-52.4347972869873,-2.5112202167511,-19.5455790392239,0.885517739524436,8.81096661652899,7.30109882354736,7.40557317118536,4.32046926472895,10.2233693386819,0.0500540080227492,8.83157857750928,-35.5337902200133,-58.3262562101203,-7.72871702933464,7.13299464401764,0.0929034354480791,5.73684776964103,43.1396124403542,-82.1357274925764,-4.27853523951586,8.02374744776467,0.836593609350905,6.16381667010432,5.50786798312845,-25.2499116673136,956.435179167694,0.289369787704864,0.0553643259620776,-33.353032875061,101.525039672852,71.8859628841952,0.29201116511759,2.67934802471724,-3.96043944358826,-4.14884223951916,-23.0968832367659,152.466934204102,183.461040505715,-0.276839404422401,-3.11007731530043,0.452747255563736,0.973576921170392,7.34782578490914,8.58087779844476,-1.03419649059902,14.8920149410853,-95.3660150899318,-131.916310389676,-3.16607018801963,13.1217049503619,-0.123777872397627,35.8822995283117,-221.6957808117,180.841810526211,-34.0029106506877,9.87344673709328,-1.41942106401028,185.393509101598,-0.00870862779571779,44.0172624121893,0,0,0
105.9,-22.9478186035156,56.3230819702148,43.7441201359571,-0.148487474585245,0.97127318847857,2.37802195549011,2.47016295372337,-52.4347972869873,-2.5112202167511,-15.6948768543541,0.882741854073817,8.87677295919979,7.30109882354736,7.4633755018658,3.92333460323151,10.025976962553,-0.246034556170602,8.24555182886086,-37.7560500688484,-63.8209822593287,-6.06028146919749,8.55468973399367,-0.160886762431934,4.51837631205522,55.5564168176573,-83.6211022218238,-4.25827414785958,8.3659346490124,0.888934730114328,5.03703517177346,6.53595321944028,-19.6406781151051,963.719897810546,0.289790033244238,0.0550920482489231,-33.353032875061,101.525039672852,78.1003517443796,0.294291683435338,3.14775222394281,-3.96043944358826,-4.11412099807873,-23.0968832367659,152.466934204102,177.093470821226,-0.263866943836055,-3.32555457127721,0.452747255563736,0.985869535480914,7.0846359500706,8.98976200614035,-1.08824440311051,16.0176504780931,-104.739541945788,-134.675277904353,-2.08511193778992,13.7820294466979,-0.732404365461736,44.6117771851587,-237.736087214062,163.374151844963,-34.101964976165,8.63864627272466,-0.630927220697194,190.509262520262,0.52589574663054,49.889685548239,0,0,0
105.905,-22.7836859403627,54.2277738519867,46.2492777220132,-0.144476942472665,0.777856623891427,2.40149457824667,2.53550164580274,-52.4658000172639,-4.4867962475564,-12.8385887370414,0.879065121112179,8.92631481134579,7.4074591255199,7.62524604127408,3.5231243126435,9.84575286036777,-0.282327557930901,8.70986058379536,-39.3614865742021,-65.7885441893558,-4.72372040749386,9.78215786528776,-0.501907040459977,3.65722548199219,59.7986448313292,-83.954056418674,-4.290133774537,8.67349733623957,0.910295255650532,5.15180635965642,7.92264688952254,-18.3979875780081,975.676281618399,0.289874819994867,0.0546660195228855,-32.8952851410142,102.542760854335,83.5856271078336,0.294496540070247,3.50148415580158,-3.70297410775393,-3.82018156703669,-22.6245460151346,148.216452371529,170.86533626436,-0.24976989709859,-3.47232315187896,0.362524354383276,0.907852028442047,6.99257838275869,9.27088454340236,-0.914742904551512,16.0506532760033,-112.855118767819,-136.348831234909,-1.29814312450557,14.5521453240464,-1.19763481834492,50.5967512110695,-249.413315606473,147.312696023891,-33.698544543972,7.14118139027201,0.722614768620043,193.313497557356,-5.16418742966216,47.5285543722268,0.166875687356499,0,0
105.91,-22.3856988653664,49.1470937900742,47.5027128123768,-0.156112195976702,0.607485181071558,2.45841073554239,2.63240946454406,-52.54097509639,-9.27715126178333,-11.398685618263,0.874104549583801,8.95269080496541,7.66536041502945,7.93587952765718,3.11848598275097,9.68996710335914,0.051499064230444,10.6706080465462,-40.0883369075276,-62.7312768079456,-3.85981757317331,10.7330579405352,-0.967241119836391,3.30504026893758,52.395262054777,-82.6452262651945,-4.39625208440722,8.93176696079196,0.887521021808281,7.03539787020265,9.8204007763454,-23.3760509247898,994.289644793455,0.289481697344622,0.054020896565206,-31.7853434739511,105.010519973086,88.0327880960592,0.291744280460582,3.69188646035525,-3.07867499535742,-3.15808530587667,-21.479227919164,137.909930809186,164.835131122224,-0.234069052511566,-3.52122128163199,0.143752856689138,0.700781341177844,7.14431775646839,9.37002093422603,-0.417037758783703,14.5270151202351,-119.179465997991,-136.476217375801,-0.929922244303373,15.4787670995003,-1.45862654112561,52.67239597737,-254.875933060022,133.252762943859,-32.5792150605079,5.26933236809064,2.88132230274621,192.824898132355,-19.7230751016347,33.437024610898,0.571514017249031,0,0
105.915,-21.9877307674382,44.066655988321,48.7560881356657,-0.167746894681315,0.437121862009215,2.51532417892635,2.72734420024757,-52.616146590971,-14.0672778593111,-9.95885115784423,0.869144214588492,8.97906554090844,7.92324940712867,8.24327762937498,2.71386694707596,9.53418877462425,0.385309768662333,12.6312620157122,-40.8151525827216,-59.6741552050677,-2.99595593200717,11.6839126743715,-1.43255301086265,2.95287184899822,44.9922322909454,-81.3364585201716,-4.50236533427791,9.19002427037083,0.86474787390127,8.91889956616226,11.7180641732824,-28.3538769044464,1012.90212043451,0.289088593439496,0.0533758043686822,-30.6754547318196,107.478161422605,92.4797370319775,0.288992152085879,3.88227968602733,-2.45440565118104,-2.49521271117117,-20.3339644349661,127.60390068884,158.805213516095,-0.218368956582018,-3.57011707979386,-0.0750082094058357,0.492679732207627,7.29604989484652,9.46915259796641,0.080643655096553,13.0034496155329,-125.503511666689,-136.603597442587,-0.561718921839117,16.4053446911961,-1.71960581913599,54.7479417714807,-260.338290041635,119.193500278337,-31.4599389496112,3.39757260058323,5.03992690403172,192.336322005057,-34.281268567634,19.3461667706909,0.976133052924039,0,0
105.92,-21.5897436924419,38.9859759264085,50.0095232260293,-0.179382148185351,0.266750419189347,2.57224033622206,2.82024003462196,-52.6913216700971,-18.8576328735381,-8.51894803906581,0.864183643060114,9.00544153452806,8.18115069663822,8.54705631318619,2.30922861718343,9.37840301761562,0.719136390823678,14.592009478463,-41.5420029160471,-56.6168878236575,-2.13205309768662,12.6348127496189,-1.89788709023907,2.6006866359436,37.5888495143931,-80.0276283666921,-4.60848364414812,9.44829389492323,0.841973640059019,10.8024910767085,13.6158180601052,-33.3319402512281,1031.51548360956,0.28869547078925,0.0527306814110027,-29.5655130647565,109.945920541356,96.9268980202032,0.286239892476215,4.07268199058099,-1.83010653878452,-1.83209689649422,-19.1886463389955,117.297379126497,152.775008373959,-0.202668111994995,-3.61901520954689,-0.293779707099974,0.282900971021849,7.44778926855622,9.56828898879008,0.578348800864362,11.4798114597648,-131.827858896861,-136.730983583479,-0.193498041636915,17.3319664666499,-1.98059754191668,56.8235865377813,-265.800907495184,105.133567198306,-30.340609466147,1.52572357840186,7.19863443815789,191.847722580055,-48.8401562396066,5.25463700936208,1.38077138281657,0,0
105.925,-21.1917755945138,33.9055381246553,51.2628985493182,-0.191016846889964,0.0963871001270035,2.62915377960602,2.91103033732837,-52.7664931646781,-23.6477594710659,-7.07911357864704,0.859223308064805,9.03181627047109,8.43903968873744,8.84681455447372,1.90460958150842,9.22262468888073,1.05294709525557,16.552663447629,-42.2688185912411,-53.5597662207797,-1.26819145652048,13.5856674834552,-2.36319898126533,2.24851821600424,30.1858197505615,-78.7188606216692,-4.71459689401882,9.7065512045021,0.819200492152008,12.6859927726681,15.5134814570422,-38.3097662308847,1050.12795925061,0.288302366884124,0.0520855892144789,-28.455624322625,112.413561990875,101.373846956122,0.283487764101512,4.26307521625307,-1.20583719460814,-1.16944878446064,-18.0433828547975,106.99134900615,146.74509076783,-0.186968016065447,-3.66791100770877,-0.512540773194948,0.0707877296776284,7.59952140693435,9.66742065253046,1.07603021474462,9.95624595506258,-138.15190456556,-136.858363650266,0.174705280827341,18.2585440583457,-2.24157681992706,58.899132331892,-271.263264476797,91.0743045327834,-29.2213333552503,-0.346036189105561,9.35723903944341,191.359146452757,-63.3983497056059,-8.83622083084512,1.78539041849158,0,0
105.93,-20.9363431316141,28.0911314744471,50.5100590549003,-0.200219298070088,-0.0706134035687289,2.5879866785242,2.90157257613461,-52.9901023502101,-28.7535636497295,-7.58171544747655,0.856736462847601,9.05568036122467,8.60300623778563,9.04829424829091,1.7479750809379,9.26271392131854,1.2386962621407,17.9289912103804,-40.5035170590323,-47.5579321562971,-1.10663916413225,13.9199397625821,-2.50854360835869,2.00089034716393,20.4223853697708,-79.7770657180612,-4.76162249601988,9.90115404031724,0.727976302175078,14.1483178566684,16.232540644587,-45.7488878074413,1061.44937702345,0.288623130818257,0.0520564076515461,-27.3558533366407,111.919876455589,104.350208746023,0.274651802346804,4.36948055114761,-0.596954564010034,-0.523313365970957,-17.1508256309058,94.7309243520413,139.699518172276,-0.172208570357937,-3.66623940800754,-0.762784822655767,-0.17584497599458,7.75440135387031,9.88812773471993,1.28492367310897,9.35809905854054,-136.605727726484,-133.674072620644,1.20290866280781,18.3441744334347,-2.09109084665947,56.6205060844225,-267.103280271016,72.7797611045101,-28.3849115422976,-1.12706746101251,10.815965290906,188.120569420254,-73.5448106247602,-18.5217489290457,2,0,0
105.935,-20.8419096839326,21.448405086731,47.4915708065117,-0.20667394828909,-0.233799144768116,2.43605617719954,2.77910401897898,-53.3813274182949,-34.2153609171122,-10.2779630355019,0.857043313807379,9.07670662371823,8.66088452400455,9.13900703771461,1.871418620622,9.52400274698322,1.25721279309331,18.6452685394116,-35.923914136184,-38.2310869357208,-1.73825860884921,13.5578387128421,-2.29251741391152,1.87135083021148,7.9942117139213,-83.5083118043974,-4.74191249716239,10.0238487317005,0.559455968756812,15.1348372974656,15.6204663485034,-55.9669262083194,1064.53546551555,0.289750071137012,0.0527228097173062,-26.2676205344936,108.081856839032,105.665455987549,0.258945940833336,4.38102308632102,-0.00551078992141163,0.10355886709377,-16.5437536634473,80.2645427505881,131.507627689141,-0.158512949593613,-3.60745952372598,-1.04855887312469,-0.461707671291145,7.91282056313156,10.2461139998038,1.16765231040908,9.80513739155292,-126.171446635491,-126.750058440009,2.97638084960267,17.480069655646,-1.47593054056705,49.4247129172405,-252.076696304532,49.7039471532751,-27.8680170699727,-0.676201678615878,11.4841335556358,181.776598795349,-78.7078369231941,-23.2311202348372,2,0,0
105.94,-20.7474717332018,14.8053619412834,44.4729386218183,-0.21312890629743,-0.396992667462958,2.28411843108438,2.65427657442541,-53.7725711419072,-39.6774186297416,-12.974339193819,0.857350179399313,9.09773388884698,8.71876557014366,9.22474462227391,1.99486804669872,9.78530403217895,1.27573020700481,19.3615800240543,-31.3440928354366,-28.9037969654798,-2.36990817227509,13.1957203963504,-2.07648091827726,1.74180513618036,-4.43455457812371,-87.2397358148233,-4.72220155843561,10.1465492737676,0.390927599463603,16.1214037803419,15.0083628657193,-66.1854518553185,1067.62170116747,0.290877065193802,0.0533892435603809,-25.1793358400761,104.2436542069,106.980765946506,0.24323933038746,4.39256617189903,0.585961187103365,0.727955745186912,-15.9366527478239,65.797471321201,123.315346576543,-0.144816675755007,-3.54867683653163,-1.33434655070012,-0.751877935480573,8.07124732659668,10.6041173354263,1.0503753556362,10.2521970415427,-115.736667986866,-119.825714088463,4.74993760423821,16.615923673109,-0.860740900618062,42.2285766193939,-237.049395796922,26.6270328342012,-27.3510979495876,-0.225314396730317,12.1523336819013,175.432325658852,-83.8711094200114,-27.94071610652,2,0,0
105.945,-20.6530382855203,8.16263555356732,41.4544503734297,-0.219583556516432,-0.560178408662345,2.13218792975972,2.52696988350452,-54.1637962099919,-45.1392158971244,-15.6705867818443,0.85765703035909,9.11876015134054,8.77664385636258,9.30522415715514,2.11831158638283,10.0465928578436,1.29424673795742,20.0778573530855,-26.7644899125883,-19.5769517449036,-3.00152761699205,12.8336193466104,-1.86045472383009,1.61226561922791,-16.8627282339732,-90.9709819011595,-4.70249155957811,10.2692439651508,0.222407266045336,17.107923221139,14.3962885696357,-76.4034902561966,1070.70778965957,0.292004005512557,0.054055645626141,-24.0911030379289,100.405634590343,108.296013188033,0.227533468873992,4.40410870707243,1.17740496119199,1.34919173973586,-15.3295807803654,51.3310897197478,115.123456093408,-0.131121054990683,-3.48989695225008,-1.62012060116905,-1.04681342752552,8.22966653585794,10.9621036005101,0.933103992936309,10.6992353745551,-105.302386895873,-112.901699907828,6.52340979103307,15.7518188953203,-0.245580594525644,35.0327834522118,-222.022811830438,3.55121888296618,-26.8342034772628,0.225551385666313,12.8205019466311,169.088355033947,-89.0341357184453,-32.6500874123114,2,0,0
105.95,-20.5586003347895,1.5195924081197,38.4358181887363,-0.226038514524773,-0.723371931357187,1.98025018364457,2.39700109243513,-54.5550399336043,-50.6012736097538,-18.3669629401614,0.857963895951024,9.13978741646929,8.83452490250168,9.38019577052757,2.24176101245955,10.3078941430394,1.31276415186892,20.7941688377281,-22.1846686118408,-10.2496617746626,-3.63317718041793,12.4715010301187,-1.64441822819582,1.48271992519679,-29.2914945260182,-94.7024059115854,-4.68278062085133,10.3919445072179,0.0538788967521273,18.0944897040153,13.7841850868516,-86.6220159031956,1073.79402531149,0.293130999569346,0.0547220794692158,-23.0028183435114,96.5674319582108,109.61132314699,0.211826858428116,4.41565179265044,1.76887693821676,1.96677508373717,-14.7224798647419,36.8640182903608,106.931174980809,-0.117424781152078,-3.43111426505572,-1.90590827874448,-1.346881839373,8.38809329932305,11.3201069361326,0.815827038163427,11.1462950245448,-94.8676082472479,-105.977355556282,8.2969665456686,14.8876729127833,0.369609045423343,27.8366471543652,-206.995511322827,-19.5256954361078,-26.3172843568776,0.676438667551875,13.4887020728965,162.744081897449,-94.1974082152626,-37.3596832839942,2,0,0
105.955,-20.6028577152516,-2.58208810668252,32.9980444192239,-0.229836536626652,-0.967076856996651,1.64411800509488,2.07998174155034,-55.5124579980054,-55.6314900461807,-23.4596416989383,0.854563494726103,9.14418585773526,8.91959110771274,9.47660966123477,2.56122589775343,10.6618526193425,1.33937327841095,21.0999848373809,-17.875738280715,-4.28692152346262,-4.23356233099997,12.5124317050365,-1.35819501655253,2.00412869382148,-32.7031248098823,-96.9099128274198,-4.8165964615426,10.3865315250371,0.0529840351237366,19.9773927657606,12.6239621441569,-97.7403285642145,1072.90122817215,0.293859552285042,0.0553451759219117,-21.9459290799757,82.5574735569805,106.93013560018,0.188901597669225,4.34891285174499,2.39314273445996,2.61303306120907,-14.6581544850779,16.6157083109841,93.4269906224476,-0.109466077351176,-3.30337510878074,-2.20918625753001,-1.66972632000573,8.02863119456166,11.137112026484,0.681205807283101,9.63678803937666,-78.8671860643675,-96.7640170769777,9.0142165980137,14.4789646458265,0.890912536958899,21.1440562689162,-179.358415612381,-36.3483290388179,-25.8589368780521,0.327153968420459,13.7420741585513,137.058233685563,-99.0628757951583,-41.1946411454311,2,0,0
105.96,-20.7360661076303,-5.05365414946126,26.008998279684,-0.23193033508903,-1.26240665635927,1.18986759748669,1.64175802495545,-56.832949881515,-60.3845025124957,-30.0889613566392,0.848785576771717,9.13791908859178,9.0220886293467,9.58450574583707,3.00639129665667,11.0752204897526,1.37117080690404,21.1425123960651,-13.7407510363463,-0.482340696563259,-4.81386722599883,12.8118584316797,-1.02697076141619,2.94300633554127,-30.3313955755727,-98.1399406785927,-5.04887128628815,10.2989523871174,0.159602019717437,22.4350771431987,11.112254663931,-109.435195130625,1069.45649591873,0.29433252740351,0.0559404479560811,-20.9092258685793,62.024463705332,101.685897110044,0.161347703306557,4.2319704235166,3.03841128610431,3.27587124473242,-14.9419446734153,-7.33946984927254,76.5166276522737,-0.105187579640831,-3.13141637867546,-2.52366728981602,-2.00903023297128,7.33703494983699,10.6071532182659,0.535467135023124,6.8724967249055,-59.2979663683125,-86.0830571459146,9.05396350863005,14.3623737080185,1.35197670010868,14.7747365182945,-143.635266317677,-49.1589382547576,-25.4381765448168,-0.535309404219855,13.7293815921277,98.9687695249338,-103.737112321912,-44.4684615619007,2,0,0
