time,hip_angle_l,hip_angle_l_velocity,hip_angle_l_velocity_filt,hip_angle_l_torque_estimated,hip_angle_l_torque_desired,hip_angle_l_torque_measured,hip_angle_l_torque_interaction,knee_angle_l,knee_angle_l_velocity,knee_angle_l_velocity_filt,knee_angle_l_torque_estimated,knee_angle_l_torque_desired,knee_angle_l_torque_measured,knee_angle_l_torque_interaction,thigh_imu_l_accel_x,thigh_imu_l_accel_y,thigh_imu_l_accel_z,thigh_imu_l_gyro_x,thigh_imu_l_gyro_y,thigh_imu_l_gyro_z,shank_imu_l_accel_x,shank_imu_l_accel_y,shank_imu_l_accel_z,shank_imu_l_gyro_x,shank_imu_l_gyro_y,shank_imu_l_gyro_z,foot_imu_l_accel_x,foot_imu_l_accel_y,foot_imu_l_accel_z,foot_imu_l_gyro_x,foot_imu_l_gyro_y,foot_imu_l_gyro_z,insole_l_force_y,insole_l_cop_x,insole_l_cop_z,hip_angle_r,hip_angle_r_velocity,hip_angle_r_velocity_filt,hip_angle_r_torque_estimated,hip_angle_r_torque_desired,hip_angle_r_torque_measured,hip_angle_r_torque_interaction,knee_angle_r,knee_angle_r_velocity,knee_angle_r_velocity_filt,knee_angle_r_torque_estimated,knee_angle_r_torque_desired,knee_angle_r_torque_measured,knee_angle_r_torque_interaction,thigh_imu_r_accel_x,thigh_imu_r_accel_y,thigh_imu_r_accel_z,thigh_imu_r_gyro_x,thigh_imu_r_gyro_y,thigh_imu_r_gyro_z,shank_imu_r_accel_x,shank_imu_r_accel_y,shank_imu_r_accel_z,shank_imu_r_gyro_x,shank_imu_r_gyro_y,shank_imu_r_gyro_z,foot_imu_r_accel_x,foot_imu_r_accel_y,foot_imu_r_accel_z,foot_imu_r_gyro_x,foot_imu_r_gyro_y,foot_imu_r_gyro_z,insole_r_force_y,insole_r_cop_x,insole_r_cop_z
40,-7.79344740182654,95.0564359270123,99.6438780086938,0.291072497282595,8.62385351310601,11.1287968277781,11.1016518549278,-19.0147260839498,113.273896060332,102.266276186146,0.484139792071671,6.75374190441339,0.564181957440029,0.251958351231675,1.81433407724914,10.9497045591413,1.67208910458512,-12.1216402243439,-7.01539437816553,-149.577380585327,-0.740008147649574,14.3190647915264,0.638230779222338,-16.3396520258258,80.872564142149,18.1799334572173,-2.70812478217742,8.76507154098261,1.4087835755188,18.6134822100465,3.68029259881441,6.68922997838834,1418.57752665698,-0.197326924802435,-0.100134029482912,-11.2796807721311,-84.5669765733446,-108.340992364938,-0.244373304526715,-3.65364132071975,-5.14510113566814,-5.3402794212922,-59.7110903219188,-125.404144354226,-142.925807916181,0.0837060583393155,0.899895074965006,-1.2729884172009,-1.76698043247768,6.15067814422523,15.9307956356938,1.32561939849092,1.57234723594379,-66.7996401272543,208.917897087124,-17.290437375276,5.13219030075453,-1.88583808612891,54.5749909579895,-58.2516925433626,-68.7171695569757,3.26680684089661,26.0147037506104,-9.23519611358643,-53.9000015258789,-221.375,-338.765014648438,148,0.270886301994324,0.0790149196982384
40.005,-6.74343836768721,93.45738811399,100.945666019542,0.273489005419207,8.19676123795457,11.3530240308052,11.3435335829743,-17.7319824945886,117.538025450988,107.78129258902,0.441622869550519,7.14159201495811,1.27387181201335,1.0018069755557,1.16306847568101,9.95423394381666,1.33531297601757,-9.31211533188226,-9.2165455452737,-147.99071745237,-0.264559495554207,14.1853448581246,0.544131566828465,-7.82853417967425,61.670577363529,28.2165713483507,-3.07286747081563,8.85521938773025,0.644899729092553,16.0133723939,3.32494427144386,4.51380474429154,1453.49328704524,-0.186761334739049,-0.0960510807874825,-12.1402562189871,-76.3940617504821,-102.001410132445,-0.238027409060002,-3.52384886720065,-5.11680056330983,-5.29099113071425,-61.0371339345869,-120.073983088222,-137.269313401147,0.0823226529374529,1.00294046068568,-1.09447747227608,-1.60702863237602,6.08877076765031,15.0913316093379,1.65249034680649,1.03123090736304,-66.7874115096593,200.905095407971,-16.0820053845336,4.96875482659674,-1.60849303907328,57.3539443064636,-75.8028159466515,-63.385492285536,3.26680684089661,26.0147037506104,-9.23519611358643,-53.9000015258789,-221.375,-338.765014648438,148,0.270886301994324,0.0790149196982384
40.01,-5.75810895535739,90.725613408873,101.457561345444,0.254668705516268,7.76604308837589,11.4964455954604,11.5031255515857,-16.4877797222832,119.231585125412,112.262400183149,0.400973601544391,7.47076337713008,1.97013921724657,1.73987509870785,0.478849223677806,9.03340332362932,1.12021142649199,-6.4675398793586,-11.7364830988194,-146.014198129878,-0.0762681950509319,13.8721354924794,0.454342673459512,-0.571551027009526,45.6640266621141,35.8621680713545,-3.2037486964872,8.99386663972493,0.109833783816821,13.5436020890467,3.05255877844978,2.25010383627416,1475.92486656963,-0.176830338221089,-0.0924878644985172,-12.9444872443298,-69.2581386977987,-95.8606881306495,-0.232211140100545,-3.41159484185645,-5.07077309996801,-5.22236395311224,-62.2859466552919,-113.628070831669,-131.701700270294,0.0839632355366705,1.08643382635049,-0.932012523313797,-1.46262384284562,5.96603262979138,14.2831450752062,1.92673714216402,0.096358444001198,-65.2540379535285,193.34813841417,-14.6996934740417,4.75901382823869,-1.38784036875302,59.7365102042039,-90.31417941069,-56.6176235915683,3.7246899223426,26.5749994957927,-9.64096764344026,-48.6183533163223,-210.981774623969,-316.153134892856,144.00468219311,0.271147253004267,0.0778033033395633
40.015,-5.01307551277083,83.7900532151934,99.0374573580846,0.231261911494812,7.32196336763056,11.3399045959484,11.3609356018383,-15.3869103674909,111.383451732763,112.904889817966,0.367265733113805,7.58205993066843,2.61642941444722,2.42926803037154,-0.327532023289675,8.38982459970889,1.35678384279475,-3.4935045914425,-15.4391099250634,-142.591074092044,-0.953875545851511,12.8927765647744,0.380572780203806,2.02876704943664,41.5217325282585,34.6310996100419,-2.46656519268277,9.31250041763161,0.424202934216865,11.558174367069,3.08817179640308,-0.340745736747503,1452.01324599709,-0.169257025585511,-0.0908545655996865,-13.5394011681569,-65.9728732407527,-90.459465251156,-0.228362019151723,-3.36446430020194,-4.95895818695751,-5.08738102062946,-63.2478170307165,-103.042217842113,-126.465243500077,0.0968277375210255,1.09733621993966,-0.829142803344143,-1.37740722128727,5.61753347889376,13.5912343522562,2.00559461426495,-2.29982838248242,-58.0748989163836,187.484860819092,-12.6722933042213,4.37744541484714,-1.37766521106259,60.6472496271138,-93.5394531600985,-44.52049167071,5.88201773654252,29.214847186698,-11.552770553475,-23.7337330955605,-162.013828238719,-209.616686824038,125.180640465793,0.272376730341838,0.0720947419695849
40.02,-4.26800654334041,76.8541623000321,96.6172379683128,0.207854001322765,6.87786247098896,11.1833561317947,11.216653111302,-14.2859885178556,103.534944102673,113.547410089837,0.333556257326945,7.6933617913716,3.26275042993012,3.11959820517959,-1.13395172246482,7.74621518680252,1.59336754002911,-0.519327486956469,-19.1419133106906,-139.16778682289,-1.83152474526927,11.9133709364386,0.30679936923825,4.62920912178556,37.3792408695287,33.3999724453549,-1.72934653635802,9.63114938955756,0.738587075277841,9.57265197017249,3.12378651255951,-2.93171885416729,1428.10048520136,-0.161683351817292,-0.0892211888171642,-14.134343460394,-62.6874511261579,-85.0579848148994,-0.22451271465796,-3.31733151113235,-4.84713794206428,-4.95279108584832,-64.209733272832,-92.4558600672352,-121.228537029952,0.109692852947848,1.10823913340835,-0.726268178042366,-1.29177122796071,5.2690177098496,12.8992906356138,2.0844558466764,-4.69612947089091,-50.8954175427247,181.621303634218,-10.6447964580301,3.99585880640463,-1.3674895681708,61.5580324785403,-96.7648807063573,-32.4227828993477,8.03944842269963,31.8548207584716,-13.4646646276369,1.15207374578307,-113.043546821931,-103.07515857554,106.355701115963,0.273606266306911,0.0663859083874387
40.025,-3.52297310075385,69.9186021063526,94.1971339809532,0.184447207301309,6.43378275024363,11.0268151322827,11.070109187185,-13.1851191630634,95.6868107100241,114.189899724655,0.299848388896359,7.80465834490995,3.90904062713077,3.81036379146464,-1.9403329694323,7.10263646288209,1.82993995633188,2.45470780095963,-22.8445401369346,-135.744662785056,-2.70913209606985,10.9340120087336,0.233029475982543,7.22952719823173,33.2369467356731,32.1689039840423,-0.992163032553602,9.94978316746425,1.05295622567789,7.5872242481948,3.1593995305128,-5.52256842718895,1404.18886462882,-0.154110039181714,-0.0875878899183336,-14.7292573842211,-59.4021856691119,-79.6567619354059,-0.220663593709138,-3.27020096947784,-4.73532302905378,-4.81946585521448,-65.1716036482565,-81.8700070776794,-115.992080259734,0.122557354932203,1.11914152699752,-0.623398458072712,-1.20562434032848,4.92051855895198,12.2073799126637,2.16331331877732,-7.09231629737454,-43.7162785055798,175.75802603914,-8.61739628820963,3.61429039301308,-1.35731441048037,62.4687719014502,-99.9901544557658,-20.3256509784894,10.1967762368996,34.4946684493769,-15.3764675376717,26.0366939665449,-64.0756004366812,3.4612894932776,87.5316593886463,0.274835743644482,0.0606773470174603
40.03,-2.75079655521353,62.4962338689866,90.8353239760361,0.164031110635125,6.02082048299811,10.7096430772839,10.7605733920466,-11.9870383399967,89.8421195281318,113.803968162726,0.267046804801103,7.83453111399718,4.57204870859286,4.51784276398457,-2.52424524566559,6.67891475193472,2.07570688103665,4.91142277118242,-25.025743803275,-132.498667519881,-3.26641574179613,10.2370754094427,0.259952126702268,8.42441776669787,29.4748496691944,28.3550805109507,-0.462238788604736,10.1788330078125,1.27894043922424,6.15999984741211,3.18499994277954,-7.38500022888184,1387,-0.148665964603424,-0.0864137932658195,-15.439914855481,-56.7867456673589,-74.6221863134797,-0.216169215633887,-3.23274596427907,-4.57221703737611,-4.63684268649336,-65.9682037659007,-67.660858624034,-109.350046272094,0.12883509361225,1.11698163288071,-0.46858875048855,-1.06683746139246,4.59075541424202,11.5939632851401,2.11316131741559,-8.8777073431942,-36.6163692638586,170.415511902408,-7.00575607414964,3.102266242726,-1.27287803707483,62.1320259608099,-98.0066183326927,-4.96040109940163,11.3154545244426,33.9567107343482,-15.8911091897246,41.8596872504324,-19.2764992909538,89.772270768445,69.5424920511128,0.256211265927493,0.05257092423885
40.035,-1.90936274318476,53.8306557129609,85.0667212960851,0.151263848753985,5.68747642395623,9.9818900507051,10.0381026152581,-10.5406507841141,89.1199882950835,110.789061934117,0.2365675944449,7.65624830849228,5.27768170054497,5.26745712376403,-2.53934225208469,6.81730397744315,2.34493682884396,6.04525144257584,-23.3172348463808,-129.706031970339,-3.00473429719838,10.2622370868079,0.544279080928675,6.02629246720275,26.6853204995745,17.9393886337394,-0.462238788604736,10.1788330078125,1.27894043922424,6.15999984741211,3.18499994277954,-7.38500022888184,1387,-0.148665964603424,-0.0864137932658195,-16.4463368375223,-55.8840806662067,-70.525755847302,-0.210026074322614,-3.22003170303067,-4.27801898110356,-4.32571252847573,-66.3421744556737,-44.1915829917051,-99.1159426696218,0.118273467437098,1.08142987387099,-0.181026710603024,-0.794346556796219,4.30894462775213,11.1813117763513,1.73321998920152,-9.10136669755124,-29.7202058378494,166.405175423589,-6.45723150758896,2.25683388325633,-0.998615753794481,58.6062847497646,-82.7076972186857,18.7568096022113,9.77875545186354,25.2951514360164,-12.8339820431121,34.5149937331222,14.8578331440825,124.364543735056,53.6906353110565,0.186835601510523,0.0383360201456142
40.04,-1.06788880747033,45.1646643397232,79.2978435409027,0.138495978067262,5.35411646943683,9.25410232129727,9.3133515813387,-9.09419425738824,88.3978226272809,107.774011940012,0.206086930690654,7.47795700158996,5.98334834053446,6.01613370548511,-2.55443997840301,6.95569980202771,2.61417961485392,7.17913418047401,-21.6086444194109,-126.913263254255,-2.74304037434759,10.287399964005,0.828619593256948,3.62805281334688,23.8956583115401,7.5232000853214,-0.462238788604736,10.1788330078125,1.27894043922424,6.15999984741211,3.18499994277954,-7.38500022888184,1387,-0.148665964603424,-0.0864137932658195,-17.4528068106934,-54.9813726215659,-66.4291300432544,-0.203882640076272,-3.20731683550403,-3.98380689602664,-4.01759597053054,-66.716162978201,-20.7211882293571,-88.8813510549614,0.107711337631877,1.04587641957926,0.106549041649098,-0.520589341748914,4.02712040314357,10.7686405903173,1.35326054352391,-9.32503671708184,-22.8237135689892,162.394647712283,-5.90868078469016,1.41136120943068,-0.724340392345076,55.0803754141087,-67.4080465771829,42.4751512566019,8.24198310194565,16.6331791121112,-9.77670911770289,27.1699499848494,48.9937932712858,158.958466230682,37.8380226768252,0.117456628922059,0.024100437262426
40.045,-0.226454995441565,36.4990861836975,73.5292408609517,0.125728716186122,5.02077241039495,8.52634929471843,8.58659828392146,-7.64780670150568,87.6756913942326,104.759105711403,0.175607720334452,7.29967419608507,6.68898133248658,6.76334396800762,-2.56953698482211,7.09408902753614,2.88340956266122,8.31296285186743,-19.9001354625167,-124.120627704714,-2.48135892974984,10.3125616413702,1.11294654748336,1.22992751385177,21.1061291419201,-2.89249179188986,-0.462238788604736,10.1788330078125,1.27894043922424,6.15999984741211,3.18499994277954,-7.38500022888184,1387,-0.148665964603424,-0.0864137932658195,-18.4592287927346,-54.0787076204137,-62.3326995770767,-0.197739498764999,-3.19460257425564,-3.68960883975408,-3.71281324000781,-67.0901336679739,2.74808740297171,-78.6472474524894,0.097149711456725,1.01032466056954,0.394111081534624,-0.245262844504713,3.74530961665368,10.3559890815286,0.973319215309844,-9.54869607143888,-15.92755014298,158.384311233464,-5.36015621812948,0.565928849961016,-0.450078109064727,51.5546342030634,-52.1091254631759,66.1923619582147,6.7052840293666,7.97161981377935,-6.71958197109042,19.8252564675392,83.128125706322,193.550739197294,21.9861659367688,0.0480809645050896,0.00986553316919024
40.05,0.431581404342052,30.20076543541,67.3072484291345,0.113466615565803,4.74062113654564,7.85633252215825,7.91584667806975,-6.37796034867638,87.5848869586266,101.67266565694,0.139186869561664,7.04696448647708,7.23753968144004,7.35162288468363,-2.41196989661462,7.29440705453071,2.87342109264139,8.37573046727384,-17.6153847357054,-121.007987589251,-2.31223520170283,10.4180934522603,1.20559294546929,-0.582143625820565,18.0329013722149,-9.59552071836683,-0.609928672722815,10.0868199136468,1.22463120005839,5.95730334775892,3.20498411567342,-7.58484184113666,1367.5868132982,-0.146204152703512,-0.0862404124240378,-19.3118378595994,-53.5116378821685,-58.9172018603361,-0.191882638603545,-3.19051049498142,-3.46635300001387,-3.48243908914096,-67.2298656876605,22.1153139493878,-66.3794026046693,0.0902071738114656,0.981150820130474,0.600577431398837,-0.0491090153617305,3.45048702615042,10.0169807926211,0.710815680113505,-9.01390015091109,-9.49463364641756,154.227345190991,-5.06075233123862,-0.0493644840867455,-0.25755295965943,48.5924996809093,-38.1920947486442,89.0090537273539,5.64027118682861,1.96870613098145,-4.60083293914795,14.7349996566772,106.785003662109,217.524993896484,11,0,0
40.055,0.675489810032658,29.2475856446891,60.0626799393502,0.10234683800628,4.58059786693097,7.3167613433663,7.37419111820218,-5.50685889978136,88.9193379561461,98.4252150114696,0.0893582242930927,6.62627280816376,7.43141157191399,7.58298636023976,-1.86463232312992,7.63450030407461,2.23308927123455,6.02053223065625,-14.0301038546148,-117.173409958881,-2.35208987938375,10.7050471315629,0.865499695925392,-1.07089646322449,14.3196918960991,-7.91604788111307,-1.09101046207358,9.78709847876829,1.04772547552483,5.29704421538442,3.27008012215953,-8.23580152591392,1304.35072471113,-0.138185100613878,-0.0856756454726544,-19.8170766999585,-53.702273738957,-57.039463087062,-0.186672977431162,-3.2058839150691,-3.40328626106906,-3.41573095477512,-66.8407743828586,32.2190194269621,-49.5222245143763,0.0914359277522744,0.966379875364945,0.623935482859877,-0.0338096881445464,3.1263356476789,9.84427718933712,0.713472658625579,-6.76694918700713,-4.10851177381856,149.740003703954,-5.32379320393272,-0.145015710520968,-0.249582024123252,46.9031861824998,-27.3968894607494,109.789249867984,5.64027118682861,1.96870613098145,-4.60083293914795,14.7349996566772,106.785003662109,217.524993896484,11,0,0
40.06,0.919409846470757,28.294360401687,52.8177659930551,0.0912265302012967,4.42056696662299,6.77716443517762,6.83161203707523,-4.63571591250244,90.2538525868255,95.1776095116456,0.0395272029506443,6.2055610692106,7.62529270714929,7.81182120653618,-1.31726864990876,7.97460977093048,1.59272691566999,3.66522168665052,-10.4446520097704,-113.338649477067,-2.39194645753091,10.9920144942226,0.525390229069516,-1.55967260675771,10.6063053559675,-6.23649495836805,-1.57211519176049,9.48736275170363,0.870811315259796,4.63675359862041,3.33517923274208,-8.88679225163747,1241.11162071762,-0.130165666136562,-0.0851108515904165,-20.3223396325803,-53.8929186861969,-55.1616347740057,-0.181463067836617,-3.22125806823676,-3.34021651479322,-3.35238461959637,-66.4516645242775,42.3232066987036,-32.6642425912623,0.0926647402860897,0.951608226248418,0.647294648147224,-0.0159509775210718,2.80216881208189,9.67156535069938,0.716129763835403,-4.51989107747522,1.27786693545358,145.252448238495,-5.58684661970406,-0.240671498074184,-0.241610708493825,45.2137921293481,-16.6011694045894,130.570436910152,5.64027118682861,1.96870613098145,-4.60083293914795,14.7349996566772,106.785003662109,217.524993896484,11,0,0
40.065,1.16331825216136,27.3411806109661,45.5731975032708,0.0801067526417738,4.26054369700832,6.23759325638567,6.28865942439525,-3.76461446360741,91.5883035843449,91.9301588661749,-0.0103014423179275,5.78486939089728,7.81916459762323,8.0378715136022,-0.769931076424065,8.31470302047438,0.952395094263147,1.31002345003293,-6.85937112867987,-109.504071846696,-2.43180113521183,11.2789681735253,0.18529697952562,-2.04842544416163,6.89309587985173,-4.55702212111429,-2.05319698111126,9.18764131682508,0.693905590726231,3.97649446624591,3.40027523922819,-9.53775193641472,1177.87553213055,-0.122146614046929,-0.0845460846390331,-20.8275784729394,-54.0835545429854,-53.2838960007316,-0.176253406664234,-3.23663148832444,-3.27714977584841,-3.2921873898125,-66.0625732194756,52.426912176278,-15.8070645009693,0.0938934942268985,0.936837281482888,0.670652699608264,0.00472842082594781,2.47801743361037,9.49886174741538,0.718786742347477,-2.27294011357126,6.66398880805258,140.765106751457,-5.84988749239816,-0.336322724508407,-0.233639772957647,43.5244786309385,-5.80596411669459,151.350633050782,5.64027118682861,1.96870613098145,-4.60083293914795,14.7349996566772,106.785003662109,217.524993896484,11,0,0
40.07,1.44448415461954,29.1766726808693,40.3370361065625,0.0744382106162176,4.20407888211426,5.77621469332992,5.82402230802947,-2.95180100842418,89.7204805161447,89.6755037464478,-0.0485970141965763,5.32574009640025,7.8166362093514,8.06458445507597,-0.603436592693567,8.74476533111164,0.651368628342068,1.3889694604263,-5.62892677153746,-108.122494918694,-2.5866633845843,11.1769529652352,-0.125364689843242,-1.77610026901853,5.63975546148788,-1.83296881336047,-2.32248715659863,9.09798105887015,0.633452792905209,3.6951398346093,3.46524481789749,-10.0615735167299,1133.75124340428,-0.115533161048286,-0.0842874702305544,-21.3318357686398,-53.9641736132738,-52.3291574060303,-0.172165586066086,-3.28263878973436,-3.25088091347332,-3.27162664598857,-65.557899161544,59.0016695967517,-0.0835284464063992,0.0973719336484114,0.951330141526611,0.687642049136635,0.022071576994632,2.09839152717816,9.23442550935395,0.755964048574846,-1.65184212716341,9.90844985037381,136.446318317105,-6.02466535383375,-0.476383650180512,-0.212737256684104,42.3019818104689,-0.428990605389919,167.146090690824,5.89936409831098,3.1869939013237,-4.36861401150319,21.8393382566489,106.251296215428,211.080238147934,9.41758186270797,0,0
40.075,1.7569326670412,33.3553102619403,36.7889883009996,0.0733508110981456,4.23463865718331,5.38058146783586,5.42577397122539,-2.18803797806013,85.1619669749485,88.2552874306553,-0.0771980435731385,4.83435215998668,7.64907390208332,7.92324037485922,-0.756977202151025,9.25039044156632,0.635485117018883,3.513307394597,-6.37734736680683,-108.802283057629,-2.83815231386804,10.7480981595092,-0.411267893660552,-0.864269063428329,6.45354030088559,1.7686010381105,-2.41378630150234,9.18484199172591,0.670860093276284,3.73220138880084,3.53010245883843,-10.4785156384712,1105.69037339998,-0.110101406044408,-0.0842861369176587,-21.835224028806,-53.5842976531485,-52.1500948773706,-0.169020801020718,-3.35438354641282,-3.25553542200854,-3.28445035928246,-64.9561457977231,62.6104932376348,14.6860343131227,0.102740466938282,0.990411954009206,0.699278320474696,0.0372427372426326,1.67218397333939,8.89293001590548,0.82214534575478,-2.39699451022636,11.3529996456099,132.269543117305,-6.12526092554725,-0.653749526622739,-0.180970234037735,41.4718559100391,0.394598870627043,178.751512235809,6.37614871104324,5.42889569422011,-3.94128309437102,34.9127925195487,105.269163987948,199.220552924798,6.50560478679088,0,0
40.08,2.06939607853837,37.5341471009188,33.2407713071382,0.0722633597275383,4.26519988949212,4.98492937661171,5.02864332892428,-1.42423852773372,80.6032360614982,86.8350033919923,-0.105800436786875,4.34294079178938,7.48150360462368,7.7788512839218,-0.910525133176813,9.75603966270293,0.619600848292078,5.63774662760583,-7.12580365043609,-109.482103612192,-3.08965323537578,10.3192229038855,-0.69718473074303,0.0476056227400818,7.26736394553051,5.37034263007318,-2.50508979999648,9.27170706653641,0.708269177410669,3.76926471026882,3.59496319250938,-10.8954776420551,1077.62816531596,-0.104669392027845,-0.0842848035411841,-22.3386362929901,-53.2044035786768,-51.9710238101324,-0.165875866016596,-3.4261317242327,-3.26019015249353,-3.29930679799689,-64.3543637393544,66.2194889649057,29.4563013577484,0.108109256226116,1.02949563010405,0.710915146687171,0.0556756232231504,1.24595609583682,8.55141823827918,0.888329798783132,-3.14218242580484,12.7976183240559,128.092568748405,-6.22586129415034,-0.831123860738727,-0.149201696584125,40.6416904251403,1.21822761942432,190.357487184139,6.85295605920121,7.67090439197527,-3.51393180000758,47.986870188784,104.286984927592,187.36030217378,3.59348885354339,0,0
40.085,2.38185949003553,41.7129839398974,29.6925543132769,0.0711759083569309,4.29576112180093,4.58927728538756,4.63308981628292,-0.66043907740732,76.0445051480478,85.4147193533294,-0.134402830000611,3.85152942359209,7.31393330716404,7.63147625362197,-1.0640730642026,10.2616888838395,0.603716579565273,7.76218586061465,-7.87425993406535,-110.161924166755,-3.34115415688351,9.89034764826178,-0.983101567825507,0.959480308908492,8.08118759017544,8.97208422203585,-2.59639329849062,9.3585721413469,0.745678261545054,3.8063280317368,3.65982392618032,-11.312439645639,1049.56595723194,-0.0992373780112819,-0.0842834701647096,-22.8420485571743,-52.824509504205,-51.7919527428942,-0.162730931012474,-3.49787990205258,-3.26484488297852,-3.31573472589745,-63.7525816809857,69.8284846921766,44.2265684023741,0.113478045513949,1.06857930619889,0.722551972899646,0.0773771927256334,0.819728218334242,8.20990646065288,0.954514251811484,-3.88737034138331,14.2422370025019,123.915594379504,-6.32646166275344,-1.00849819485472,-0.117433159130515,39.8115249402415,2.0418563682216,201.963462132468,7.32976340735918,9.91291308973043,-3.08658050564413,61.0609478580193,103.304805867237,175.500051422762,0.681372920295892,0,0
40.09,2.84537236326149,45.5554151510208,30.2379297568904,0.0598136269521164,4.34873797875724,4.41911373427855,4.46496704558912,-0.0729518483898157,69.5500593035846,83.0049862900768,-0.151503650586484,3.38924886553951,6.92742034271004,7.26227876352188,-1.15673726208387,9.83364117993328,1.41533546994573,7.77412583403382,-2.61173747929803,-114.798743226188,-2.83683013931584,10.0968014912682,-1.05000000000001,-0.622413596800394,9.73997669590578,7.6952746628941,-2.50955020075058,9.31598613416402,0.663839951707847,3.14571048961252,3.42493571110771,-11.6968381798504,1021.9861992282,-0.0951144379169573,-0.0836861350690494,-23.3410545024963,-52.5848502452101,-51.8933692270732,-0.159585639120446,-3.55122840493993,-3.27517082543204,-3.33892971773933,-63.0055056865417,74.8945347031631,53.9069863725283,0.112138080592112,1.10472710955638,0.708648438733277,0.0767401925357158,0.741013800771817,8.00391719536921,0.843917195369242,-3.68296112189106,14.5517096532729,119.64092089124,-6.52651592648311,-0.984857217607441,-0.206663483550274,38.5536224300695,2.91427355582849,213.847255793522,7.02611631934486,11.4229265665866,-2.60157669272477,65.5100652187332,107.017186421934,190.722273465876,0,0,0
40.095,3.35505451073897,49.2953251977597,32.0337909740429,0.0453120307278758,4.40856533664746,4.31781859096298,4.36792494205261,0.460714627220458,62.4639147780752,80.2928605415201,-0.165092200501021,2.93583799155204,6.47400385610054,6.82344712342527,-1.23080934004841,9.12035450323761,2.47977866439926,7.14077061778459,4.48726002475757,-120.644578002905,-2.10159618026032,10.4973393943358,-1.05000000000001,-2.96616658955159,11.656976976104,4.92815588388006,-2.36828403336296,9.23385461868006,0.545570566140535,2.27193429365426,3.09846987030678,-12.0713136223239,994.55209627837,-0.0913911182656314,-0.0829067047436123,-23.8387455324354,-52.38801298449,-52.0804713332199,-0.156440042413875,-3.59895976039256,-3.28722977106485,-3.36447990812736,-62.2140008810721,80.4059800963833,62.0332329662844,0.10874873837497,1.13998035491344,0.686942336594226,0.0713612710986868,0.768447903721641,7.83931257767021,0.679312577670237,-3.18846988353604,14.5144534640817,115.33613757652,-6.7569623912617,-0.899811498462957,-0.332860357119501,37.1649826511274,3.80164824383543,225.816653302746,6.48404831715068,12.7094346565233,-2.09893182450369,67.324830542809,112.163824721379,214.21820792326,0,0,0
40.1,3.86471235523403,53.0350569157722,33.8295665598195,0.0308111259778018,4.46838984181223,4.21652827766569,4.27325995196835,0.994355656212592,55.3781081385341,77.580864114237,-0.178680102477836,2.48244873738501,6.0206089895791,6.38208531163948,-1.30487788606188,8.40710183792267,3.5441711034077,6.50744560157429,11.5859190299812,-126.490134034879,-1.36639727908956,10.897858198705,-1.05000000000001,-5.30980782600902,13.5738858486978,2.16116904835157,-2.22702460191694,9.1517270194423,0.427306819967918,1.3981997616382,2.77201959625392,-12.4457712088256,967.119301458565,-0.0876679761519581,-0.0821273115834585,-24.3364128311599,-52.191185109487,-52.2675645178471,-0.15329459569761,-3.64668883988891,-3.29928814169548,-3.39019512740228,-61.4225338166288,85.9171626894226,70.159092079276,0.105359557770559,1.17523191930325,0.665237269459093,0.0688305977338855,0.795880698541436,7.67471580875137,0.5147158087514,-2.69400222382103,14.4771990513635,111.031559525165,-6.98739786774806,-0.814769834521561,-0.459051213290599,35.7764090861743,4.68898061948838,237.785480079683,5.94200616218147,13.9958814023779,-1.59631092370909,69.1395093341114,117.310217615602,237.713022032825,0,0,0
40.105,4.38298189601113,56.5092219828949,35.8915841396018,0.0177849766510506,4.50544799247025,4.13060839686944,4.19637794849113,1.50890349997136,48.8456890121823,74.6209884314836,-0.192835136450639,2.03377594364449,5.55840276705813,5.92955507208826,-1.38491732787305,7.70995341694392,4.41935781929871,5.10506182319169,18.5746283182764,-132.050405571513,-0.686598157153853,11.2986434604556,-1.07951036600974,-7.29310133442034,14.8973358991617,-0.505013476918593,-2.10282731056213,9.07951927185059,0.323327660560608,0.629999995231628,2.48499989509583,-12.7749996185303,943,-0.0843945369124413,-0.0814420580863953,-24.8278375483938,-51.7621886149617,-52.3859227734889,-0.150345392129773,-3.68286906747967,-3.32129362625999,-3.42559684966365,-60.6061689865214,91.6933729825436,77.8722551459314,0.101759090277751,1.2048141375321,0.646724046966991,0.0720569223578944,0.858590478628096,7.47033068850778,0.392375991809577,-2.2376399435012,14.7142855337207,106.6011366114,-7.14816662400819,-0.736757102636302,-0.563838495008952,34.4554661307498,4.71165903553923,249.033689768601,5.3524280374362,15.1469819424797,-1.1092743877845,70.3797411447783,122.380940825963,260.904481512206,0,0,0
40.11,4.96370770612824,58.049688520351,39.8900294494144,0.0154946468367496,4.37683798900579,4.15656142622911,4.23369800037705,1.88432162898015,46.3424298650382,69.8586510925828,-0.211111174649197,1.61959832359688,5.03226537812174,5.41093383279112,-1.50837087279242,7.13025851036599,3.91749232147429,-1.89262703536228,24.760558762841,-135.532683502545,-0.410169567443069,11.7012093678014,-1.32373368313284,-6.65363450217559,11.902113016523,-2.43666717224859,-2.10282731056213,9.07951927185059,0.323327660560608,0.629999995231628,2.48499989509583,-12.7749996185303,943,-0.0843945369124413,-0.0814420580863953,-25.2736457927617,-49.6440461021816,-52.0041022687162,-0.14882526526844,-3.63500276323834,-3.41566804580015,-3.53272239412584,-59.6089641254407,99.3957097649361,82.5794975869311,0.0966226688856558,1.19313314079099,0.651442767943999,0.100734997274975,1.17795943178909,6.97651650883028,0.57755630918864,-2.05872176245864,16.947449497104,101.256784277666,-6.8019599436908,-0.70991937547991,-0.512846813411819,33.6271412185157,-1.55710390024871,255.034075432826,4.41719930787388,15.3128163254349,-0.735825679803447,67.4396676433828,126.899071947034,281.87950684367,0,0,0
40.115,5.54446120809649,59.590228514797,43.8886654246846,0.0132042078083045,4.24822185278642,4.18251569315635,4.27314338667734,2.25975765976419,43.8390513502365,65.0960866621109,-0.229388084338776,1.20540095353162,4.50610290037753,4.89031529813508,-1.63183030458151,6.55053596109546,3.4156028922447,-8.89064957799706,30.946784182869,-139.015127485646,-0.133727796263128,12.1037944714615,-1.56796864601996,-6.01413717702004,8.9067473069862,-4.3684129782884,-2.10282731056213,9.07951927185059,0.323327660560608,0.629999995231628,2.48499989509583,-12.7749996185303,943,-0.0843945369124413,-0.0814420580863953,-25.7194752954503,-47.5258025859914,-51.6222635568716,-0.147305065920013,-3.58713417649716,-3.51004696557489,-3.63887374305839,-58.6117117127476,107.098413832474,87.2869644923073,0.0914860025638297,1.18145158704274,0.656161713932736,0.131231529323404,1.4973436140261,6.48267878167391,0.762745456872284,-1.87979504972082,19.1807199486834,95.912177099034,-6.45573675454311,-0.683080368569231,-0.46185270028154,32.7987768076924,-7.82616576135903,261.034747224829,3.48192598202481,15.4786586161858,-0.362359163958779,64.4994539448817,131.417418514727,302.855532367082,0,0,0
40.12,6.1251870182136,61.1306950522531,47.8871107344973,0.0109138779940035,4.11961184932196,4.20846872251602,4.31439280302182,2.63517578877297,41.3357922030923,60.3337493232101,-0.247664122537334,0.791223333484012,3.97996551144114,4.36791748489762,-1.75528384950088,5.97084105451753,2.91373739442029,-15.888338436551,37.1327146274335,-142.497405416679,0.142700793447655,12.5063603788073,-1.81219196314306,-5.37467034477528,5.91152442434758,-6.3000666736184,-2.10282731056213,9.07951927185059,0.323327660560608,0.629999995231628,2.48499989509583,-12.7749996185303,943,-0.0843945369124413,-0.0814420580863953,-26.1652835398182,-45.4076600732113,-51.2404430520989,-0.14578493905868,-3.53926787225582,-3.60442138511505,-3.74376619631154,-57.6145068516669,114.800750614866,91.994206933307,0.0863495811717347,1.16977059030164,0.660880434909744,0.16309713716659,1.81671256718709,5.98886460199641,0.947925774251346,-1.70087686867826,21.4138839120667,90.5678247652994,-6.10953007422573,-0.656242641412839,-0.410861018684408,31.9704518954583,-14.094928697147,267.035132889053,2.54669725246249,15.644492999141,0.0110895440222694,61.5593804434861,135.935549635798,323.830557698547,0,0,0
40.125,6.70865342182951,61.4475887240197,51.3317720513938,0.0120669823835766,3.91409739137362,4.26564917732217,4.38825552928427,2.99596183397935,39.3592106500027,55.7891802588419,-0.265990834733369,0.380497029233126,3.4928176519004,3.88284524295824,-1.67238986869706,5.83443555279311,2.37304871416363,-19.8388663959845,41.3279168117435,-144.917325867032,0.639158573537411,11.8879690777717,-1.9407008002486,-5.29342353515558,4.8148742843276,-8.8391407230917,-1.83756459727171,9.19995317376861,0.432462844701555,0.434863636566111,2.46998942071543,-12.7224629326362,931.420480149173,-0.0837554675671995,-0.0816773141021357,-26.5757013212952,-42.7410236767942,-50.3553169479607,-0.143396541155029,-3.47148595951357,-3.68416013375704,-3.83255542374555,-56.4860484732541,122.462519736605,97.115889310728,0.0819934943872929,1.15868417753454,0.689185776439879,0.21943317648422,1.95210240074586,5.60208142335483,0.962431823479139,-0.860599625342083,24.0480743867686,85.0539628277178,-5.75847253515653,-0.6271338668324,-0.333896356149478,30.0064735442199,-18.1192085567037,274.721087025958,1.98068118095398,15.7448587417603,0.237106949090958,59.7799987792969,138.669998168945,336.524993896484,0,0,0
40.13,7.29625027789506,59.8888901608828,53.9271494190863,0.0184982164604902,3.5907247423804,4.37068969291478,4.51086213816092,3.33427551280102,38.1901856917551,51.5789662076898,-0.284393009207639,-0.024889320138984,3.06549373619411,3.45604125994474,-1.27320604459637,6.37754279646752,1.7729152099034,-19.1180759182684,42.4711240345397,-145.708519135595,1.47282819257763,9.7046779582006,-1.8918211483179,-6.06785423446909,6.62858427709213,-12.3089925576782,-1.16572590640053,9.50497966617476,0.708872741636312,-0.0593639694211571,2.43197194991454,-12.5894017200896,902.092688990754,-0.0821368778040275,-0.0822731539458665,-26.9318212558167,-39.2339503558937,-48.6988056335516,-0.139677502228285,-3.37318458769148,-3.74145496044392,-3.89728488404368,-55.156534396339,130.061179375477,102.872227484125,0.0788340697921169,1.14851051189438,0.753642456462617,0.312295137018922,1.80546344495378,5.37940745344832,0.715318027607275,0.993340533620573,27.2966603072655,79.2809339782898,-5.40002175433142,-0.594547432211934,-0.217128298759478,26.3019457401444,-18.7025459665762,284.989836948025,1.98068118095398,15.7448587417603,0.237106949090958,59.7799987792969,138.669998168945,336.524993896484,0,0,0
40.135,7.88387515345688,58.3301172713635,56.5226505470845,0.024929757210146,3.26733667339534,4.47573521735368,4.63379440933397,3.67260532407603,37.0211049886713,47.3685513929094,-0.302796061187724,-0.430295000317892,2.63814944359039,3.02773577891462,-0.874003185455679,6.92067593815555,1.17275308833811,-18.3972510697318,43.6143857710558,-146.499750132128,2.30653756506876,7.5212827286147,-1.84293916556598,-6.84232186243166,8.44238075643302,-15.7790098517962,-0.493855178969768,9.81002070373815,0.985295819148865,-0.5536151426015,2.39395266625442,-12.4563341625327,872.763499339601,-0.0805182108585674,-0.0828690222021597,-27.2879581718809,-35.726709800559,-47.0422153285691,-0.135958285959549,-3.27487852837849,-3.79875251922877,-3.96031783983935,-53.8269569216804,137.660201355661,108.628840147922,0.0756744945401006,1.138336361124,0.818102210095579,0.405016667485889,1.65881749669802,5.15672286535623,0.468192448139214,2.84736909753096,30.5454011362514,73.5076298425688,-5.04155388081732,-0.561959443710651,-0.100354673296549,22.5972412860378,-19.2859111928337,295.259076534385,1.98068118095398,15.7448587417603,0.237106949090958,59.7799987792969,138.669998168945,336.524993896484,0,0,0
40.14,8.47147200952243,56.7714187082265,59.118027914777,0.0313609912870597,2.94396402440212,4.58077573294629,4.75644220293769,4.0109190028977,35.8520800304237,43.1583373417574,-0.321198235661994,-0.835681349690002,2.2108255278841,2.59801194470238,-0.474819361354995,7.46378318182996,0.572619584077881,-17.6764605920158,44.757592993852,-147.290943400691,3.14020718410897,5.33799160904357,-1.79405951363528,-7.61675256174517,10.2560907491976,-19.2488616863828,0.177983511901416,10.1150471961443,1.26170571608362,-1.04784274858877,2.35593519545354,-12.3232729499862,843.435708181182,-0.0788996210953954,-0.0834648620458906,-27.6440781064024,-32.2196364796585,-45.38570401416,-0.132239247032805,-3.17657715655641,-3.85604734591565,-4.02162814544887,-52.4974428447652,145.258860994533,114.385178321319,0.0725150699449246,1.12816269548384,0.882558890118316,0.497081556152467,1.51217854090594,4.93404889544972,0.22107865226735,4.70130925649362,33.7939870567483,67.7346009931409,-4.68310309999221,-0.529373009090185,0.0164133840934509,18.8927134819623,-19.8692486027062,305.527826456452,1.98068118095398,15.7448587417603,0.237106949090958,59.7799987792969,138.669998168945,336.524993896484,0,0,0
40.145,8.91602505037603,51.3280571935904,59.0844999843522,0.0396017740372121,2.61755361021378,4.55309475402965,4.7454774557985,4.23983071359903,31.0608055270597,39.8045102806345,-0.343701513407478,-1.16541364752339,1.84310191020428,2.22646430255273,0.0219576333089766,7.67644694088311,0.322855847459745,-15.4621334599589,48.0783399118286,-143.520774269143,4.30572983048286,5.24812750308555,-1.57679101282081,-8.50850695367624,12.197081517678,-23.4223443698436,-0.435414761063891,10.0806604939166,1.18934581526635,-1.64439792415182,2.37134190923408,-11.2379091729842,808.281781315332,-0.0693289688066891,-0.0877262532126633,-27.8986744508532,-28.3758646589644,-42.7540833214451,-0.12491424720091,-3.07727161490852,-3.83117429313694,-3.9990884113247,-51.0087585697898,151.899525077195,120.967059224533,0.0616715529118645,1.12915318415046,0.901098906993866,0.542092860019247,1.42484244729354,4.98289388176621,-0.107774363366186,6.45177765525701,33.8898211663046,61.8301003706409,-4.54801340016623,-0.467316188509093,0.02742122364677,16.3172628981886,-19.498119741363,311.886881289491,1.32049587822595,15.7556741284302,0.666565365482616,60.7217228284294,138.472433301646,345.738074741905,0,0,0
40.15,9.30279463430865,44.3166338608867,57.9895581830897,0.0485726074442741,2.28993855149781,4.47182954660558,4.67943997322781,4.42455624067166,24.8073745322874,36.7966725201084,-0.367859098492602,-1.46457867820955,1.49946642648119,1.87757438124904,0.558104455807158,7.75568046144934,0.214570036019235,-12.6449416176039,52.2780425657095,-137.909215055378,5.60515956776908,6.00348706581697,-1.29155033878238,-9.44757090112789,14.1893317673063,-27.8796374815325,-1.56768425006593,9.90923858396935,0.976175535591011,-2.28222775463493,2.40831751690227,-9.76812747730626,770.777914913982,-0.0565483251858721,-0.0934673193586476,-28.1122637744438,-24.3964086629735,-39.7289399949117,-0.116133836982133,-2.97756728833108,-3.77312776138343,-3.94178307865951,-49.4559092378918,158.152955568214,127.881811069204,0.0477263222196155,1.13465111513902,0.901098906993866,0.566990735278592,1.36145563084056,5.14136092289868,-0.469607440618649,8.16035233742597,32.7127305932836,55.8729134539945,-4.50311440517871,-0.393364902647283,-0.0042721845797242,14.1978477390096,-18.7416515614714,316.666977633116,0.393806053359173,15.7708554854486,1.26938815331056,62.0436033528174,138.19511517366,358.670304889784,0,0,0
40.155,9.6895826613095,37.3048761891753,56.8945641696389,0.0575438686246137,1.96230787049112,4.39056046405837,4.6113511677304,4.60929057636224,18.5536453432948,33.788691331145,-0.392017835529712,-1.76375797454975,1.15581455653505,1.52721908353927,1.09427684441199,7.83491776025794,0.106279060980832,-9.82761543774281,56.477945481984,-132.297388254984,6.90465126823003,6.75888264779224,-1.00629606307144,-10.3866796277483,16.181677017185,-32.3371431387896,-2.70000773122327,9.7378084997858,0.762995090912591,-2.92008799996857,2.44529488774854,-8.29827569523782,733.272260144581,-0.0437670721213652,-0.0992086592667866,-28.3258632830195,-20.4167629070286,-36.7036524147268,-0.107353008070387,-2.87785820736297,-3.71507846168696,-3.88301739602154,-47.9029858585315,164.40668425343,134.796892643112,0.0337804265504607,1.14014930829586,0.901098906993866,0.589946670638019,1.29806579179368,5.29983552051588,-0.831457771844564,9.8690084928047,31.5355838908184,49.9154424694965,-4.45821326918719,-0.319410090425935,-0.0359671041031631,12.0783315157344,-17.9851473094716,321.447301915149,-0.532927960617555,15.7860375663885,1.87223968668177,63.3655469109437,137.917783821786,371.603151709741,0,0,0
40.16,10.0763522452421,30.2934528564717,55.7996223683764,0.0665147020316756,1.63469281177516,4.30929525663431,4.54072045741622,4.79401610343487,12.3002143485225,30.780853570619,-0.416175420614836,-2.06292300523591,0.812179072811959,1.17541009806181,1.63042366691017,7.91415128082418,-0.00200675045967769,-7.01042359538788,60.677648135865,-126.685829041219,8.20408100551624,7.51424221052366,-0.72105538903301,-11.3257435751999,18.1739272668133,-36.7944362504785,-3.83227722022531,9.56638658983858,0.549824811237254,-3.55791783045168,2.48227049541673,-6.8284939995599,695.768393743231,-0.0309864285005482,-0.104949725412771,-28.5394526066101,-16.4373069110378,-33.6785090881935,-0.0985725978516093,-2.77815388078553,-3.65703192993344,-3.82296683263104,-46.3501365266334,170.660114744449,141.711644487783,0.0198351958582117,1.14564723928442,0.901098906993866,0.610681447750015,1.23467897534069,5.45830256164835,-1.19329084909703,11.5775831749737,30.3584933177974,43.9582555528502,-4.41331427419967,-0.245458804564125,-0.0676605123296573,9.95891635655539,-17.2286791295801,326.227398258774,-1.45961778548433,15.801218923407,2.47506247450971,64.6874274353318,137.640465693799,384.535381857621,0,0,0
40.165,10.1719027107359,20.9782606140581,50.4148918447375,0.0734890454839719,1.41479604851052,3.98664935615514,4.22574433938638,4.74623471235162,3.40754221879049,26.1007642119221,-0.429530793747403,-2.26291992811513,0.458937342363686,0.812511276022088,1.62401878008366,8.22143244167392,-0.168379757489668,-1.51368272978522,55.7650960095001,-118.52607159708,8.87731976117206,7.58277256108787,-0.339813777321862,-10.7233196267363,18.4345215306577,-40.0059557615604,-3.63320056628747,9.08875691248249,0.403773707197976,-2.71092073911557,2.33300644129373,-5.26265097503494,703.728951313817,-0.0226956956886043,-0.106415429836802,-28.6389687339887,-13.577581412312,-29.9015756642168,-0.079027719110671,-2.68780587654556,-3.52474083535854,-3.68757933824358,-44.4544125311538,176.253671103949,148.7639760777,0.00694481363954503,1.12983657957289,0.874150208282855,0.602077179822616,1.21467292669457,5.55685341539759,-1.34517109866121,11.8487747679117,28.8461240464888,40.5887137652746,-4.22607512033459,-0.0688476814224517,-0.0853270733054463,5.93600990278092,-17.4755965097374,333.647730715539,-1.84188141609349,16.1204812947301,3.02675169261571,61.0656325480416,132.845613107817,391.58761744616,0,0,0
40.17,10.244239484621,11.4799485672793,44.688562875273,0.0803039191672489,1.20349523963849,3.64478317834128,3.88825840331868,4.67992609063029,-5.69500700138573,21.2876453338364,-0.44202459462525,-2.45500333020522,0.104948225784845,0.447385117799555,1.57437544385703,8.54687209027067,-0.339373471159151,4.19632240410008,50.1265936232663,-110.163655014598,9.50061942712855,7.59656237670638,0.0490590231200134,-9.99807747198523,18.5570976694888,-43.118027730774,-3.32803223439365,8.58674852866678,0.263079199894109,-1.74563364171043,2.16890766042039,-3.68923293537248,715.312396433362,-0.0147632141464784,-0.107540332899115,-28.7293886492656,-10.8072403109949,-26.0649226079596,-0.0586259698799486,-2.59820817785453,-3.38653961454017,-3.54539939134069,-42.531460660096,181.794350676385,155.826909042928,-0.00586083856371161,1.11232854096184,0.845055214426356,0.588896157378001,1.19812514795236,5.65062416160342,-1.48031129172256,12.005399834196,27.3071125256085,37.4255684048814,-4.02750177542809,0.11593584786554,-0.101874852047655,1.76161139703055,-17.8024662132871,341.278095357779,-2.18073720010352,16.4639610336281,3.57433740705884,57.0500368091045,127.690981460447,398.170882492409,0,0,0
40.175,10.3165797078777,1.98118359445757,38.9619608463946,0.0871191178170837,0.992184354908904,3.30290069867354,3.5472460107165,4.61361430698907,-14.7979902756948,16.4742969426669,-0.45451899126872,-2.64709589177278,-0.24905777072898,0.0807912794912705,1.52472974039297,8.87232725742394,-0.510375338646461,9.90659981899886,44.4878223656203,-101.800839671133,10.1239488150662,7.61035284989085,0.437950366921788,-9.27280073413584,18.6796796533507,-46.2302480988226,-3.02284935057899,8.0847162066324,0.122377983586986,-0.780300514688316,2.00480105451339,-2.11573986743099,726.896393908309,-0.0068303543447778,-0.108665289602316,-28.8198128762069,-8.03676710624447,-22.228086601292,-0.0382232477938913,-2.50860620670636,-3.24833180361066,-3.40254464855172,-40.608417093274,187.335294455562,162.890178803396,-0.0186671014031899,1.09481966748176,0.815958833178038,0.573388422512851,1.181576580131,5.74439937925775,-1.61545792893026,12.1620323691306,25.7680276171206,34.2622722102237,-3.82891896157185,0.300728188537314,-0.118423419869008,-2.41298616448759,-18.1293515035854,348.908823853181,-2.51960914241712,16.8074571513224,4.12194923307102,53.0342495868933,122.536104014992,404.754461460981,0,0,0
40.18,10.3216128406408,-6.044609732152,32.5793504681478,0.0901777213000245,0.821742984671732,2.96080654956658,3.20240062527384,4.4217446973319,-24.963515978481,10.6429434134027,-0.46528593283533,-2.82780063420965,-0.589057990715909,-0.273186436798489,1.44669551934828,9.02782586558047,-0.431922097759672,14.540802343416,38.2522503834452,-91.8488691508889,10.7388314663951,7.7250534623218,0.863971486761692,-8.53475208066178,15.8141139272334,-50.5003583012748,-2.8093581199646,7.73351860046387,0.0239501968026161,-0.105000004172325,1.88999998569489,-1.01499998569489,735,-0.00128090812359005,-0.10945225507021,-28.8935860120692,-6.09867763519287,-18.6779009163375,-0.0157091516548532,-2.42830146719258,-3.12062838825335,-3.26973396859225,-38.6584380573071,193.340383615125,169.70338864422,-0.0339417196414881,1.06678866450364,0.810409357555044,0.579364648732972,1.1956619144603,5.86052189409369,-1.68754582484723,12.1874512835986,23.7557673933268,30.2880962258932,-3.6699516293279,0.60883146639512,-0.123584521384925,-6.52633514369765,-17.5560898644741,356.351744990068,-2.87690028797099,17.2432725628622,4.46700318415636,48.3697223867273,117.335754089589,411.069337701118,0,0,0
40.185,10.1699067207849,-10.6415234987216,24.6680605495896,0.0844887138162958,0.746448631219959,2.61816517879424,2.85338534295431,3.93745433607315,-37.6050298549007,2.44000500564373,-0.472031806704948,-2.98201490208716,-0.896496504797105,-0.595894817736794,1.30253971486762,8.78756619144604,0.22745723014256,16.6698524050187,30.6259007819768,-78.1946053657188,11.3341415478615,8.07476476578412,1.37652545824846,-7.76684393150788,5.9895036584446,-57.46755927686,-2.8093581199646,7.73351860046387,0.0239501968026161,-0.105000004172325,1.88999998569489,-1.01499998569489,735,-0.00128090812359005,-0.10945225507021,-28.9285949599816,-6.09867763519287,-15.7946829590289,0.0117253385837756,-2.36963472459444,-3.01736660528086,-3.1610966923102,-36.6454240615208,200.427295308783,175.935357870561,-0.0549668960820605,1.01425001186383,0.859693390337367,0.638537551587549,1.28108757637476,6.02870366598778,-1.61279837067209,11.9073131175982,20.6412901360288,24.4249691986623,-3.60321283095723,1.20414154786152,-0.102228105906315,-10.4977056146438,-14.8865379296472,363.358494883206,-3.2771415004905,17.8941438752619,4.34040927347972,42.1937144335807,112.028685576367,416.759480155121,0,0,0
40.19,10.018207834675,-15.2382180723785,16.7571478620975,0.0787999775993743,0.671157868000564,2.2755401460617,2.50086796391524,3.45318706704983,-50.2459409507617,-5.76254226448375,-0.478777358913597,-3.13622181662364,-1.20392035940309,-0.919745961233531,1.15839078411405,8.54731797352342,0.886805117107929,18.7988009479269,22.9999148248724,-64.5409926516809,11.9294232433809,8.42445939409369,1.88905498981669,-6.99897239822988,-3.83463814714238,-64.4344280380176,-2.8093581199646,7.73351860046387,0.0239501968026161,-0.105000004172325,1.88999998569489,-1.01499998569489,735,-0.00128090812359005,-0.10945225507021,-28.9636022385755,-6.09867763519287,-12.9116024811193,0.0391585206739093,-2.31097077938056,-2.91410974610119,-3.05236414986997,-34.6325060515248,207.513869079893,182.167029940253,-0.0759910699870406,0.961713864404854,0.908975073127664,0.696660801880442,1.36650916496946,6.1968774185336,-1.53805448065173,11.6271883093209,17.5269613851802,18.5621217407156,-3.53647721486761,1.79942324338087,-0.0808727087576427,-14.4688867202233,-12.2171132860627,370.364910676121,-3.67736362845859,18.5449841524093,4.21382139913298,36.018000968702,106.7218701181,422.449351288199,0,0,0
40.195,9.86650171481908,-19.8351318389481,8.84585794353928,0.0731109701156456,0.595863514548789,1.93289877528935,2.1450173168769,2.96889670579108,-62.8874548271814,-13.9654806722427,-0.485523232783215,-3.29043608450114,-1.51135887348429,-1.24459771306084,1.01423497963339,8.30705829938899,1.54618444501016,20.9278510095296,15.373565223404,-50.8867288665108,12.5247333248473,8.77417069755601,2.40160896130346,-6.23106424907598,-13.6592484159312,-71.4016290136029,-2.8093581199646,7.73351860046387,0.0239501968026161,-0.105000004172325,1.88999998569489,-1.01499998569489,735,-0.00128090812359005,-0.10945225507021,-28.9986111864879,-6.09867763519287,-10.0283845238107,0.0665930109125381,-2.25230403678243,-2.8108479631287,-2.94366376877274,-32.6194920557385,214.600780773551,188.398999166594,-0.097016246427613,0.909175211765039,0.958259105909987,0.754483789460304,1.45193482688392,6.3650591904277,-1.46330702647658,11.3470501433205,14.4124841278821,12.6989947134847,-3.46973841649694,2.39473332484727,-0.0595162932790319,-18.4402571911694,-9.54756135123583,377.371660569259,-4.0776048409781,19.1958554648091,4.08722748845634,29.8419930155554,101.414801604879,428.139493742203,0,0,0
40.2,9.64685519178263,-22.8193411835409,1.86028729732243,0.0642957584128765,0.538484927216012,1.6438933717836,1.83977272532078,2.30012595948719,-72.4718112351145,-23.3183726998296,-0.497358114110909,-3.4632484922501,-1.79232255396062,-1.54375621431811,1.01521690351532,8.18115956120667,2.03565071054598,21.3594599419498,8.01398561363656,-40.6908520088276,12.2044971328846,9.04014410371479,2.66623161306407,-5.88709967342896,-26.1207124851104,-78.8020791588564,-2.69897978176829,7.83383098153871,0.156195945351038,0.90441275574722,2.13347641788377,-0.746161413995205,749.782498130142,0.00161211538115262,-0.110785725176505,-29.0173788016183,-5.2668096671056,-7.98305669565629,0.0939734820202494,-2.20790202626259,-2.71769421011455,-2.84521021888578,-30.5378043225245,219.734353588621,194.318753621907,-0.115870031147158,0.836089132633594,0.977671624148347,0.783015425937079,1.44797132884568,6.29652281226626,-1.3560875093493,11.1882271284831,13.9228775189217,7.59404261737015,-3.70811393667415,3.46724033906759,-0.0384058838195101,-23.3839447691687,-3.00290281971492,383.320787587222,-5.14210056161322,20.1554391234214,2.8662918089156,30.5392496057176,93.4145376461755,425.597493430237,0,0,0
40.205,9.372579156081,-24.5075124570837,-4.38178936735445,0.0529669398256557,0.495502129991155,1.39797579803035,1.57494422646429,1.48301201956613,-79.5996432850052,-33.5964040246228,-0.513284566879944,-3.65102498304622,-2.05202988174841,-1.82220843823018,1.13286088257291,8.14717352281226,2.38858264771876,20.4266997239074,0.868203181990256,-33.2739558805877,11.148315632012,9.23883171278983,2.73158937920718,-5.88387212942189,-40.702756309039,-86.5514123198242,-2.49986963996088,8.01478326572084,0.394752442732554,2.72528015648975,2.57268059265284,-0.261206784226953,776.44846671653,0.00683080529526438,-0.113191155683063,-29.0230932181222,-3.76621315697948,-6.61105055416258,0.121312887558778,-2.17496221419978,-2.63265729747607,-2.7550757967806,-28.4007374594295,223.298270610846,199.988058457334,-0.132980068933254,0.746480708186182,0.973075034275997,0.789112580505701,1.37215632011967,6.03770605833956,-1.22275766641736,11.1269037923488,15.5431046104694,3.09807381552584,-4.19176140613314,4.923411368736,-0.0174913986537202,-29.1096078377056,6.65713639343657,388.420307118387,-6.74061682878721,21.363248866587,0.765617202339372,36.7613087430853,83.2487901417997,416.438263103796,0,0,0
40.21,9.09830312037938,-26.1956837306264,-10.6238660320313,0.0416381212384348,0.452519332766297,1.15205822427711,1.30785725624538,0.665898079645066,-86.727475334896,-43.8744353494159,-0.529211019648978,-3.83880147384235,-2.3117372095362,-2.1009594337169,1.2505048616305,8.11318748441784,2.74151458489154,19.4939395058651,-6.27757924965604,-25.8570597523477,10.0921341311394,9.43751932186487,2.79694714535028,-5.88064458541482,-55.2848001329677,-94.300745480792,-2.30075949815347,8.19573554990298,0.633308940114069,4.54614755723229,3.01188476742191,0.223747845541299,803.114435302917,0.0120494952093761,-0.11559658618962,-29.0288076346261,-2.26561664685336,-5.23904441266887,0.148652293097307,-2.14202240213696,-2.54762038483759,-2.66516849573179,-26.2636705963346,226.862187633072,205.657363292761,-0.150090106719351,0.65687228373877,0.968478444403646,0.797854766635365,1.29634131139366,5.77888930441286,-1.08942782348543,11.0655804562145,17.163331702017,-1.39789498631847,-4.67540887559213,6.37958239840441,0.00342308651206975,-34.8352709062424,16.3171756065881,393.519826649553,-8.3391330959612,22.5710586097525,-1.33505740423685,42.9833678804529,73.0830426374239,407.279032777355,0,0,0
40.215,8.82404016287896,-27.8837745077323,-16.8656450581108,0.0303098428390162,0.409538585074018,0.90615237651918,1.03897503870893,-0.151176898138864,-93.854967511048,-54.1519765907013,-0.545136713002947,-4.02656901096259,-2.57143215379701,-2.37973405490849,1.36814323111441,8.07920306656693,3.0944296933433,18.5612237642779,-13.4230209516422,-18.4405172811805,9.03600299177263,9.63619745699327,2.86230179506357,-5.87741719530552,-69.8661486467769,-102.049709133217,-2.10165885044018,8.37667920580531,0.87185406249571,6.36692813423838,3.45106799978325,0.708679351400063,829.779132385939,0.0172679362826566,-0.118001901998938,-29.0345217786516,-0.765091689107083,-3.86710369202875,0.175990395021229,-2.10908416073083,-2.46258752698228,-2.57548039560797,-24.1267056341963,230.425934718381,211.326397800854,-0.167199328653941,0.567268132056209,0.963882073708765,0.810344049380723,1.22052991772624,5.52008489154823,-0.956104338070322,11.0042600441379,18.7834815368847,-5.89364940857085,-5.15903328347047,7.83568399401647,0.0243365744203179,-40.5606609601374,25.9767542037176,398.619103022244,-9.93757314168435,23.7788107613797,-3.43563184513472,49.2051303337114,62.9177798625686,398.120239187054,0,0,0
40.22,8.74976905822754,-28.340913772583,-20.7573014091258,0.0178012964189755,0.355893109436957,0.839560449123383,0.948072719303463,-0.372442874908447,-95.7851104736328,-63.2060509432873,-0.556453823213866,-4.23259656448056,-2.64175820350647,-2.46891030417423,1.49407627972722,8.06399513108124,3.19400324594583,18.0936528411802,-17.1051202985857,-13.9189499216549,8.04342709055928,9.70401136081044,2.63580199730377,-4.67062714717913,-84.3542246660536,-112.433878800247,-2.41735358191599,8.45060767609182,0.888513425643233,8.24712481938777,3.87124416585159,0.797965943311697,858.017041215659,0.0211601688760745,-0.115802229408001,-29.0360691833496,-0.358745723962784,-3.02511355996432,0.200385838476002,-2.08327596816472,-2.4395604133606,-2.54796842012135,-23.5480101013184,231.391006469727,215.957645714415,-0.181533947327778,0.436169817919907,0.962637364864349,0.83101320318135,1.45020287161498,5.81829862701726,-0.851944818920733,13.8121667383302,19.5088744010601,-10.43726484142,-5.80641872701335,8.93457128646782,-0.00803083648550515,-48.476766392891,30.0925742525462,400,-10.3704347610474,24.1058731079102,-4.00447273254395,50.8899993896484,60.1650009155273,395.640014648438,0,0,0
40.225,8.74976905822754,-28.340913772583,-23.7759937682463,0.00485527968292786,0.298290833661088,0.839560449123383,0.922906779915524,-0.372442874908447,-95.7851104736328,-71.8052032704187,-0.566058812795767,-4.44539143674365,-2.64175820350647,-2.4872714504907,1.62308129261939,8.05576076855621,3.19949282096252,17.7988423310248,-19.5008792719179,-10.4727167167342,7.07451710011388,9.72322487336884,2.30093792128582,-3.01697738906575,-98.806716916778,-123.79594363417,-2.92419506443369,8.48479161178195,0.822775228727086,10.1492625155527,4.28433465182812,0.740325395165942,886.83731005327,0.0245596642570598,-0.111892654936958,-29.0360691833496,-0.358745723962784,-2.37997371120948,0.223686941193853,-2.06011718091837,-2.4395604133606,-2.54358237033405,-23.5480101013184,231.391006469727,220.203212511239,-0.194837289827126,0.289671369718304,0.962637364864349,0.858758790979605,1.79330131015797,6.32333952855255,-0.758622043637031,17.6853668889933,19.9019550812674,-14.9983561824458,-6.51457390416608,9.90073648940487,-0.0601817991440389,-57.2058683947353,32.1494705705273,400,-10.3704347610474,24.1058731079102,-4.00447273254395,50.8899993896484,60.1650009155273,395.640014648438,0,0,0
40.23,8.74976905822754,-28.340913772583,-26.7948300734046,-0.00809135438260979,0.240685811126563,0.839560449123383,0.897354837013114,-0.372442874908447,-95.7851104736328,-80.4047656472534,-0.575664260390618,-4.65819645610857,-2.64175820350647,-2.50489808303763,1.75209245710247,8.04752601337645,3.20498265774903,17.5040177628601,-21.896752486773,-7.02631917853398,6.10556090729424,9.74243930212164,1.9660578773085,-1.36324877683201,-113.259898333124,-135.158550266997,-3.43106071563587,8.51897717752958,0.757033897091712,12.05149091496,4.69744483598241,0.682682098436516,915.658953182467,0.0279593217426363,-0.107982894038255,-29.0360691833496,-0.358745723962784,-1.73480309902664,0.246989155022415,-2.0369572893476,-2.4395604133606,-2.53920441175697,-23.5480101013184,231.391006469727,224.448981757483,-0.208141266695005,0.143165935753112,0.962637364864349,0.893202057132004,2.13641610931507,6.82840451291181,-0.665294818266291,21.5587517328112,20.2950545054869,-19.5596650186479,-7.22276284962633,10.8669477638313,-0.112335248615918,-65.9353866429199,34.2064649714,400,-10.3704347610474,24.1058731079102,-4.00447273254395,50.8899993896484,60.1650009155273,395.640014648438,0,0,0
40.235,8.72841128395509,-28.1227912259756,-29.5481589024958,-0.0211373055118547,0.18940808814323,0.831542678600211,0.863847208589293,-0.457399656681094,-95.7695303006075,-88.5253342827478,-0.583311110805637,-4.86566534229542,-2.66027543393442,-2.54008370746113,1.89258338649687,8.07365793179823,3.21065144384124,17.1554831550739,-24.03896890539,-3.67494412813817,5.09014552764306,9.7834519782852,1.62829639972558,0.251360443984961,-126.937746433957,-145.497903699929,-3.80984193994306,8.56374239001209,0.708184323956769,13.8295208815957,5.07271975540657,0.557798304378951,943.889187139641,0.0313567256055809,-0.104277489842945,-29.0336961157272,-0.280844824537205,-1.10807088143861,0.270040875589357,-2.01266653039741,-2.43707872268468,-2.53225188879267,-23.3491447690129,231.235204408132,228.421850217595,-0.221542286029007,-0.00645360297019418,0.962446465581587,0.934821851967278,2.48430937563946,7.30563465219016,-0.57196552595783,25.3909768670653,20.6929250671361,-24.0677892605061,-7.81701590091121,11.7536915151004,-0.0798724075255736,-74.0111627811593,35.5590987507202,400,-10.510334564997,24.195013697032,-4.15753039627023,50.2075034267504,61.1720245201351,395.108761612732,0,0,0
40.24,8.48012123847735,-25.5870561664131,-29.4820706224143,-0.0352457045963134,0.205327744746758,0.738333874048133,0.745626962921281,-1.44504579156798,-95.5884064709585,-91.5612285991552,-0.57015264786399,-5.01655429736384,-2.87554336992942,-2.77086681340627,2.15512151377639,8.46494071764749,3.21822465905123,16.2361010616806,-23.487339649354,-1.3312989273524,3.58055129578586,10.0560877258447,1.25973325950626,1.45123198960001,-132.385474905996,-144.971206839646,-2.82797159602848,8.72093823119753,0.838777924660322,14.2889625272961,5.04621349735669,-0.281566363338536,965.851511248601,0.0347320686142454,-0.102741264987853,-29.0061085468928,0.624774722443523,-0.676894083463263,0.290443952794379,-1.97634715403004,-2.40822838074721,-2.49873631698341,-21.0372801630754,229.423962259705,229.497425717993,-0.235981783172037,-0.189242579297441,0.960227208509474,0.982200611311292,2.88316537669871,7.48739181722981,-0.478562538368003,28.788015788417,21.1417081906909,-28.0133408884247,-7.20106106383235,11.7966064012904,0.851633063302694,-75.1455867879226,29.4288459449415,400,-12.136708560802,25.2312977519448,-5.93686815883542,42.2732986962085,72.8789530322383,388.932797829581,0,0,0
40.245,8.2318430321206,-23.0514420173531,-29.4159854935954,-0.049353430955277,0.221246642259278,0.645129513936479,0.628266231218505,-2.43264483289513,-95.407291277769,-94.5969781561541,-0.556994812352391,-5.16743605765089,-3.09080104138428,-3.00032655321356,2.41764712254898,8.85620484610662,3.22579751315045,15.3167628068383,-22.9357366964486,1.0122345222794,2.07102904534349,10.3287104734162,0.891187693344734,2.65104632219075,-137.832943616044,-144.444535093652,-1.84614807026876,8.87812657687271,0.969365298318256,14.7483822656131,5.01970850319477,-1.12089100794579,987.812788136307,0.0381072506776969,-0.101205113383994,-28.9785222935061,1.5303510871075,-0.245737845129249,0.310846057127134,-1.94002950946585,-2.37937941446976,-2.46493556323385,-18.7255257929098,227.612806476058,230.572949932129,-0.250420591801948,-0.372022839766575,0.958008057257362,1.03749195162354,3.28200235925706,7.66914031561082,-0.385164004477755,32.1848927300376,21.5904699150884,-31.9587043820867,-6.58513559709668,11.8395192411859,1.78309411750542,-76.279956702372,23.2988854457051,400,-13.7630050068266,26.2675323941142,-7.71612107790631,34.3394722893711,84.5853233272659,382.757128532591,0,0,0
40.25,7.98355298664286,-20.5157069577906,-29.3498972135139,-0.0634618300397358,0.237166298862807,0.551920709384401,0.512087608854632,-3.42029096778202,-95.22616744812,-97.6328724725615,-0.543836349410744,-5.31832501271931,-3.30606897737928,-3.22836430658847,2.68018524982849,9.24748763195588,3.23337072836044,14.3973807134449,-22.3841074404126,3.35587972306517,0.561434813486297,10.6013462209757,0.52262455312541,3.8509178678058,-143.280672088084,-143.917838233369,-0.864277726354172,9.03532241805815,1.09995889902181,15.2078239113135,4.9932022451449,-1.96025567566328,1009.77511224527,0.0414825936863614,-0.0996688885289019,-28.9509347246717,2.43597063408822,0.185438952846095,0.331249134332156,-1.90371013309848,-2.35052907253228,-2.43077367020336,-16.4136611869724,225.801564327631,231.648525432526,-0.264860088944978,-0.554811816093822,0.955788800185248,1.10049317719724,3.68085836031631,7.85089748065048,-0.291761016887928,35.5819316513893,22.0392530386432,-35.9042560100053,-5.96918076001782,11.8824341273758,2.71459958833369,-77.4143807091354,17.1686326399264,400,-15.3893790026316,27.303816449027,-9.49545884047151,26.4052675588291,96.2922518393691,376.581164749439,0,0,0
40.255,7.75619610862523,-17.7481444875442,-29.0084520319473,-0.0775757113716846,0.265917248981317,0.462810998145841,0.401477870498229,-4.38364107730024,-94.366323428774,-100.135772174519,-0.530816305178055,-5.46482622594732,-3.52108929400199,-3.4546483665251,2.85837960419421,9.57961483161301,3.20487369516173,13.14611331263,-21.3314455543678,4.89154283393706,-0.908446818707836,10.7804380048394,0.15540486516183,4.869558673039,-146.465587972939,-143.111372031864,-0.0389533993513316,9.21359913989072,1.20608164709602,15.5127150808943,4.90157986428038,-3.06061895056379,1032.66535354834,0.0459462972208177,-0.0977439039491114,-28.9080924479018,3.84234555685336,0.72179882180673,0.351656134287451,-1.8588910048461,-2.32446913372643,-2.3989968492666,-14.1289167039501,223.887347603426,232.416813764489,-0.279376125598357,-0.740110548747654,0.949549771741612,1.16663594242195,4.11552491612795,8.04023916677381,-0.159295942581252,38.2783914755112,22.0761220422187,-39.8595596933431,-5.43763615322572,11.951766397419,3.53855249161277,-77.7199650701001,12.0939627873321,399.016915977312,-17.083784340466,28.0419476592581,-11.2084699950661,18.5577130987067,108.95394186899,369.896390744286,0,0,0
40.26,7.6758211408084,-13.3507866985816,-26.7323174349029,-0.0917335104153655,0.384827264273259,0.402465942605071,0.321336811535008,-5.17666471012173,-88.7377059358435,-98.8950009111641,-0.518763758310393,-5.58055680638051,-3.73445221448233,-3.67774360850933,2.44407308263296,9.49626322372495,2.92294913906975,9.56266001780554,-16.7583054120708,0.751201527079107,-2.09988450793131,10.3023920184226,-0.202516745181017,4.61532718928457,-133.754013785217,-140.339038232828,-0.313149337996722,9.5400507884902,1.14032158237984,14.7319067673386,4.35243991548159,-5.99508585881321,1062.08356809707,0.0580581393836779,-0.0930868964031544,-28.7580596734063,8.76738621385999,1.99734245541219,0.372098503875149,-1.75433851867822,-2.31800359245275,-2.3863984006056,-12.0338340931021,221.248935900706,231.026506784623,-0.294435456690177,-0.943112842586378,0.915066884948627,1.21079838202678,4.80194992226493,8.28293943680082,0.247656025342806,36.0538659926599,19.219044415264,-43.884891519455,-5.49892410020224,12.2067242568413,3.60719499222648,-72.2025365595723,14.4334977509295,391.126660285076,-19.2568019179917,26.6856464961801,-12.4561497841923,11.3159290595184,128.328289238309,359.634340493629,0,0,0
40.265,7.59545000548098,-8.95363858717892,-24.4562913699297,-0.105890634378031,0.503731609623597,0.342123764474921,0.243089290699608,-5.96965052949515,-83.1093568301671,-97.654288811039,-0.506711786139796,-5.69628186847589,-3.94780496125865,-3.89932157131169,2.02978631629399,9.41291559026031,2.6410380258805,5.9793775914388,-12.1853833290977,-3.38894235743921,-3.29126538627889,9.82436882649302,-0.560421288882136,4.36110782795451,-121.043045718713,-137.566836625943,-0.587332202260143,9.86648687101831,1.07456465327613,13.9511356847726,3.80332615111675,-8.92941284397909,1091.50037990812,0.0701694040221168,-0.0884301109155392,-28.6080340528673,13.6921920320026,3.27282526774959,0.392539898717015,-1.64979101784726,-2.31153835947304,-2.37341371349248,-9.93885138129138,218.61065000438,229.636266098242,-0.309494069713568,-1.14610545674296,0.880585642390183,1.25999219273488,5.48834219785613,8.52562813424199,0.654588588729007,33.8294465810217,16.3621030212689,-47.9100314071811,-5.56020912480859,12.4616699592037,3.6758342197856,-66.685371134516,16.7729211593598,383.236780820939,-21.4297158803363,25.329410005101,-13.7037700806717,4.07449032759886,147.701712787898,349.37277956446,0,0,0
40.27,7.51507503766415,-4.55628079821625,-22.1801567728853,-0.120048433421712,0.622641624915538,0.281778708934151,0.166871932028416,-6.76267416231664,-77.4807393372366,-96.4135175476837,-0.494659239272134,-5.81201244890907,-4.16116788173899,-4.11947531552686,1.61547979473275,9.32956398237226,2.35911346978852,2.39592429661435,-7.61224318680066,-7.52928366429716,-4.48270307550236,9.3463228400762,-0.918342899224983,4.10687634420008,-108.331471530991,-134.794502826906,-0.861528140905533,10.1929385196178,1.00880458855995,13.1703273712169,3.25418620231795,-11.8638797522285,1120.91859445685,0.082281246184977,-0.0837731033695822,-28.4580012783718,18.6172326890092,4.54836890135505,0.412982268304714,-1.54523853167938,-2.30507281819935,-2.36011478979986,-7.84376877044337,215.97223830166,228.245959118376,-0.324553400805388,-1.34910775058169,0.846102755597198,1.31267273198066,6.17476720399311,8.768328404269,1.06154055665306,31.6049210981704,13.5050253943143,-51.935363233293,-5.62149707178511,12.716627818626,3.74447672039931,-61.1679426239882,19.1124561229572,375.346525128703,-23.602733457862,23.9731088420229,-14.9514498697979,-3.16729371158942,167.076060157216,339.110729313803,0,0,0
40.275,7.43862991546247,-0.358745723962784,-19.9261710303769,-0.134258865012738,0.738734831848883,0.224175825715065,0.0955328602287541,-7.53547720208564,-71.9758240995006,-95.1201625169647,-0.482784642707856,-5.92429644349315,-4.36913192396813,-4.33291279832148,1.21612812033286,9.24098677192234,2.08314486878598,-1.04616261948602,-3.20185527608544,-11.5554554625744,-5.59753040324302,8.88498559846382,-1.25911137187966,3.77799903594656,-95.5270632982744,-132.140547008142,-1.12326419353485,10.5045557022095,0.946032762527466,12.4250001907349,2.73000001907349,-14.664999961853,1149,0.0938427075743675,-0.079327717423439,-28.3057685526821,23.4141093908863,5.84672164801669,0.433413398586397,-1.43751925965012,-2.29789666631518,-2.34590743367739,-5.79255854745295,213.0893868637,226.797546000977,-0.339711427721993,-1.54844456021928,0.81123379560226,1.36664927973834,6.85665884360997,8.98781310006401,1.44060593129933,29.4060186172945,10.6183105621801,-55.7894537557257,-5.64147162363986,12.9420370172818,3.77185246426286,-55.4381919256572,20.2609884972092,366.556316789017,-25.9026948492589,22.4852985250993,-16.1015701497926,-9.53638165608026,184.949522708203,328.784491441945,0.0190420311499893,0,0
40.28,7.44474270738619,-0.358745723962784,-18.1355717723393,-0.149590999751758,0.79571712142529,0.224175825715065,0.0840027440058184,-7.8838860724449,-69.0663821091397,-92.7196984590548,-0.474639576108805,-5.96422233080981,-4.46378485310019,-4.43187598115586,1.1308328888415,9.04243065927032,1.93213036057177,-1.51916187932476,-2.20924734029245,-13.1850587519459,-5.10253840409644,8.7745212822701,-1.23953541711115,1.8790968979078,-80.7570572136748,-131.97309836506,-1.12326419353485,10.5045557022095,0.946032762527466,12.4250001907349,2.73000001907349,-14.664999961853,1149,0.0938427075743675,-0.079327717423439,-28.1071145500149,25.5209468689864,7.62607648188247,0.453629645951236,-1.26309451973124,-2.27576999976382,-2.31670890344612,-4.6617581167922,205.063340140885,224.125734584857,-0.356960788402574,-1.6709116309779,0.76820972175239,1.41213649480115,7.44393748666523,8.71934286323874,1.23366012374653,27.7436161091751,7.10534160680843,-56.0466686816964,-4.79271415617667,12.5463230744613,2.93148469170045,-45.2376348950472,-3.6341054980021,338.832345573651,-30.8744925550237,18.2305033750338,-15.2013819287117,2.43920900426441,171.280611608337,317.097646189112,0.43852677618946,0,0
40.285,7.45085520783594,-0.358745723962784,-16.3450578947736,-0.164922403414355,0.852696693936583,0.224175825715065,0.0747225224420005,-8.23227832975483,-66.1570788486085,-90.3193488615711,-0.466494897887906,-6.00414631435537,-4.55843326893218,-4.52985282159008,1.04554172445063,8.84388401429485,1.78112305312565,-1.99213858531742,-1.21668673465089,-14.8145843375557,-4.60757000746746,8.66406223330488,-1.21996039577554,-0.019714695493442,-65.9877554017284,-131.805657706369,-1.12326419353485,10.5045557022095,0.946032762527466,12.4250001907349,2.73000001907349,-14.664999961853,1149,0.0938427075743675,-0.079327717423439,-27.9084700196919,27.6276838875463,9.40534647143994,0.473844929352344,-1.08867809684174,-2.25364438826999,-2.2876637488613,-3.53101160566372,197.03767612104,221.454050567718,-0.374209326588366,-1.79337286218517,0.725187699403276,1.45513028311337,8.0311881267335,8.45088542777896,1.02672418391295,26.0812928687702,3.59254015901614,-56.3038713429844,-3.94399715969704,12.15062800032,2.09115699007895,-35.0375642537673,-27.5280601124202,311.109696309993,-35.8460531924258,13.9759111047675,-14.3012366309676,14.414228637017,157.612352278026,305.411358195733,0.85799151909537,0,0
40.29,7.45696799975966,-0.358745723962784,-14.5544586367359,-0.180254538153375,0.909678983512991,0.224175825715065,0.0677171909273547,-8.58068720011409,-63.2476368582475,-87.9188848036611,-0.458349831288854,-6.04407220167202,-4.65308619806424,-4.62704830899297,0.96024649295927,8.64532790164284,1.63010854491144,-2.46513784515616,-0.224078798857903,-16.4441876269271,-4.11257800832088,8.55359791711116,-1.20038444100704,-1.9186168335322,-51.2177493171288,-131.638209063288,-1.12326419353485,10.5045557022095,0.946032762527466,12.4250001907349,2.73000001907349,-14.664999961853,1149,0.0938427075743675,-0.079327717423439,-27.7098160170247,29.7345213656464,11.1847013053057,0.494061176717183,-0.914253356922868,-2.23151772171863,-2.258990726377,-2.40021117500298,189.011629398225,218.782239151598,-0.391458687268946,-1.91583993294378,0.682163625553406,1.49339306040534,8.61846676978876,8.18241519095369,0.81977837636015,24.4188903606508,0.0795712036444387,-56.5610862689551,-3.09523969223385,11.7549140574995,1.25078921751654,-24.8370072231573,-51.4231541076316,283.385725094627,-40.8178508981907,9.72111595470195,-13.4010484098867,26.3898192973617,143.943441178159,293.7245129429,1.27747626413484,0,0
40.295,7.46308050020941,-0.358745723962784,-12.7639447591703,-0.195585941815972,0.966658556024284,0.224175825715065,0.063000081186638,-8.92907945742403,-60.3383335977163,-85.5185352061774,-0.450205153067955,-6.08399618521759,-4.74773461389623,-4.72364957023002,0.8749553285684,8.44678125666737,1.47910123746531,-2.93811455114883,0.768481806783657,-18.0737132125369,-3.61760961169191,8.44313886814594,-1.18080941967143,-3.81742842693344,-36.4484475051824,-131.470768404597,-1.12326419353485,10.5045557022095,0.946032762527466,12.4250001907349,2.73000001907349,-14.664999961853,1149,0.0938427075743675,-0.079327717423439,-27.5111714867017,31.8412583842063,12.9639712948632,0.514276460118291,-0.739836934033364,-2.2093921102248,-2.23093032897956,-1.2694646638745,180.985965378381,216.110555134458,-0.408707225454739,-2.03830116415106,0.639141603204292,1.52470105536741,9.20571740985703,7.91395775549391,0.612842436526573,22.7565671202459,-3.43323024414785,-56.8182889302431,-2.24652269575422,11.3592189833582,0.410461515895036,-14.6369365818774,-75.3171087220497,255.663075830969,-45.7894115355927,5.46652368443567,-12.5009031121426,38.3648389301143,130.275181847848,282.03822494952,1.69694100704075,0,0
40.3,7.46919329213313,-0.358745723962784,-10.9733455011326,-0.210918076554992,1.02364084560069,0.224175825715065,0.0605794300208084,-9.27748832778328,-57.4288916073554,-83.1180711482675,-0.442060086468904,-6.12392207253424,-4.84238754302829,-4.8198466133284,0.789660097077039,8.24822514401535,1.32808672925111,-3.41111381098757,1.76108974257665,-19.7033165019083,-3.12261761254533,8.33267455195222,-1.16123346490292,-5.7163305649722,-21.6784414205828,-131.303319761515,-1.12326419353485,10.5045557022095,0.946032762527466,12.4250001907349,2.73000001907349,-14.664999961853,1149,0.0938427075743675,-0.079327717423439,-27.3125174840346,33.9480958623064,14.743326128729,0.53449270748313,-0.565412194114491,-2.18726544367344,-2.203723928962,-0.138664233213756,172.959918655565,213.438743718339,-0.425956586135319,-2.16076823490967,0.596117529354422,1.54690810204641,9.79299605291229,7.64548751866865,0.405896628973773,21.0941646121265,-6.94619919951955,-57.0755038562138,-1.39776522829103,10.9635050405376,-0.429906256667369,-4.43637955126737,-99.2122027172611,227.939104615603,-50.7612092413576,1.21172853437013,-11.6007148910617,50.340429590459,116.606270747981,270.351379696688,2.11642575208022,0,0
40.305,7.47530579258289,-0.358745723962784,-9.18283162356692,-0.226249480217589,1.08062041811198,0.224175825715065,0.0604639535103671,-9.62588058509322,-54.5195883468242,-80.7177215507838,-0.433915408248004,-6.1638460560798,-4.93703595886028,-4.915780971961,0.704368932686169,8.04967849903989,1.17707942180498,-3.88409051698024,2.75365034821821,-21.3328420875181,-2.62764921591635,8.222215502987,-1.14165844356732,-7.61514215837344,-6.90913960863644,-131.135879102824,-1.12326419353485,10.5045557022095,0.946032762527466,12.4250001907349,2.73000001907349,-14.664999961853,1149,0.0938427075743675,-0.079327717423439,-27.1138729537116,36.0548328808663,16.5225961182865,0.554707990884238,-0.390995771224987,-2.16513983217961,-2.17760828295821,0.992082277914723,164.934254635721,210.767059701199,-0.443205124321112,-2.28322946611694,0.553095507005308,1.55804179899379,10.3802466929806,7.37703008320886,0.198960689140196,19.4318413717216,-10.4590006473118,-57.3327065175018,-0.549048231811406,10.5678099663964,-1.27023395828887,5.76369109001255,-123.106157331679,200.216455351945,-55.7327698787596,-3.04286373589615,-10.7005695933176,62.3154492232116,102.93801141767,258.665091703308,2.53589049498613,0,0
40.31,7.4814185845066,-0.358745723962784,-7.39223236552926,-0.241581614956608,1.13760270768839,0.224175825715065,0.0626670973836668,-9.97428945545248,-51.6101463564632,-78.3172574928738,-0.425770341648953,-6.20377194339646,-5.03168888799234,-5.01156778578621,0.619073701194808,7.85112238638786,1.02606491359077,-4.35708977681898,3.7462582840112,-22.9624453768896,-2.13265721676977,8.11175118679328,-1.12208248879881,-9.5140442964122,7.8608664759632,-130.968430459743,-1.12326419353485,10.5045557022095,0.946032762527466,12.4250001907349,2.73000001907349,-14.664999961853,1149,0.0938427075743675,-0.079327717423439,-26.9152189510444,38.1616703589664,18.3019509521522,0.574924238249078,-0.216571031306115,-2.14301316562825,-2.15279229591154,2.12288270857547,156.908207912905,208.095248285079,-0.460454485001692,-2.40569653687556,0.510071433155438,1.55636344200379,10.9675253360358,7.1085598463836,-0.00798511841260401,17.7694388636023,-13.9719696026835,-57.5899214434725,0.299709235651789,10.1720960235758,-2.11060173085128,15.9642481206226,-147.001251326891,172.492484136579,-60.7045675845245,-7.29765888596169,-9.80038137223666,74.2910398835563,89.2691003178034,246.978246450475,2.9553752400256,0,0
40.315,7.54478971841621,2.65043020519662,-4.97795489403853,-0.250967941577611,1.09982130353257,0.210591945242341,0.0536258392803903,-10.8267200797581,-52.8844170709835,-74.1347004968907,-0.417372525330035,-6.16398163941851,-5.1038557997592,-5.08476643225603,0.729198558252947,8.14786282200783,1.40070638538463,-2.09919572838953,6.04560675339776,-22.1656450219925,-1.13965581822678,8.52160971530209,-0.934580020495421,-10.0485190696584,6.50527545579197,-131.446596652996,-0.995325570672553,10.2296463090183,0.803819989594169,10.0995245691882,2.92314583105742,-18.6592549915997,1176.81299692569,0.109012023071973,-0.0753594550095915,-26.3826727947406,33.6344646989147,20.7889931736743,0.584657486462918,0.260432486686402,-2.01258274496113,-2.02114577908609,3.03924580877728,110.283246584789,192.878385783601,-0.476728849880153,-2.60778051671177,0.550127285093995,1.62353222879616,10.586316477614,7.40889972554977,0.475490182220828,20.6692997774936,-13.5472067314103,-50.3601792266213,3.37217133703192,11.3837922423643,-3.45599962307265,21.1780021891451,-167.872645240267,120.577510409491,-61.2334671020508,-7.75028371810913,-9.70461940765381,75.5650024414062,87.8150024414062,245.735000610352,3,0,0
40.32,7.61498084870278,6.01800958547043,-2.48929960121988,-0.259646919661544,1.05075625038418,0.195390176764541,0.0453354063398172,-11.7392000617841,-54.6568274501412,-69.7397618626025,-0.408944170993969,-6.11469898682359,-5.17334959851486,-5.15517490720362,0.862594084596625,8.50358422559099,1.83794727728893,0.48393209084007,8.50064558985565,-21.079938406118,-0.0873133326265829,8.99343463255475,-0.727075868405234,-10.4205870672334,3.2298571820581,-132.001648911673,-0.852149007243091,9.92199423890056,0.644669174548432,7.49707661107307,3.13929598948469,-23.1292398626695,1207.93861973921,0.125988057469827,-0.0709185585665172,-25.8103483064775,28.3172335614416,23.3604184050194,0.593143251333234,0.77348351040999,-1.86925178502759,-1.87819189463296,3.9301290092377,59.0605903022574,176.167220943065,-0.492888009781577,-2.81935368588266,0.600075952949623,1.68531055776528,10.0897886851125,7.77697256675735,1.04118602541905,24.1124536239048,-12.6536335896934,-42.2387277713575,6.70952978314897,12.7869155564979,-4.86159322473113,25.798354781982,-188.385180909852,65.779823684677,-61.2334671020508,-7.75028371810913,-9.70461940765381,75.5650024414062,87.8150024414062,245.735000610352,3,0,0
40.325,7.68516863209205,9.38542839072133,-0.000762974016937701,-0.268325483909025,1.00169353678629,0.180189133146958,0.0394512112118797,-12.6516365343697,-56.4291533161204,-65.3450327905226,-0.400516218543958,-6.06541868415488,-5.24284008362381,-5.22537845003694,0.995983250291517,8.85928866744406,2.27516732039999,3.06693673975595,10.9555673636187,-19.9942835595843,0.964978974522078,9.46523705195708,-0.519581610657602,-10.7926373236298,-0.0454049111363095,-132.556674704002,-0.708979270847933,9.61435683844097,0.485525948231241,4.8947527445066,3.35543584130513,-27.5990115931294,1239.06275840136,0.142963282405808,-0.0664778738770403,-25.2380511081479,23.000255963504,25.9317210240608,0.60162861158001,1.28651007051429,-1.72592765949039,-1.73689313018818,4.82096973004905,7.84037645040867,159.456852934726,-0.509046399171848,-3.03091676668958,0.65002223912168,1.73117313573899,9.59328456835929,8.14502785728588,1.60685489475482,27.5554432917041,-11.7601030558889,-34.1176635682135,10.0467290952566,14.1899719660294,-6.26711980399777,30.4184870642814,-208.896738487902,10.9847498573798,-61.2334671020508,-7.75028371810913,-9.70461940765381,75.5650024414062,87.8150024414062,245.735000610352,3,0,0
40.33,7.75535976237863,12.7530077709951,2.48789231880172,-0.277004461992958,0.952628483637902,0.164987364669159,0.03601361529213,-13.5641165163957,-58.2015636952781,-60.9500941562344,-0.392087864207892,-6.01613603155995,-5.31233388237947,-5.29522876507232,1.1293787766352,9.21501007102723,2.71240821230429,5.65006455898555,13.4106062000766,-18.9085769437097,2.01732146012227,9.93706196920974,-0.312077458567414,-11.1647053212048,-3.32082318487018,-133.11172696268,-0.565802707418471,9.30670476832325,0.326375133185504,2.29230478639149,3.5715859997324,-32.0689964641992,1270.18838121488,0.159939316803663,-0.0620369774339661,-24.6657266198848,17.6830248260309,28.5031462554059,0.610114376450326,1.79956109423788,-1.58259669955684,-1.59721661156733,5.71185293050947,-43.382279832123,142.74568809419,-0.525205559073273,-3.24248993586047,0.699970906977308,1.76094815524165,9.09675677585779,8.51310069849346,2.17255073795304,30.9985971381152,-10.866529914172,-25.9962121129497,13.3840875413736,15.593095280163,-7.67271340565625,35.0388396571183,-229.409274157487,-43.8129368674343,-61.2334671020508,-7.75028371810913,-9.70461940765381,75.5650024414062,87.8150024414062,245.735000610352,3,0,0
40.335,7.8882609445257,15.5803867910884,4.49502972179595,-0.282757743657491,0.807611382018345,0.220653913046072,0.105934303647146,-14.1711880661224,-62.6035035603072,-59.9191885501106,-0.374135541831258,-5.91169087623463,-5.4034073155804,-5.38608037058682,1.15338429823053,9.65750214739734,2.75461776327089,3.84123257426812,15.6765563593715,-18.0429903648137,1.55898127469507,10.5057996907748,-0.464444253564658,-11.1386593029495,-11.3708030311706,-136.588096313688,-1.34489422380218,9.2174026287415,0.386069262197718,-0.360558309376475,3.22003609938344,-36.4852651410282,1282.78388593025,0.168397465164955,-0.0597472964809832,-24.5402678773084,12.2474598990255,27.6607868853332,0.619536832977558,2.22800606717666,-1.47564618547764,-1.4954503249601,5.15794883112014,-66.4769223882783,118.166601887553,-0.504948733690546,-3.41339123196811,0.487526982628466,1.51253360227359,8.7323346504037,8.2704896065968,1.7218965813434,28.4891739360044,-13.9957052052912,-14.8364457339433,12.8762497852602,14.5595018038138,-5.91018553513141,37.2801987694618,-183.11308777712,-81.2238786344037,-56.6903561819994,-5.80699946728385,-5.54894978982479,59.224764096657,62.9818679194867,183.169479583756,2.49235526541831,0,0
40.34,8.03262202162995,18.3088579509164,6.41402818388281,-0.287975801440716,0.645056823610033,0.289275738732505,0.191338099549637,-14.7223882029074,-67.4860303765521,-59.5034293953254,-0.354442663618204,-5.79716450223151,-5.49842213875771,-5.48001386380179,1.15738723777891,10.1158387256867,2.72459571665806,1.22943806646809,17.9078245150417,-17.2176929517529,0.82444186756762,11.0922303346122,-0.682604458951291,-11.0398212894093,-20.293404703513,-140.598448713082,-2.29258088344548,9.16802898424749,0.485775292611449,-3.02251307564503,2.76470173052726,-40.8915014902459,1291.99064689152,0.175297755635469,-0.0578510641345805,-24.4965223740041,6.79051738849438,26.1942735497029,0.629130109791575,2.64096080037694,-1.37535276101271,-1.40169024070722,4.33989871915374,-84.4273914090025,92.1500760129696,-0.478034386059162,-3.57684772224996,0.227115961912764,1.20111489134951,8.39208478879153,7.91622945656531,1.08542919315122,24.8914702431408,-17.8602715347134,-3.12167017909001,11.6653605718758,13.0804156406879,-3.56846589933,39.0864634669091,-124.603454711655,-115.453953673717,-51.3167758602624,-3.50848767799694,-0.633634078855126,39.8975707335586,33.6092980345925,109.167136580443,1.89191433316154,0,0
40.345,8.17698998257746,21.0374592176139,8.33311815321597,-0.293194108046496,0.482494513804152,0.35790083664371,0.27929928909589,-15.2736146236147,-72.3687900155911,-59.0876504151073,-0.334748846352257,-5.6826326670499,-5.59344149270719,-5.57276311626998,1.16139036820707,10.5741971597091,2.69457223844699,-1.38248098448714,20.1391990685068,-16.392356184469,0.0898674340033192,11.6786889423352,-0.900775067285108,-10.9409785627885,-29.2164318492078,-144.608992345721,-3.24031273343067,9.11865298537627,0.58548607749709,-5.68459477695561,2.30934564909806,-45.2979479503954,1301.19784687625,0.182198375145632,-0.0559547413665314,-24.4527747847,1.33331466421518,24.7276902835335,0.63872384406002,3.05393522528163,-1.27505455406604,-1.30901610978633,3.52180959855105,-102.378716396014,66.132309542999,-0.451118755019852,-3.74031200693791,-0.0333074764759483,0.875851846350745,8.05181870239935,7.56195241367463,0.448931455076435,21.2935949941428,-21.7250221455875,8.59366399364299,10.4544136173624,11.601258947489,-1.22663459886617,40.8928142959046,-66.0910316202935,-149.685660970673,-45.9429392998949,-1.20986628440936,4.28191601844381,20.5694557552123,4.23532752169372,35.1612647829382,1.29144476894004,0,0
40.35,8.3213510596817,23.765930377442,10.2521166153028,-0.298412165829722,0.319939955395839,0.426522662330143,0.369818385106992,-15.8248147603997,-77.2513168318359,-58.6718912603221,-0.315055968139203,-5.56810629304678,-5.68845631588449,-5.66395621910956,1.16539330775545,11.0325337379984,2.66455019183415,-3.99427549228716,22.370467224177,-15.5670587714083,-0.644671973124134,12.2651195861727,-1.11893527267174,-10.8421405492483,-38.1390335215502,-148.619344745115,-4.18799939307398,9.06927934088226,0.685192107910822,-8.34654954322417,1.85401128024189,-49.7041842996131,1310.40460783752,0.189098665616146,-0.0540585090201287,-24.4090292813957,-4.12362784631595,23.2611769479032,0.648317120874038,3.46688995848192,-1.1747611296011,-1.21711019857078,2.70375948658465,-120.329185416739,40.115783668416,-0.424204407388468,-3.90376849721977,-0.29371849719165,0.538379191706043,7.71156884078718,7.20769226364314,-0.187535933115745,17.6958913012792,-25.5895884750097,20.3084395484963,9.24352440397795,10.1221727843631,1.11508503693524,42.699078993352,-7.58139855482812,-183.915736009986,-40.5693589781579,1.08864550487755,9.19723172941348,1.24226239211379,-25.1372423632005,-38.8410782203746,0.691003836683273,0,0
40.355,8.46571902062922,26.4945316441395,12.171206584636,-0.303630472435501,0.157377645589958,0.495147760241348,0.462881568998188,-16.376041181107,-82.1340764708749,-58.256112280104,-0.295362150873257,-5.45357445786518,-5.78347566983397,-5.75322310684765,1.1693964381836,11.4908921720208,2.63452671362308,-6.6061945432424,24.6018417776421,-14.7417220041244,-1.37924640668844,12.8515781938957,-1.33710588100556,-10.7432978226275,-47.0620606672449,-152.629888377755,-5.13573124305916,9.01990334201104,0.784902892796463,-11.0086312445347,1.39865519881269,-54.1106307597625,1319.61180782225,0.195999285126309,-0.0521621862520796,-24.3652816920916,-9.58083057059514,21.7945936817337,0.657910855142483,3.87986438338661,-1.07446292265443,-1.12558036957185,1.88567036598195,-138.28051040375,14.0980171984453,-0.397288776349158,-4.06723278190772,-0.554141935580362,0.190628923027009,7.371302754395,6.85341522075246,-0.824033671190533,14.0980160522812,-29.4543390858839,32.0237737212293,8.0325774494646,8.64301609116419,3.45691633739908,44.5054298223475,50.9310245365333,-218.147443306942,-35.1955224177903,3.38726689846513,14.1127818267124,-18.0858525862325,-54.5112128760993,-112.84695001788,0.0905342724617763,0,0
40.36,8.66321151868901,23.6699380182209,13.8331384628949,-0.304031489474868,-0.109803945445711,0.684779864874965,0.67943645662675,-17.1963425919041,-81.1819194130511,-60.3967518593786,-0.274345932541477,-5.30827479368065,-5.91847487527888,-5.88016314588248,1.25235919796519,11.6737341305233,2.17310254462172,-9.51047878571121,28.2960672421431,-14.5954958030074,-2.19201411598895,12.5399696098834,-1.75238199055264,-12.3358761742764,-45.0859253495522,-154.016520309899,-4.8254134377777,9.07539150151216,0.898562481501822,-15.7407208275525,3.99981064202836,-68.3848587502537,1319.43125337209,0.204229688078743,-0.0498856568075295,-24.4358337758649,-9.84084525046015,17.8510545178017,0.669036709738275,4.27870833193278,-0.902466044435848,-0.962312792596541,0.129359106736042,-149.288098730864,-14.7983288644938,-0.377422660794383,-4.27594087418926,-0.991626903447377,-0.342217022850319,7.56119479404089,6.52350840683118,-0.970984265407033,12.5266708073133,-26.5170407454034,32.6522979704986,7.87745306598841,8.53765599709313,4.0100151950583,38.8804524913819,81.6937510628588,-228.733890730158,-23.3978959258091,9.88245889640405,8.65832318492978,-58.5077502097853,-44.5751820128496,-130.4015621673,19.8054261773417,-0.0810592771140896,0.0189977474064795
40.365,8.87014740373557,19.8592122768508,15.4495050678594,-0.303577216009886,-0.395575763267816,0.895907493533565,0.919871598301363,-18.0644645103139,-79.1937154827169,-62.991405483501,-0.253093740915941,-5.15750412186114,-6.06058011080037,-6.01155062601836,1.34934595183827,11.8076682192052,1.63505698146864,-12.4668357453347,32.2502303115721,-14.5698379316124,-3.01871073233575,12.0688910910712,-2.20267763353483,-14.2288569083073,-41.1745253991149,-154.937352805519,-4.29171064020255,9.14950147902289,1.0147050719067,-20.8406074239647,7.14379783303281,-84.4119195458958,1317.58388663165,0.212696657129634,-0.0475414935800303,-24.5266838055283,-9.1781102766805,13.4675087230713,0.680435218066993,4.67506580048023,-0.717729360757102,-0.785830251221998,-1.79363274735793,-159.063440007032,-44.2073912517087,-0.358807075973874,-4.49269375437035,-1.46057383106386,-0.912138203354653,7.84522743038351,6.19791001882866,-1.03102368447132,11.3150491025495,-22.3718690778117,31.3123869087599,7.90978198394611,8.67620850262611,4.24555445446437,31.9357219671361,107.531227557621,-235.122700707512,-10.4590587319214,17.1231195586676,1.36235619952216,-102.677132960059,-27.6590758852816,-137.934200685687,43.1284312753939,-0.176515235317059,0.0413696244691269
40.37,9.07707342153603,16.048668240885,17.0657946002222,-0.303122964205854,-0.681333954739652,1.10702505507273,1.16253013374949,-18.9325450343922,-77.205606355164,-65.585935387729,-0.231842562650678,-5.00674063918296,-6.20267857037129,-6.13996642849964,1.44632808112839,11.9415959215583,1.09703707374008,-15.4230517380996,36.2042048361284,-14.5441812836521,-3.84536792961825,11.5978350345192,-2.65295180523899,-16.1217473800487,-37.2633119544926,-155.85814139343,-3.75803329097745,9.22360792277538,1.13084212432805,-25.9402508443996,10.2876351104767,-100.438216129217,1315.73660797851,0.22116322245322,-0.0451974421283859,-24.6175295032237,-8.51540690384371,9.08417194730877,0.691833182884919,5.07140436966336,-0.533001485808267,-0.608452491285885,-3.7165329081535,-168.838315169274,-73.6150513376464,-0.340192378793305,-4.70943629920526,-1.9294983980601,-1.48513170769721,8.1292465233046,5.8723271562118,-1.09106024069854,10.1034851710885,-18.2268950628839,29.9725397374971,7.94210936037615,8.81475440161199,4.48108248274039,24.9913225858678,133.367472053694,-241.51120604964,2.47916150425167,24.363434967228,-5.9332628950317,-146.844409598242,-10.7437763620493,-145.466480028099,66.4503242713529,-0.271966641929422,0.0637404347819621
40.375,9.28400930658258,12.2379424995148,18.6821612051868,-0.302668690740871,-0.967105772561757,1.31815268373133,1.40722320360766,-19.800666952802,-75.2174024248298,-68.1805890118514,-0.210590371025142,-4.85596996736345,-6.34478380589278,-6.26518457692048,1.54331483500147,12.0755300102401,0.558991510587001,-18.3794086977232,40.1583679055574,-14.5185234122571,-4.67206454596505,11.126756515707,-3.10324744822118,-18.0147281140796,-33.3519120040553,-156.77897388905,-3.2243304934023,9.29771790028611,1.24698471473292,-31.0401374408118,13.4316223014812,-116.465276924859,1313.88924123807,0.229630191504111,-0.0428532789008867,-24.7083795328871,-7.85267193006405,4.70062615257835,0.703231691213636,5.46776183821081,-0.348264802129521,-0.429764344212471,-5.63952476224747,-178.613656445442,-103.024113724861,-0.321576793972796,-4.92618917938636,-2.39844532567659,-2.05872131150216,8.41327915964722,5.54672876820928,-1.15109965976283,8.89186346632477,-14.0817233952921,28.6326286757584,7.97443827833384,8.95330690714496,4.71662174214645,18.046592061622,159.204948548456,-247.900016026994,15.4179986981394,31.6040956294915,-13.2292298804393,-191.013792348515,6.17232976551867,-152.999118546485,89.7733293694051,-0.367422600132392,0.0861123118446095
40.38,9.38625526896569,9.3652679253866,19.0356748521935,-0.300964464346661,-1.26062926843009,1.35722699169521,1.48161569418774,-20.5823051712118,-73.2220093849211,-70.1383032852654,-0.190372835985981,-4.70470477965659,-6.35911554009696,-6.25927197794361,1.6153261182941,12.1460300281653,0.526729059014005,-16.0564071941213,37.5310183439744,-13.2257224142892,-4.98799161695238,11.1243170477479,-3.25969971834734,-20.5711558327454,-24.6872152363492,-157.387489660826,-2.93305733724125,9.5433784140203,1.2962473256233,-33.3472634258576,16.3505993429575,-136.01996005561,1307.33177352465,0.236919541116886,-0.0401496179539019,-24.6203124550707,-1.90921831410161,2.1636383136755,0.713099880418464,5.83003822888495,-0.0186696558148452,-0.104573309371503,-7.25315395547224,-167.657168248248,-122.496585052085,-0.302260219403428,-5.10402726784203,-2.91255692573701,-2.67561994502041,8.7176347829944,6.38616065290189,-1.01718923953783,9.19602389790086,-14.6279649575577,24.9235066755267,7.9309057239804,9.07306424785432,4.96266061963583,10.9621084495523,180.098903698447,-232.773556957932,21.6461868286133,35.0894317626953,-16.7411880493164,-212.274993896484,14.3150005340576,-156.625,101,-0.413370907306671,0.0968811511993408
40.385,9.3913384395756,7.36301941403277,18.2170528705743,-0.298099886808009,-1.56137478649155,1.23660663267627,1.39772857865187,-21.2837419080767,-71.2197600141743,-71.5049965002823,-0.171113800459912,-4.55296667883182,-6.25485044053282,-6.13135686614765,1.66416202789913,12.1576576256903,0.963926725954191,-8.83294166994538,28.7945296356805,-10.7566523225598,-4.82985629061231,11.5568636756781,-3.14342374309729,-23.7436237994443,-11.6097567853868,-157.706171963363,-2.86677829260275,9.94829309506689,1.28343710361667,-33.0623876413411,19.0609924857169,-158.850746731419,1296.40183185115,0.24311650576477,-0.0371120260452443,-24.3661681184195,8.93629471216343,1.34037478299631,0.721548549269626,6.16071419617361,0.445412045801046,0.35701562476309,-8.57978402840634,-137.456585253169,-132.747797251017,-0.282291216727282,-5.24576136729627,-3.46863721648534,-3.33038165029756,9.04088199418953,8.30703976403272,-0.703244106362688,10.9071468917041,-19.5287819884672,19.0149645257834,7.81695526823535,9.17538710607436,5.21846776518595,3.74725596058011,196.4062503508,-197.675438502825,21.6461868286133,35.0894317626953,-16.7411880493164,-212.274993896484,14.3150005340576,-156.625,101,-0.413370907306671,0.0968811511993408
40.39,9.3964213678066,5.36086637514275,17.3984699229996,-0.295235445859932,-1.86210596421743,1.1159920251526,1.3148575571241,-21.9851451985972,-69.2176061159323,-72.8716245477799,-0.151855683255201,-4.40123581327792,-6.15059031260227,-6.00011150685306,1.71299560887982,12.1692846687809,1.40110354616221,-1.60982057956326,20.0584575060967,-8.28769996257227,-4.67172850457962,11.9893896786498,-3.0271533121909,-26.9159404945445,1.4670780980355,-158.024839070292,-2.80050240832305,10.3531884687188,1.27062749243505,-32.7775254404496,21.771256389818,-181.680444775401,1285.47241134594,0.249313174925115,-0.034074578976941,-24.1120359000374,19.7812905959039,0.517150507682881,0.729996815266085,6.49137439596432,0.909471618783445,0.820667032404574,-9.90635084413688,-107.257442301147,-142.998520645248,-0.262323166225593,-5.38748870849667,-4.024690991866,-3.97901815818457,9.36411379210929,10.2278272826063,-0.389313942915431,12.6181882946722,-24.4293653355588,13.1067041108365,7.70301024594709,9.27770508527199,5.47426271318001,-3.46725250529042,212.712819426066,-162.578993618118,21.6461868286133,35.0894317626953,-16.7411880493164,-212.274993896484,14.3150005340576,-156.625,101,-0.413370907306671,0.0968811511993408
40.395,9.40150453841651,3.35861786378892,16.5798479413803,-0.29237086832128,-2.16285148227889,0.995371666133651,1.23252075150796,-22.6865819354621,-67.2153567451856,-74.2383177627968,-0.132596647729133,-4.24949771245315,-6.04632521303814,-5.86572589235315,1.76183151848485,12.1809122663059,1.8383012131024,5.61364494461267,11.3219687978028,-5.81862987084283,-4.51359317823955,12.42193630658,-2.91087733694085,-30.0884084612434,14.5445365489979,-158.343521372829,-2.73422336368455,10.7581031497654,1.25781727042842,-32.4926496559331,24.4816495325774,-204.511231451209,1274.54246967244,0.255510139572999,-0.0310369870682835,-23.8578915633863,30.6268036221689,-0.306113022996309,0.738445484117247,6.82205036325299,1.37355332039934,1.28649164309788,-11.232980917071,-77.0568593060676,-153.249732844181,-0.242354163549448,-5.52922280795091,-4.58077128261433,-4.6199099304375,9.68736100330443,12.1487063937371,-0.0753688097402911,14.3293112884754,-29.3301823664683,7.19816196109322,7.58905979020204,9.38002794349203,5.73006985873013,-10.6821049942627,229.020166078419,-127.480875163011,21.6461868286133,35.0894317626953,-16.7411880493164,-212.274993896484,14.3150005340576,-156.625,101,-0.413370907306671,0.0968811511993408
40.4,9.40547737121582,1.67570477236143,15.5366709900246,-0.287720760200744,-2.44022680813538,0.871453609909562,1.14689430290871,-23.3606386325457,-66.3586105302974,-75.2653638912555,-0.11548051320744,-4.09766466855489,-5.92976694201849,-5.71624731406127,1.7613436172792,12.2261889540365,2.27746343303015,11.822807785922,4.55475132553845,-3.27913953706727,-4.03633522191593,12.9639741045694,-2.92651067153926,-32.8379983662657,26.9358554784803,-159.308959233242,-2.78426299386212,11.1772981779863,1.31005239540534,-29.8490416458316,27.9141117717829,-227.823023787921,1256.00691382856,0.26213565423297,-0.0278237357775706,-23.5657817793452,39.722912285441,-0.0401348965513633,0.743683779050283,7.1245546782584,1.83098408557429,1.74776840217261,-12.3012891615205,-51.9188024502703,-159.177891413635,-0.220931637098566,-5.61948702645637,-4.97200130537111,-5.08687505854412,9.97495523969435,13.6680944770182,-0.0212257230338094,15.5727419122229,-32.3766029035863,1.48665815102919,6.70589920176707,9.54183638469618,5.80827351824084,-15.548266161005,236.864590722301,-98.6262957608819,20.2328218321584,35.0122138626377,-15.7931992800499,-204.698343127929,12.2466784362994,-164.508229328505,119.423467509495,-0.411440295821947,0.0952958979485975
40.405,9.40547737121582,1.13526852698662,13.6896242382538,-0.276679542500345,-2.63402496257136,0.73570662946152,1.04886057964672,-23.9368542433062,-69.6012279576502,-75.0770981529788,-0.106029700569634,-3.9454586890755,-5.7691881619162,-5.52042070650032,1.5843345215541,12.391899596843,2.72375232331577,14.4033186377064,4.83372547167729,-0.487073291127626,-2.41689030357992,13.8979795458423,-3.41422722252651,-34.0747837474813,36.8743094346767,-162.589230234925,-3.25059726127552,11.6476915392996,1.59508457661206,-18.7633760991417,33.9314794743264,-252.861339177076,1210.24817950813,0.27029631927783,-0.0239811294251637,-23.1377366769739,42.5602019956224,4.12410217750235,0.737433864245967,7.32630374255206,2.26471221571904,2.18728145808166,-12.4453430866587,-44.893131597118,-149.635909397454,-0.194302531888262,-5.52556946452231,-4.77334715506528,-4.95397061522501,10.1350166560415,13.7509497984215,-0.896855824227125,15.1426567702588,-28.7871355565998,-3.52092777216313,3.06968043745679,9.91656840649718,5.25088317425543,-12.0099440741439,214.423445449981,-92.1099246639887,13.7609679662958,34.6586300635094,-11.4523214483778,-170.004561486414,2.7757502628967,-200.605846244969,203.785249301883,-0.402599949957834,0.0880369610109144
40.41,9.40547737121582,0.594858051030347,11.8426655585196,-0.265638851274183,-2.82781387620271,0.599966121785767,0.9496241297085,-24.5130423785942,-72.843690768494,-74.8888413917066,-0.0965793385713775,-3.79325996717667,-5.60861703863159,-5.32287954480801,1.40733386608723,12.5576023381311,3.17001993337584,16.9837064439609,5.1126863155967,2.30485982176577,-0.797522604627777,14.8319404512845,-3.90192051790862,-35.311510155524,46.8122894993055,-165.869344824677,-3.71690929264718,12.1180624710228,1.88010316673632,-7.67823914607881,39.9485602529854,-277.898460673641,1164.49162708425,0.278456595200763,-0.0201387062983124,-22.7097119849165,45.3973564163842,8.28814068980352,0.731184247453992,7.52804318692085,2.69841966456826,2.62843691146572,-12.5893901429276,-37.8677957463905,-140.094382368019,-0.167674696423581,-5.43165638082408,-4.57470247711069,-4.810587164499,10.2950704402403,13.8338011690655,-1.77244417307917,14.7125921358831,-25.1978393648368,-8.52827492051647,-0.566364942399727,10.2912825600919,4.69351940810446,-8.47179070376614,191.983370230365,-85.5938642847712,7.28942269541054,34.3050631241845,-7.11165060115316,-135.312434135461,-6.69472631179474,-236.701741932322,288.143008503111,-0.393760025624613,0.0807783701983953
40.415,9.40547737121582,0.0544218056555439,9.99561880674877,-0.254597633573783,-3.02161203063869,0.464219141337726,0.848509686713052,-25.0892579893547,-76.0863081958468,-74.70057565343,-0.0871285259335716,-3.64105398769728,-5.4480382585293,-5.12433826728939,1.23032477036214,12.7233129809376,3.61630882366147,19.5642172957453,5.39166046173554,5.09692606770541,0.821922313708229,15.7659458925573,-4.38963706889587,-36.5482955367396,56.750743455502,-169.14961582636,-4.18324356006059,12.588455832336,2.16513534794304,3.40742640061111,45.9659279555289,-302.936776062796,1118.73289276383,0.286617260245623,-0.0162960999459055,-22.2816668825452,48.2346461265657,12.4523777638572,0.724934332649676,7.7297922512145,3.13214779471301,3.07089905257,-12.7334440680657,-30.8421248932382,-130.552400351838,-0.141045591213277,-5.33773881889002,-4.37604832680486,-4.65660023538982,10.4551318565875,13.9166564904688,-2.64807427427248,14.282506993919,-21.6083720178503,-13.5358608437088,-4.20258370671001,10.6660145818929,4.13612906411904,-4.93346861690509,169.542224958045,-79.077493187878,0.817568829547888,33.9514793250561,-2.77077276948109,-100.618652493946,-16.1656544851975,-272.799358848786,372.504790295499,-0.384919679760499,0.0735194332607122
40.42,9.40547737121582,-0.485988670300731,8.14866012701455,-0.243556942347621,-3.21540094427005,0.328478633661973,0.744852059193098,-25.6654461246426,-79.3287710066905,-74.5123188921578,-0.0776781639353154,-3.48885526579845,-5.28746713524469,-4.92565326208411,1.05332411489527,12.8890157222257,4.06257643372154,22.1446051019998,5.67062130565495,7.8888591805988,2.44129001266037,16.6999067979995,-4.87733036427797,-37.7850219447823,66.6887235201308,-172.429730416112,-4.64955559143225,13.0588267640593,2.4501539380673,14.492563353674,51.9830087341879,-327.973897559361,1072.97634033994,0.294777536168556,-0.0124536768190542,-21.8536421904878,51.0718005473275,16.6164162761584,0.7186847158577,7.9315316955833,3.56585524356223,3.51416425355753,-12.8774911243346,-23.8167890425107,-121.010873322402,-0.114417755748596,-5.24382573519179,-4.17740364885027,-4.4922958195752,10.6151856407862,13.9995078611128,-3.52366262312452,13.8524423595433,-18.0190758260872,-18.5432079920621,-7.83862908656652,11.0407287354877,3.57876529796808,-1.39531524652729,147.102149738428,-72.5614328086606,-5.65397644133737,33.5979123857313,1.56989807774354,-65.9265251429917,-25.6361310598889,-308.895254536139,456.862549496727,-0.376079755427278,0.066260842448193
40.425,9.40547737121582,-1.02642491567553,6.30161337524373,-0.232515724647221,-3.40919909870602,0.192731653213931,0.637962273039799,-26.2416617354032,-82.5713884340433,-74.3240531538811,-0.0682273512975095,-3.33664928631906,-5.1268883551424,-4.72774444966948,0.876315019170175,13.0547263650322,4.50886532400716,24.7251159537841,5.94959545179379,10.6809254265384,4.06073493099638,17.6339122392724,-5.36504691526522,-39.0218073259978,76.6271774763273,-175.710001417795,-5.11588985884566,13.5292201253725,2.73518611927401,25.5782289003639,58.0003764367314,-353.012212948516,1027.21760601952,0.302938201213416,-0.00861107046664729,-21.4255970881166,53.909090257509,20.7806533502121,0.712434801053384,8.13328075987695,3.99958337370698,3.95774721826229,-13.0215450494728,-16.7911181893584,-111.468891306221,-0.0877886505382913,-5.14990817325773,-3.97874949854444,-4.31825547688755,10.7752470571334,14.0823631825161,-4.39929272431784,13.4223572175792,-14.4296084791007,-23.5507939152545,-11.4748478508768,11.4154607572887,3.02137495398266,2.14300684033377,124.661004466109,-66.0450617117673,-12.1258303072,33.2443285866029,5.91077590941561,-31.232743501477,-35.1070592332917,-344.992871452603,541.224331289115,-0.367239409563165,0.0590019055105099
40.43,9.16156297068271,-9.7367586469142,3.05409995312572,-0.236596336794671,-3.59818784878701,-0.0480271027937973,0.422180724201969,-27.4994085719857,-93.4916581272781,-76.836675709605,-0.0587538125627545,-3.078830799808,-4.92388416695081,-4.48920284264039,0.814450731520598,12.4300327778642,4.13094672998936,24.0041789783036,7.44581897621824,19.3930031060253,4.73153912408932,18.0502321964758,-5.4669365855993,-43.5445217886252,89.4366299795024,-182.619801291767,-5.65687438162298,13.8982143323152,2.70691198783471,29.0232217599611,66.4623535912134,-374.490552915387,997.036916966732,0.305109402539093,-0.00747854555010077,-20.7489799803873,51.2292961053614,26.472932315467,0.705867833772473,8.32362789010064,4.49805627822899,4.46580552301881,-13.6819415258513,-30.0330733165467,-96.7612020817583,-0.0610329466580978,-4.83585151977305,-4.14063439541699,-4.49591147352043,9.22993755457994,13.2108991183472,-3.8946919000395,24.6238256407848,-4.94111312114417,-25.9271019650916,-9.54392389314895,12.2357248812699,1.25962496859787,8.47770288521705,100.360613218101,-88.4355782935927,-10.6037895397141,28.6620817782826,4.10832160601267,-50.3939968384898,-31.0777596090173,-284.280011011993,623.245307621452,-0.351891718224516,0.0655150198271416
40.435,8.89287020841879,-19.2770704311997,-0.335778716770592,-0.242212539745149,-3.78669820881295,-0.299460746967976,0.191232329830801,-28.8264199114756,-105.192042438626,-79.623661627807,-0.0492774687495177,-2.81027553450826,-4.71656170383408,-4.24919436880003,0.764274281339366,11.7250536528178,3.66932338832198,22.947995675106,9.06571301601985,28.7066195069497,5.30605947866447,18.4140114602898,-5.52965714832584,-48.4011065962904,102.538258637936,-189.898483879786,-6.20546684263654,14.2569324823617,2.64682519873828,31.6926092349964,75.1729856489286,-395.608563322887,968.436340363428,0.306672585051457,-0.00662112594349235,-20.0470888783591,47.9891908438519,32.3206581372538,0.699268330016903,8.51282733719443,5.00312914712623,4.97961499880325,-14.3947988987539,-45.3335725647103,-81.5282465623682,-0.034262983352924,-4.49942681709093,-4.33913468587566,-4.70244914658086,7.51139413587263,12.2424936298494,-3.24992451521062,37.0068779756353,5.14683121467579,-28.0363712597472,-7.0476454966325,13.1012686468963,-0.624500735707531,15.0966580727047,75.8701692932231,-113.762296388158,-8.27001852918635,23.6502421638075,1.68201692592083,-75.0243616297957,-25.6775192539658,-213.7344283531,705.032921416865,-0.335882505376589,0.0734268046022724
40.44,8.62419025813095,-28.8169273083813,-3.72549574835535,-0.24782847490033,-3.97519958017019,-0.550882402126126,-0.04474489161473,-30.1533679755821,-116.891868844943,-82.4105146552061,-0.039801576793224,-2.54173307462838,-4.5092491263965,-4.01313020932594,0.714100223702964,11.0201081430263,3.20772205806705,21.8918627335002,10.6855298150223,38.0197918102009,5.88055243860131,18.7777733781537,-5.59237472037135,-53.2574598292461,115.639262576331,-197.176819401116,-6.75403314532179,14.6156335277853,2.58674127473765,34.3618694266311,83.8832023608467,-416.725566768228,939.837127510677,0.308235693027176,-0.00576374722090102,-19.3452312443407,44.7492400790648,38.1681051241265,0.692669140942993,8.70201776276204,5.50817793282354,5.49198747638366,-15.107622280746,-60.6333422449142,-66.2960173902754,-0.00749429650985695,-4.16301815602156,-4.53762551131952,-4.90251542388547,5.79293266182576,11.2741343174668,-2.60518787458282,49.3893398540518,15.2342945308345,-30.1455399789072,-4.55148612922136,13.9667711411242,-2.50853659995455,21.7152976510379,51.3808931369851,-139.087806838336,-5.93635879898525,18.6386415269985,-0.744172061596141,-99.6535519806672,-20.2775363965472,-143.192209492732,786.816635364205,-0.319874055889947,0.081338212122741
40.445,8.35549749586703,-38.3572390926668,-7.11537441825166,-0.253444677850808,-4.16370994019613,-0.802316046300305,-0.286240575500369,-31.480379315072,-128.592253156291,-85.1975005734081,-0.0303252329799872,-2.27317780932864,-4.30192666327976,-3.78207023704411,0.663923773521731,10.31512901798,2.74609871639968,20.8356794303026,12.3054238548239,47.3334082111252,6.45507279317646,19.1415526419676,-5.65509528309789,-58.1140446369114,128.740891234764,-204.455501989135,-7.30262560633535,14.9743516778318,2.52665448564123,37.0312569016664,92.5938344185619,-437.843577175727,911.236550907373,0.30979887553954,-0.0049063276142926,-18.6433401423125,41.5091348175552,44.0158309459133,0.686069637187424,8.89121720985583,6.01325080172079,6.00244988260503,-15.8204796536486,-75.9338414930777,-51.0630618708852,0.0192756667953169,-3.82659345333944,-4.73612580177819,-5.09750005363452,4.07438924311844,10.305728828969,-1.96042048975395,61.7723921889024,25.3222388666544,-32.2548092735628,-2.0552077327049,14.8323149067505,-4.39266230425995,28.3342528385255,26.8904492121069,-164.414524932902,-3.60258778845751,13.6268019125233,-3.17047674168798,-124.283916771973,-14.8772960414957,-72.6466268338387,868.604249159619,-0.303864843042021,0.0892499968978718
40.45,7.81434280366609,-49.7420744076642,-12.7035779259842,-0.258952176605408,-4.25517500871558,-1.0070483787894,-0.486905365035745,-32.6404423936208,-135.548998470017,-91.1560177962915,-0.0167911898570902,-2.0603623014481,-4.16984402651136,-3.63231150871261,0.0192945075757825,10.2929505681818,2.06563333333332,26.500225986719,7.58669285447064,65.8975229143285,6.42311534090909,19.3402446022727,-5.29571316287881,-60.8735904180696,135.275273335204,-206.997657477553,-8.53805271635001,15.87970018199,3.05245507570153,36.5800744067539,98.6697419955514,-462.682122865735,894.172244318182,0.308057993213561,-0.00505959993406026,-18.3723929914561,37.1841249162862,44.6768095522825,0.679443347398687,9.01067064895549,6.29092472458428,6.28312655730277,-16.4443813950185,-76.3422749116204,-48.8828044245102,0.068369456034439,-3.53120735616425,-4.95120252671567,-5.30537756726549,2.64943607954545,10.6290679924243,-1.19424043560608,55.6534306023195,23.564109030116,-31.1835417835765,-2.36890321969698,13.9352805871212,-4.33314365530305,26.3455294846614,37.0956033716797,-162.808466961279,-3.42008805274963,13.2348785400391,-3.36021256446838,-126.209999084473,-14.4549999237061,-67.129997253418,875,-0.30261293053627,0.0898686945438385
40.455,7.25004503972603,-61.2839840295098,-18.4785716120603,-0.264450738037444,-4.33841169727527,-1.20782926444021,-0.68973528928519,-33.7864019552867,-142.103663642479,-97.383909074159,-0.00291220022801313,-1.85226462433986,-4.04413774029775,-3.49597585143617,-0.675800189393915,10.3286982954545,1.36656666666665,32.7352376777029,2.32996258885149,85.2473901047512,6.33970397727272,19.5249411931818,-4.90050217803033,-63.4553707210999,141.252842545829,-209.138107814254,-9.83181329341097,16.8314704506325,3.62798827671869,35.8641262021932,104.522439586466,-487.837595585332,878.085767045455,0.306036711155691,-0.00529862508769976,-18.1379921720245,32.76685033036,44.8977899974247,0.672814442360653,9.12421316778866,6.54932097957893,6.54177720668521,-17.0607686087399,-75.4873189800436,-47.8097967108079,0.119359689757598,-3.23928760459633,-5.16769668630578,-5.51237482680987,1.24931676136363,11.062012689394,-0.417720359848501,47.964481855593,20.8008930742611,-29.8423890525627,-2.92100700757576,12.8886665719697,-4.10872736742427,23.6264465254396,50.2447845351665,-158.917407758137,-3.42008805274963,13.2348785400391,-3.36021256446838,-126.209999084473,-14.4549999237061,-67.129997253418,875,-0.30261293053627,0.0898686945438385
40.46,6.68574727578597,-72.8258936513554,-24.2535652981364,-0.26994929946948,-4.42164838583496,-1.40861015009101,-0.898797368162931,-34.9323615169525,-148.65832881494,-103.611800352027,0.0109667894010639,-1.64416694723162,-3.91843145408414,-3.36758020206559,-1.37089488636361,10.3644460227273,0.66749999999999,38.9702493686869,-2.92676767676766,104.597257295174,6.25629261363635,19.7096377840909,-4.50529119318184,-66.0371510241302,147.230411756453,-211.278558150954,-11.1255738704719,17.783240719275,4.20352147773585,35.1481779976325,110.375137177381,-512.993068304929,861.999289772727,0.30401542909782,-0.00553765024133926,-17.9035913525928,28.3495757444338,45.1187704425669,0.666185537322618,9.23775568662184,6.80771723457358,6.79742702953988,-17.6771558224613,-74.6323630484668,-46.7367889971057,0.170349923480757,-2.94736785302841,-5.3841908458959,-5.71838586947078,-0.15080255681819,11.4949573863637,0.35879971590908,40.2755331088665,18.0376771184063,-28.5012363215488,-3.47311079545454,11.8420525568182,-3.88431107954548,20.9073635662177,63.3939656986532,-155.026348554994,-3.42008805274963,13.2348785400391,-3.36021256446838,-126.209999084473,-14.4549999237061,-67.129997253418,875,-0.30261293053627,0.0898686945438385
40.465,6.12147641904427,-84.367252924659,-30.0282836173574,-0.275447598715676,-4.50488110545088,-1.60938146198225,-1.11405816373546,-36.078266436259,-155.212681443764,-109.839394667693,0.0248451172434907,-1.43607919276678,-3.79273116187616,-3.24790233685451,-2.06595643939391,10.4001920454545,-0.0315333333333395,45.2049637579499,-8.18324728769171,123.946201833146,6.17288522727271,19.8943255681818,-4.11009905303032,-68.6188082210999,153.20769594089,-213.418906425365,-12.4192727576332,18.7349656050133,4.77902723581953,34.4322639313611,116.227555696314,-538.147341545567,845.913579545454,0.301994243419983,-0.00577666399763213,-17.6692017100074,23.9325117857528,45.3397403507815,0.659556948368173,9.35129279144973,7.06610116855665,7.049933147918,-18.2935136452227,-73.7774478834326,-45.6638324472273,0.22133772585575,-2.65546202096037,-5.6006746824763,-5.92459196476527,-1.55085511363637,11.927881439394,1.13528276515151,32.5869509913955,15.2745929199401,-27.160147540217,-4.02518825757575,10.7954884469697,-3.65990549242427,18.1884102600075,76.5425198746726,-151.135474887767,-3.42008805274963,13.2348785400391,-3.36021256446838,-126.209999084473,-14.4549999237061,-67.129997253418,875,-0.30261293053627,0.0898686945438385
40.47,5.55717865510421,-95.9091625465046,-35.8032773034335,-0.280946160147712,-4.58811779401057,-1.81016234763305,-1.33536921428047,-37.2242259979248,-161.767346616225,-116.067285945561,0.0387241068725678,-1.22798151565854,-3.66702487566254,-3.13755238695092,-2.76105113636361,10.4359397727273,-0.730600000000003,51.4399754489338,-13.4399775533109,143.296069023569,6.08947386363635,20.0790221590909,-3.71488806818183,-71.2005885241302,159.185265151515,-215.559356762065,-13.7130333346941,19.6867358736558,5.3545604368367,33.7163157268004,122.080253287229,-563.302814265164,829.827102272727,0.299972961362113,-0.00601568915127163,-17.4348008905758,19.5152371998267,45.5607207959236,0.652928043330139,9.46483531028291,7.3244974235513,7.29931864348787,-18.9099008589441,-72.9224919518557,-44.5908247335251,0.272327959578909,-2.36354226939245,-5.81716884206642,-6.13204817935499,-2.95097443181819,12.3608261363637,1.91180284090909,24.8980022446689,12.5113769640853,-25.8189948092032,-4.57729204545453,9.74887443181818,-3.43548920454548,15.4693273007856,89.6917010381594,-147.244415684624,-3.42008805274963,13.2348785400391,-3.36021256446838,-126.209999084473,-14.4549999237061,-67.129997253418,875,-0.30261293053627,0.0898686945438385
40.475,4.43174700267531,-104.212685448602,-44.4069396621365,-0.281389998185129,-4.59854117139063,-2.09601395088711,-1.64748093429765,-38.8043828017155,-168.400323969832,-123.546697145861,0.0476576462680065,-1.07895849184299,-3.53700651473162,-3.03267084862562,-3.25890222590138,10.2040469094923,-0.753576434878592,53.2584659653522,-17.0281403582881,154.26660443863,4.65915204194259,19.6691291390729,-2.80654847314203,-69.0367740440956,147.108207855268,-213.366524723153,-14.5749686072643,21.4701091912145,5.43671902915061,12.1572824808321,117.418959899226,-561.605916283322,797.736451434879,0.298226933898658,-0.00751848877064532,-17.2512189731921,19.7495854028452,43.2018646302793,0.64421904338257,9.58324177485905,7.46808366899634,7.430889829188,-19.3386726361132,-64.48334641818,-46.3651398435281,0.290736633214631,-2.07575153605067,-5.79666449553919,-6.10459441013804,-2.13712095290656,11.9432232339956,0.816814937454008,21.8420513903651,7.89135529937589,-31.3596840678059,-6.32415792862398,8.53572479764533,-2.31401499264167,15.8676354027562,79.5753981231661,-137.795385246051,-2.83572918784352,12.6046555259194,-3.12474910232558,-111.937402077156,-13.1204971476852,-54.7723820621999,925.268267108168,-0.294726649487036,0.0857105343111238
40.48,3.23435094366011,-112.101687201443,-53.3735313037787,-0.281186146336702,-4.59963479010414,-2.39278191870806,-1.9757908529324,-40.4402627744527,-175.04369309238,-131.186880838842,0.0559579547786676,-0.937497294974526,-3.4064286088904,-2.93725867184948,-3.7315052428256,9.93784602649006,-0.689919701986763,54.5111199683863,-20.4026854577167,164.163999945494,3.0561597682119,19.183023178808,-1.83240756070641,-66.2647412312975,132.716975649306,-210.618306625242,-15.38161602465,23.3601403083233,5.45566087180942,-12.073749667814,111.410149818277,-556.46805623204,763.593294701987,0.296516083712971,-0.00918330967018461,-17.074139129226,20.5800065431637,40.5123005372017,0.635243030950497,9.70227787659827,7.59696584986009,7.54500698849088,-19.7434263812154,-55.0719065826197,-48.5044071984704,0.304971286329904,-1.78847441455897,-5.74578998676988,-6.04950246946717,-1.03952455849891,11.4166084437086,-0.518047461368659,19.3796098710926,3.03315346251328,-37.7825126727169,-8.22421495584988,7.30116997792495,-1.07753118101547,16.6654283514567,66.4773049355463,-127.633646403946,-2.17645896810008,11.89364164394,-2.85910061515259,-95.8351424377222,-11.6149189983114,-40.8305935964284,981.980629139073,-0.285829393789337,0.0810193224976592
40.485,2.03701197963151,-119.990312785976,-62.3396953947991,-0.280982304208466,-4.60072835667104,-2.68953573585346,-2.30879370621122,-42.0760647441395,-181.686745441653,-138.826700227812,0.0642578675088352,-0.796042843347186,-3.27585692934643,-2.85191349455131,-4.20408572479765,9.67165783664459,-0.626266004415022,55.7637142415901,-23.7770696499787,174.060923518564,1.45324392935981,18.696940397351,-0.858313097866088,-63.492840596299,118.326429655066,-207.870219569582,-16.1882249789698,25.2500813037881,5.47460181127145,-36.3036264172541,105.401626253163,-551.330441167409,729.451766004415,0.294805315105112,-0.0108480511866942,-16.8970677288917,21.4103880868228,37.8228646895986,0.626267446518253,9.82130830238376,7.72584188528321,7.656738285566,-20.1481608265967,-45.6609155092106,-50.6435725475308,0.319205260699558,-1.50121099119438,-5.69491790383067,-5.99757240978119,0.0580194996320675,10.8900187637969,-1.85284621044887,16.9172857674942,-1.82481672253563,-44.2050350203036,-10.1241813833701,6.0666740250184,0.158893671817502,17.4631832592956,53.379836299385,-117.472392100219,-1.51722018409093,11.1826616649684,-2.59346479479665,-79.7336505962874,-10.1094126388551,-26.8894699117206,1038.69028697572,-0.276932562336139,0.0763283343734857
