time,hip_angle_l,hip_angle_l_velocity,hip_angle_l_velocity_filt,hip_angle_l_torque_estimated,hip_angle_l_torque_desired,hip_angle_l_torque_measured,hip_angle_l_torque_interaction,knee_angle_l,knee_angle_l_velocity,knee_angle_l_velocity_filt,knee_angle_l_torque_estimated,knee_angle_l_torque_desired,knee_angle_l_torque_measured,knee_angle_l_torque_interaction,thigh_imu_l_accel_x,thigh_imu_l_accel_y,thigh_imu_l_accel_z,thigh_imu_l_gyro_x,thigh_imu_l_gyro_y,thigh_imu_l_gyro_z,shank_imu_l_accel_x,shank_imu_l_accel_y,shank_imu_l_accel_z,shank_imu_l_gyro_x,shank_imu_l_gyro_y,shank_imu_l_gyro_z,foot_imu_l_accel_x,foot_imu_l_accel_y,foot_imu_l_accel_z,foot_imu_l_gyro_x,foot_imu_l_gyro_y,foot_imu_l_gyro_z,insole_l_force_y,insole_l_cop_x,insole_l_cop_z,hip_angle_r,hip_angle_r_velocity,hip_angle_r_velocity_filt,hip_angle_r_torque_estimated,hip_angle_r_torque_desired,hip_angle_r_torque_measured,hip_angle_r_torque_interaction,knee_angle_r,knee_angle_r_velocity,knee_angle_r_velocity_filt,knee_angle_r_torque_estimated,knee_angle_r_torque_desired,knee_angle_r_torque_measured,knee_angle_r_torque_interaction,thigh_imu_r_accel_x,thigh_imu_r_accel_y,thigh_imu_r_accel_z,thigh_imu_r_gyro_x,thigh_imu_r_gyro_y,thigh_imu_r_gyro_z,shank_imu_r_accel_x,shank_imu_r_accel_y,shank_imu_r_accel_z,shank_imu_r_gyro_x,shank_imu_r_gyro_y,shank_imu_r_gyro_z,foot_imu_r_accel_x,foot_imu_r_accel_y,foot_imu_r_accel_z,foot_imu_r_gyro_x,foot_imu_r_gyro_y,foot_imu_r_gyro_z,insole_r_force_y,insole_r_cop_x,insole_r_cop_z
102.79,-50.1890394668435,-62.6852735788681,-73.7840210264256,0.108079555245789,-3.20648852725603,-4.50236038368311,-4.49804316373309,-73.6111408859062,63.6734972574409,29.0209103082129,-0.0523989256418106,0.51318519541462,1.30506704381676,1.21207299141966,4.05251553227295,6.3381170203343,-0.515177339963803,1.52838612611187,-7.83309627392602,139.18411134903,-6.87231446684127,-2.62867276569363,-0.305663617153216,-75.1658341077795,33.375552403095,211.723438294022,-2.53913504418271,3.17342636624123,-6.7587386120619,-81.4648648865768,-4.14943930347002,292.062539611955,1.77623404066862,0,0,-4.54411398234559,33.6844539201874,31.1812947998398,0.155440438826592,5.22955159629748,5.53400486424782,5.52827483877759,-0.522701926214128,29.213970524844,42.8658498663042,-0.188624388550202,0.749003184312524,2.7221134000834,2.72224444209452,2.78244606410305,7.77538574447356,-2.97664351061004,-20.598849086341,5.29722641274517,-97.8385627779394,2.375879360741,10.4571992559693,0.0272065950474003,7.94405397987204,22.8593990110522,-19.3095400672577,-0.984353065490723,9.47948741912842,-0.443078637123108,-4.34000015258789,-4.05999994277954,-4.44500017166138,869,-0.206296041607857,0.101278722286224
102.795,-50.6878571446056,-57.3540351336807,-71.094348821694,0.125828375239185,-2.98292724750085,-4.43237244769254,-4.44185519668129,-72.9383193015234,69.1951370033629,37.2625701181214,-0.05767923872385,0.40357968607524,1.15809236241922,1.04529445017263,4.15335648938996,6.0727460805527,-0.385145579470817,0.204807611645624,-8.93061806191164,132.21239085699,-6.52202482632956,-2.55436890255477,-0.342815548722636,-71.3425268642594,33.2707145009591,218.036645713271,-2.7730242880838,2.72471495493395,-5.38400368431102,-66.9013064156061,1.20043892857335,290.455720515212,1.24549216110542,0,0,-4.213502712989,34.4460591231257,30.8737623265554,0.153484147625274,5.11385749606838,5.51300842018129,5.51418120056358,-0.290694060073294,27.8811609135471,39.2629390674671,-0.202072664175908,0.499730079534068,2.47482269291671,2.48409679738206,2.85940363663972,7.7170041377216,-2.96868238241659,-18.505367228064,1.84412801114264,-97.5142205182064,2.10520100216378,10.6403052044186,-0.169167900390985,8.04561569756623,25.4541370889167,-21.9763542028407,-0.984353065490723,9.47948741912842,-0.443078637123108,-4.34000015258789,-4.05999994277954,-4.44500017166138,869,-0.206296041607857,0.101278722286224
102.8,-51.1866510374317,-52.0230508959339,-68.4048048675921,0.143576348922263,-2.75937662773421,-4.36238784891043,-4.40144147041188,-72.2655297990396,74.7165134630106,45.5038369440604,-0.0629593000267036,0.293979403014199,1.01112468916021,0.893277005423353,4.25419263814548,5.80738779435396,-0.255120019233433,-1.11870779112338,-10.028087517178,125.24100279488,-6.17175188854723,-2.48006858241912,-0.379965708790456,-67.5194019260628,33.1658815977695,224.349552102221,-3.00690237953191,2.27602493936439,-4.00933430752942,-52.3384423733246,6.55006206438213,288.848978035821,0.714775588707943,0,0,-3.88290720804542,35.2076280107291,30.5662445172265,0.151527949705054,4.9981689124376,5.49201297728031,5.50652521124967,-0.05869725667641,26.5484148541104,35.6602000648726,-0.215520298552538,0.250468860751453,2.22754377721994,2.25529309438117,2.93635753963736,7.65862531475787,-2.96072163383062,-16.4119851924962,-1.6088057376656,-97.1898937239635,1.83453555024107,10.8234024218958,-0.365533032178053,8.14717257253119,28.0487514428599,-24.6430411777268,-0.984353065490723,9.47948741912842,-0.443078637123108,-4.34000015258789,-4.05999994277954,-4.44500017166138,869,-0.206296041607857,0.101278722286224
102.805,-51.6854687151938,-46.6918124507465,-65.7151326628605,0.161325168915659,-2.53581534797903,-4.29239991291986,-4.36284942727974,-71.5927082146568,80.2381532089325,53.7454967539689,-0.068239613108743,0.184373893674819,0.864150007762666,0.775978394694674,4.35503359526249,5.54201685457236,-0.125088258740447,-2.44228630558963,-11.1256093051637,118.26928230284,-5.82146224803552,-2.40576471928026,-0.417117640359876,-63.6960946825427,33.0610436956335,230.66275952147,-3.240791623433,1.82731352805711,-2.63459937977853,-37.7748839023539,11.8999402964255,287.242158939078,0.184033709144744,0,0,-3.55229593868883,35.9692332136673,30.2587120439421,0.149571658503736,4.8824748122085,5.47101653321378,5.49760971724411,0.173310609464425,25.2156052428136,32.0572892660355,-0.228968574178243,0.00119575597299705,1.98025307005324,2.02680680866119,3.01331511217403,7.60024370800591,-2.95276050563716,-14.3185033342191,-5.06190413926813,-96.8655514642304,1.56385719166385,11.0065083703451,-0.561907527616439,8.24873429022539,30.6434895207244,-27.3098553133098,-0.984353065490723,9.47948741912842,-0.443078637123108,-4.34000015258789,-4.05999994277954,-4.44500017166138,869,-0.206296041607857,0.101278722286224
102.81,-52.0745437046853,-40.8752406746933,-61.9291677757136,0.188961075099467,-2.31037681457169,-4.14290248059533,-4.24417797607081,-70.7367113970633,84.798088054317,60.6302083579585,-0.0743033610104961,0.0930220823200524,0.739522553241791,0.681280599227351,4.61791725285344,5.37458620309995,-0.0598896541599725,-3.33571734839528,-10.8192762532013,110.753920560722,-5.50895171451989,-2.44200689967336,-0.430000000000007,-57.5827839224501,29.7267601575127,236.168403742957,-3.32189226150513,1.67172372341156,-2.15791273117065,-32.7249984741211,13.7550001144409,286.684997558594,0,0,0,-3.22887054576127,34.6701765470511,30.471431794991,0.140163239623382,4.73976125556364,5.43427035084729,5.47125461792942,0.378298221313698,23.1903141740936,29.4636703085853,-0.242624625523503,-0.23161728399833,1.72655096412961,1.79207659753868,2.88414481973994,7.68725517781338,-2.81257930342658,-12.2332821793326,-6.18063856564603,-96.1572243207898,1.36777240864664,10.9593930978799,-0.475820681893244,8.15981267999993,29.3542442491017,-29.689050733079,-0.705800702237092,9.44215987576636,-0.921915765155332,-4.13470701483105,-4.88703790586062,-5.52425540799798,869.670344861334,-0.192659842851848,0.0994858677913109
102.815,-52.4053911042715,-34.8006091458236,-57.5609686852373,0.221847475967766,-2.08392530013713,-3.95118718165478,-4.08218774003273,-69.7834150471883,88.8478427331299,66.7950978842901,-0.080783431399793,0.0113534259351923,0.626748840336555,0.598538543185322,4.96683911772261,5.25913411545942,-0.0291024307891629,-4.00087340887571,-9.76769619567983,102.949422784418,-5.21647309249721,-2.53693417173336,-0.430000000000007,-50.2533976179181,24.677908917485,241.24576167129,-3.32189226150513,1.67172372341156,-2.15791273117065,-32.7249984741211,13.7550001144409,286.684997558594,0,0,0,-2.90923610604188,32.2771398693342,30.9603386323311,0.126798234065107,4.58269422781783,5.38916086874364,5.434678098346,0.56895732001629,20.7972772517019,27.4056361859121,-0.256391969742983,-0.455709630617042,1.46942690084657,1.55388127994598,2.64554383861617,7.85145370245771,-2.60219994372606,-10.1522939329724,-6.0602769927972,-95.245010294988,1.21127068984502,10.7900633693405,-0.239785302717041,7.96976809129123,26.003124668205,-31.9157398307825,-0.279360804277011,9.38501459221361,-1.65497454675193,-3.82042073955281,-6.15316245230463,-7.17650307691186,870.696585640361,-0.171783986197274,0.0967411605522915
102.82,-52.7362227281854,-28.7262672713278,-53.1929778819576,0.254732308726163,-1.85748458350509,-3.75948102420283,-3.91863253668942,-68.8301641529852,92.8974043090114,72.9596934525097,-0.087263192802327,-0.0703113362737959,0.513980504777919,0.515772917010467,5.31574434508153,5.14368753287743,0.0016833245660369,-4.66599775296951,-8.71616628025535,95.1452971470506,-4.92400841662283,-2.63185691741189,-0.430000000000007,-42.9243607977608,19.6292984199349,246.322877497873,-3.32189226150513,1.67172372341156,-2.15791273117065,-32.7249984741211,13.7550001144409,286.684997558594,0,0,0,-2.58961690733145,29.8842172978866,31.4492221573101,0.113433865785373,4.42563468944012,5.34405353757847,5.39616527418585,0.75960732759268,18.4043544355911,25.347700195707,-0.270158657499358,-0.679791291924548,1.21231509791369,1.31547834737317,2.40695423461338,8.01564439768544,-2.39183061546554,-8.07140491359323,-5.93992115910404,-94.3328397659451,1.05477643345609,10.6207417148869,-0.00376117832718079,7.77973256440728,22.6521648774849,-34.142322754106,0.147058759909564,9.32787203349796,-2.38799837418195,-3.50614945026901,-7.41922662660738,-8.82867196232065,871.722777485534,-0.150909124958333,0.0939965841881167
102.825,-53.0670701277716,-22.6516357424582,-48.8247787914812,0.287618709594462,-1.63103306907053,-3.56776572526228,-3.75309205618576,-67.8768678031102,96.9471589878243,79.1245829788413,-0.0937432631916238,-0.151979992658656,0.401206791872683,0.432852076766067,5.6646662099507,5.0282354452369,0.0324705479368466,-5.33115381344995,-7.6645862227339,87.3407993707469,-4.63152979460015,-2.72678418947188,-0.430000000000007,-35.5949744932288,14.5804471799073,251.400235426207,-3.32189226150513,1.67172372341156,-2.15791273117065,-32.7249984741211,13.7550001144409,286.684997558594,0,0,0,-2.26998246761207,27.4911806201698,31.9381289946502,0.100068860227099,4.26856766169431,5.29894405547481,5.35572514592664,0.950266426295272,16.0113175131994,23.2896660730338,-0.283926001718838,-0.90388363854326,0.955191034630654,1.07670783538455,2.16835325348961,8.17984292232977,-2.18145125576501,-5.99041666723302,-5.81955958625521,-93.4206257401434,0.89827471465448,10.4514119863475,0.232274200849022,7.58968797569858,19.3010452965882,-36.3690118518096,0.573498657869645,9.27072674994522,-3.12105715577854,-3.19186317499078,-8.68535117305139,-10.4809196312345,872.749018264561,-0.130033268303759,0.0912518769490973
102.83,-53.1982028830313,-16.3703863264259,-43.059214116041,0.320284967146623,-1.37186587091066,-3.3482738802039,-3.55747787653645,-66.8950219370613,102.433471453761,84.5071569879165,-0.110932020492349,-0.23524717056687,0.302013600313194,0.363239535945402,5.85234659705192,4.88929857869895,0.0587983545605722,-6.02502894917348,-6.97677294765252,81.7626805844071,-4.63101600611766,-2.67689528782005,-0.486395063681674,-29.7668827315128,9.13216579534293,254.90602953418,-3.8906756166359,1.9728737615022,-1.87377117968994,-33.9970204979232,-4.0898602163289,280.756203361048,0,0,0,-2.04115811735361,25.557163864048,31.4851227045819,0.0854352457116118,4.07475252256404,5.21629916672603,5.27593352721628,1.06080856951242,13.0282603697514,21.2487225161141,-0.300540685683529,-1.13482273317672,0.734392339367673,0.873818941810243,1.76327479366085,8.29101600611768,-2.30127389710729,-4.92707184766531,-4.74061312672885,-91.2325999759747,1.09602378503812,10.3097421090104,0.44038683648447,7.87843430629249,15.7429557553756,-39.3091455948913,0.677790582180023,9.25675106048584,-3.30033707618713,-3.11500000953674,-8.99499988555908,-10.8850002288818,873,-0.124927781522274,0.0905806198716164
102.835,-53.2646843772132,-10.0218458869954,-36.840874939278,0.352882013184397,-1.10209029571346,-3.11977525589521,-3.35032577329484,-65.9038709129312,108.385229646413,89.636788583534,-0.131588903277609,-0.319037141308766,0.20721097186384,0.297609603258176,5.98783535057881,4.74274951876171,0.0836840439838704,-6.72824596168388,-6.40668925304457,76.9050213183765,-4.72502861060569,-2.58011760672941,-0.561052131951584,-24.4244816413245,3.55422114271186,257.903236024394,-4.64364396178188,2.3715430329854,-1.49761812971812,-35.6809521910919,-27.7132922865792,272.907530724328,0,0,0,-1.84171996356622,23.7716371446075,30.7271343770962,0.0703899831115357,3.86902759436484,5.12149661192678,5.18237131919296,1.14541905495014,9.85399019947957,19.213183363196,-0.318078272074501,-1.36799310603657,0.525340394128652,0.682195412829761,1.30427207763099,8.38502861060572,-2.52801017851962,-4.1931317617928,-3.35124747579809,-88.6313797646498,1.40847744113072,10.1770184320861,0.639472351870902,8.32221203263402,12.1176330986473,-42.4804495008241,0.677790582180023,9.25675106048584,-3.30033707618713,-3.11500000953674,-8.99499988555908,-10.8850002288818,873,-0.124927781522274,0.0905806198716164
102.84,-53.331165871395,-3.673305447565,-30.622535762515,0.385479059222171,-0.832314720516272,-2.89127663158652,-3.14049761866327,-64.912719888801,114.336987839065,94.7664201791514,-0.15224578606287,-0.402827112050663,0.112408343414486,0.231411164998143,6.12332410410569,4.59620045882448,0.108569733407169,-7.43146297419428,-5.83660555843663,72.0473620523458,-4.81904121509373,-2.48333992563878,-0.635709200221494,-19.0820805511363,-2.02372350991921,260.900442514608,-5.39661230692785,2.77021230446859,-1.12146507974629,-37.3648838842606,-51.3367243568294,265.058858087608,0,0,0,-1.64228180977883,21.9861104251671,29.9691460496105,0.0553447205114596,3.66330266616565,5.02669405712752,5.08748789256282,1.23002954038786,6.67972002920777,17.1776442102778,-0.335615858465473,-1.60116347889641,0.316288448889632,0.490105255328436,0.845269361601134,8.47904121509375,-2.75474645993196,-3.45919167592029,-1.96188182486734,-86.0301595533249,1.72093109722333,10.0442947551618,0.838557867257335,8.76598975897554,8.49231044191886,-45.651753406757,0.677790582180023,9.25675106048584,-3.30033707618713,-3.11500000953674,-8.99499988555908,-10.8850002288818,873,-0.124927781522274,0.0905806198716164
102.845,-53.3884162902832,1.79372870922089,-24.6314630206793,0.416072046098189,-0.570920823605228,-2.69450545310974,-2.95966320006831,-64.0591919708252,119.462333679199,99.6478328221922,-0.173031364786498,-0.483903050027048,0.0307692307978868,0.177612007660101,6.30154266970348,4.43669082309866,0.141103058967118,-8.28377168075083,-5.32648854005682,66.7006282824932,-4.93679870971958,-2.36732528361102,-0.700317230256192,-13.1076003225163,-8.04046831323255,263.482264766065,-6.35858782524881,3.04507010629534,-0.843659760460598,-38.5596282946679,-75.0075869711301,257.26962454041,0,0,0,-1.47053600311279,20.44850730896,29.1338003217955,0.0414966526049102,3.46274795305477,4.94505500793457,5.00481768309432,1.30289170742035,3.94620299339294,15.1797277289562,-0.353259510522875,-1.82573148492024,0.136263743042946,0.326642106134744,0.461420289223314,8.56285507230583,-2.95888244717369,-2.84439275465794,-0.906814966036351,-83.3256356989416,2.03123993330646,9.95633011126489,1.0017520133387,9.10624242294596,5.24152005643094,-48.6599987918421,0.600369745226165,9.26526050459126,-3.21387494352623,-3.13498551930797,-9.04829457828237,-11.0348915067859,873.91996774299,-0.122543773872624,0.0899129955818282
102.85,-53.3884162902832,1.79372870922089,-20.0483053396629,0.434242251979894,-0.361437512730235,-2.69450545310974,-2.97289034988384,-64.0591919708252,119.462333679199,102.990958666576,-0.19462252036538,-0.548168834857729,0.0307692307978868,0.204448365048811,6.74492050172728,4.19671828514763,0.221093904950799,-10.0613460359436,-5.18823275687516,58.3178133471316,-5.20191122783691,-2.13192365114478,-0.702602682998581,-3.20961486534756,-16.7816196662282,263.487907859256,-8.61758550882519,2.55188933574359,-1.17591359983932,-36.7198390114096,-98.9808427452263,249.8464784969,0,0,0,-1.47053600311279,20.44850730896,27.8182381749921,0.0350712875830003,3.29420063595275,4.94505500793457,5.00327357187722,1.30289170742035,3.94620299339294,13.4145379850278,-0.371567260686696,-1.99700709071997,0.136263743042946,0.342918273444316,0.543696587949384,8.58342414698734,-3.02287512396063,-2.96854080486189,-1.92539328702778,-79.9792814366263,2.32834878981726,10.1460226888833,0.942330242036544,8.80433693722274,4.31323122649693,-50.6576537814873,0.0425992908818459,9.32656591914946,-2.59096740447967,-3.27896906823352,-9.43225070875049,-12.1147677967909,880.547780695923,-0.105368436040796,0.0851031650749794
102.855,-53.3884162902832,1.79372870922089,-15.4653661956329,0.452411591458496,-0.151964190569282,-2.69450545310974,-2.98350498585663,-64.0591919708252,119.462333679199,106.333925101945,-0.216212646421299,-0.612431555327127,0.0307692307978868,0.229992461203327,7.18827719233243,3.95675718971701,0.30108093676101,-11.838835631726,-5.0499835660921,49.9353981263865,-5.4670111046936,-1.89653324324618,-0.704888026764584,6.68789862989776,-25.5223542181866,263.493550683369,-10.8764754774634,2.05873208134532,-1.50815159648301,-34.8801374541327,-122.952955411571,242.423686408475,0,0,0,-1.47053600311279,20.44850730896,26.5027387576446,0.0286462289393577,3.12566135562916,4.94505500793457,5.00170437713153,1.30289170742035,3.94620299339294,11.649432409979,-0.389874137888942,-2.16827452964931,0.136263743042946,0.359066679430619,0.625968963525599,8.60399224088139,-3.08686474940881,-3.09268293536099,-2.94392303953165,-76.6330867372645,2.62544347939803,10.3357062214618,0.882911304120393,8.50244584714541,3.38498665981059,-52.6552135176999,-0.515144567503368,9.38786841050459,-1.96808956729936,-3.42294575164558,-9.81618853118264,-13.1945925954603,887.17527761734,-0.0881939171741521,0.0802935639134724
102.86,-53.3884162902832,1.79372870922089,-10.8822085146164,0.470581797340202,0.0575191203057114,-2.69450545310974,-2.99166566222967,-64.0591919708252,119.462333679199,109.677050946328,-0.23780380200018,-0.676697340157808,0.0307692307978868,0.2539043907422,7.63165502435623,3.71678465176598,0.381071782744691,-13.6164099869188,-4.91172778291044,41.552583191025,-5.73212362281093,-1.66113161077994,-0.707173479506973,16.5858840870665,-34.2635055711822,263.49919377656,-13.1354731610398,1.56555131079358,-1.84040543586173,-33.0403481708744,-146.926211185667,235.000540364965,0,0,0,-1.47053600311279,20.44850730896,25.1871766108412,0.0222208639174478,2.95711403852715,4.94505500793457,5.00063015123556,1.30289170742035,3.94620299339294,9.88424266605062,-0.408181888052763,-2.33955013544903,0.136263743042946,0.375279678961208,0.708245262251669,8.6245613155629,-3.15085742619575,-3.21683098556494,-3.96250136052308,-73.2867324749492,2.92255233590883,10.5253987990802,0.823489532818236,8.20054036142218,2.45669782987658,-54.6528685073451,-1.07291502184769,9.44917382506278,-1.3451820282528,-3.56692930057112,-10.2001446616508,-14.2744688854652,893.803090570273,-0.0710185793423241,0.0754837334066236
102.865,-53.3884162902832,1.79372870922089,-6.29926937058646,0.488751136818804,0.266992442466664,-2.69450545310974,-2.99757864836304,-64.0591919708252,119.462333679199,113.020017381698,-0.259393928056099,-0.740960060627206,0.0307692307978868,0.275795685932307,8.07501171496138,3.47682355633536,0.461058814554903,-15.3938995827012,-4.77347859212738,33.1701679702798,-5.99722349966762,-1.42574120288134,-0.709458823272977,26.4833975823118,-43.0042401231406,263.504836600674,-15.3943631296779,1.0723940563953,-2.17264343250541,-31.2006466135976,-170.898323852011,227.57774827654,0,0,0,-1.47053600311279,20.44850730896,23.8716771934936,0.0157958052738052,2.78857475820356,4.94505500793457,5.00058303051587,1.30289170742035,3.94620299339294,8.11913709100186,-0.426488765255008,-2.51081757437837,0.136263743042946,0.391774034256543,0.790517637827884,8.64512940945695,-3.21484705164393,-3.34097311606403,-4.98103111302695,-69.9405377755875,3.2196470254896,10.7150823316587,0.764070594902084,7.89864927134485,1.52845326319023,-56.6504282435576,-1.6306588802329,9.51047631641792,-0.722304191072496,-3.71090598398318,-10.5840824840829,-15.3542936841346,900.430587491691,-0.0538440604756798,0.0706741322451166
102.87,-53.2753122627859,5.64934539656325,-2.66918017111269,0.505436759381311,0.46455472274563,-2.48979134479942,-2.79676849731445,-62.9368570282587,116.749121636605,114.76136833459,-0.289936911502464,-0.819409403829884,0.0325189244020262,0.296987002421711,8.10835005782072,3.13738078362618,0.760628940202198,-18.4464021973255,-7.94975392613656,24.1455046521385,-6.74863555538976,-0.850537919200211,-0.608495915245999,33.9846786225758,-48.2732587351655,254.522901625259,-19.140635131543,0.591909776811324,-2.79711142145552,-30.1241305990396,-183.729046104948,209.282800305947,0,0,0,-1.31393112740584,19.7345041598359,22.7437522057873,0.00874744154360223,2.63605465562059,4.7770844575261,4.8341156132051,1.18108804174218,-0.337815474284537,6.07359452987978,-0.452167028379221,-2.67963023160818,-0.0667006868626661,0.205814132369514,0.907523532410693,8.7017471804628,-3.22800972382837,-3.21311398149953,-7.09701323329191,-65.9096493898391,3.64824971089642,10.9749498265378,0.638544534387784,7.6035615659014,0.40441773930126,-60.7919534867513,-1.67168948424485,9.46779197712746,-0.731154129901707,-0.57548523521689,-11.7407931793516,-18.0062921597476,946.980241479216,-0.0194430243342445,0.0634284093146851
102.875,-53.1271237984196,10.7009596381137,0.665052292520416,0.521661003471503,0.658409156200516,-2.22157570282918,-2.53070259151803,-61.4663780778301,113.194281592543,116.005695431621,-0.323255688202453,-0.902255368246497,0.0348113662721004,0.315815377543948,8.01447457753572,2.76709416694645,1.12830790465177,-21.8942979238424,-12.1541907317679,14.922142134425,-7.65088322701781,-0.169940687133956,-0.475505651508918,40.7420391547506,-52.4648182458332,242.753054028484,-23.3481462253112,0.11538741633314,-3.51220727956748,-29.2844667599882,-193.102253956084,187.615814901712,0,0,0,-1.1087480180437,18.7990199638918,21.6740942768456,0.00150613237443081,2.48851417047875,4.55701008462744,4.61758755214752,1.02150134469503,-5.95072009040752,3.94117176569141,-0.480130723480527,-2.84767072473846,-0.332623906877072,-0.0423675808765341,1.0352984916875,8.76954613844643,-3.22540207159824,-3.00707726208115,-9.55335724760792,-61.6665806993168,4.11762711232141,11.2565762673928,0.492516009500005,7.31060310547839,-0.780293397354444,-65.5984038319332,-1.5524027665136,9.3928474906018,-0.936002524667718,3.57720105318759,-13.1371910779072,-21.1459054348874,1005.91318188035,0.0203005385940503,0.0554273112135958
102.88,-52.9789282677016,15.752814765375,3.99944374868911,0.537886021213123,0.852272833584326,-1.95334727102335,-2.26312414128091,-59.9958290077623,109.639272036296,117.250081864262,-0.356576053704916,-0.98510528316449,0.0371039174570317,0.331274076511758,7.92059462080799,2.39678989318711,1.49600440183534,-25.3423580629161,-16.3588280255403,5.69833980160886,-8.55317392223423,0.51068899914202,-0.34250904614465,47.4997219109744,-56.6565776305894,230.982645187724,-27.5558579538176,-0.361157667065291,-4.22733723695264,-28.444762881652,-202.475908767682,165.947796309484,0,0,0,-0.903555124545881,17.8634911594791,20.6043853413745,-0.00573552209583113,2.34096664988388,4.33692521750471,4.40353425323647,0.86190703777247,-11.5638923573157,1.80864731714063,-0.508095752027788,-3.01571923086254,-0.598559807413152,-0.289615556276311,1.16307954390023,8.83734832941646,-3.22279429502247,-2.80103071782277,-12.0098183924382,-57.4233096784959,4.58702689596,11.538216137576,0.346480521256884,7.01763067536102,-1.96506102684009,-70.4050833722105,-1.43311036060735,9.31789943035592,-1.14086068760858,7.73008536201496,-14.5336555635545,-24.2856684221666,1064.84893249276,0.0600459966900971,0.0474258315809581
102.885,-52.8307398033353,20.8044290069255,7.33367621232222,0.554110265303315,1.04612726703921,-1.68513162905311,-1.9942968187931,-58.5253500573337,106.084431992235,118.494408961292,-0.389894830404905,-1.0679512475811,0.0393963593271058,0.3429139798196,7.82671914052299,2.02650327650738,1.86368336628491,-28.7902537894331,-20.5632648311716,-3.52502271610462,-9.45542159386228,1.19128623120828,-0.209518782407569,54.2570824431491,-60.8481371412571,219.212797590949,-31.7633690475859,-0.837680027543475,-4.9424330950646,-27.6050990426006,-211.849116618818,144.280810905249,0,0,0,-0.69837201518374,16.928006963535,19.5347274124328,-0.0129768312650025,2.19342616474204,4.11685084460605,4.19234863521503,0.702320340725313,-17.1767969734387,-0.323775447047743,-0.536059447129095,-3.18375972399282,-0.864483027427559,-0.535728467776299,1.29085450317704,8.90514728740008,-3.22018664279233,-2.59499399840439,-14.4661624067542,-53.1802409879736,5.05640429738499,11.819842578431,0.200451996369105,6.72467221493802,-3.14977216349579,-75.2115337173925,-1.3138236428761,9.24295494383026,-1.34570908237459,11.8827716504194,-15.9300534621101,-27.4252816973064,1123.7818728939,0.0997895596183918,0.0394247334798688
102.89,-52.3284442354962,23.5473857713498,9.65591353328429,0.561573771355891,1.19883192221644,-1.30768782580608,-1.61518652397268,-57.8437773022272,85.059004396032,113.853700010317,-0.393261264746569,-1.18290214106757,-0.0285225596782756,0.280116248242197,7.73149210197355,2.00553174362665,1.71114028940489,-29.4308607602514,-22.8651862748262,-10.383925059825,-9.69517188151065,1.93699969695822,-0.0248281184893274,55.4054605510216,-60.0053764195146,209.464946062772,-34.684660176047,-1.50904642009147,-4.69993798829799,-20.5814567443037,-201.032416111728,120.722876299231,0,0,0,-0.627262287552443,13.1566693589219,18.4119319601857,-0.0286294011146157,2.13222547513428,3.85146132409923,3.93898949103584,0.0944234553862393,-25.7810969833371,-3.80063771149291,-0.539026013950475,-3.32003550696782,-1.13963824237771,-0.789824702184822,1.49361102693285,8.96531743626654,-2.9434128186674,-1.29405960944088,-16.3014983966377,-46.8098367222103,5.24857665063068,11.7275212129247,0.409425830523881,6.38272598709547,-1.4361821131459,-78.2667928639272,-1.30528569221497,9.23759078979492,-1.36037111282349,12.1800003051758,-16.0300006866455,-27.6499996185303,1128,0.102634206414223,0.0388520546257496
102.895,-51.7988767007963,26.1122295559615,11.900017890019,0.568361537523484,1.34835653929341,-0.921843117301317,-1.22678313700081,-57.2230555446007,62.6878664363058,108.759557830484,-0.394318529948785,-1.30032206786719,-0.101850514365186,0.207343952191928,7.63616576385468,2.01148963975907,1.51850164778969,-29.8550237359346,-25.0203264807543,-17.060201260897,-9.88383859237092,2.6876946096443,0.16383859237093,56.1213888105563,-58.7745682473008,199.873468832293,-37.5066478553245,-2.19539866471404,-4.38363560182433,-13.0814584280813,-188.659851203981,97.020380200877,0,0,0,-0.566491795487147,9.16691232907094,17.2850978541957,-0.0449295827823941,2.077683777555,3.58259213397916,3.68547438712635,-0.548001995293127,-34.6155587818466,-7.38096291197736,-0.540065424687679,-3.45385558115919,-1.41549101108389,-1.04330871873831,1.70213739156788,9.02489639759083,-2.64551801204594,0.0912125365766141,-18.0888672363665,-40.2757654494021,5.41936967309366,11.6063773248987,0.645755710443574,6.0370209028681,0.500747082170616,-81.1868975115499,-1.30528569221497,9.23759078979492,-1.36037111282349,12.1800003051758,-16.0300006866455,-27.6499996185303,1128,0.102634206414223,0.0388520546257496
102.9,-51.2692839137225,28.677195644888,14.1442292566416,0.575149627365015,1.49788828643653,-0.535980009830916,-0.837577168027708,-56.6023041879205,40.3156617111435,103.665172737,-0.395375845566585,-1.41774759382406,-0.175181965688151,0.129757506294896,7.54083488010908,2.01744781999317,1.32585382022047,-30.2792069377862,-27.1755694543237,-23.7367958195199,-10.0725142997841,3.43842531914087,0.352514299784087,56.8373512090572,-57.5437013841246,190.281534233199,-40.3287701007972,-2.88178363797353,-4.06731813250358,-5.58110247520277,-176.286696311737,73.3167538514096,0,0,0,-0.505718405587124,5.17696504806216,16.158210015236,-0.0612305417226757,2.02313947916041,3.31371012285915,3.43533803198924,-1.19045807996471,-43.4504418507675,-10.9614588399045,-0.541104884989078,-3.58768203654717,-1.69135693380126,-1.29551413784791,1.91067369976137,9.08447819993181,-2.34760900034095,1.47655073915536,-19.8763213065964,-33.7413826000704,5.59017083980452,11.4852276601386,0.882096859729532,5.69129933372898,2.43776863975862,-84.1071414040655,-1.30528569221497,9.23759078979492,-1.36037111282349,12.1800003051758,-16.0300006866455,-27.6499996185303,1128,0.102634206414223,0.0388520546257496
102.905,-50.7397163790227,31.2420394294998,16.3883336133763,0.581937393532608,1.64741290351351,-0.150135301326158,-0.447651670373629,-55.981582430294,17.9445237514173,98.5710305571663,-0.396433110768801,-1.53516752062367,-0.248509920375061,0.0472354135952424,7.44550854199021,2.02340571612559,1.13321517860526,-30.7033699134694,-29.3307096602518,-30.4130720205919,-10.2611810106444,4.18912023182695,0.541181010644345,57.5532794685919,-56.3128932119109,180.69005700272,-43.1507577800747,-3.56813588259611,-3.75101574602992,1.91889584101964,-163.91413140399,49.6142577530557,0,0,0,-0.444947913521829,1.18720801821116,15.031375909246,-0.0775307233904541,1.96859778158113,3.04484093273908,3.18855119063304,-1.83288353064407,-52.284903649277,-14.541784040389,-0.542144295726282,-3.72150211073854,-1.96720970250744,-1.54652317273181,2.1192000643964,9.1440571612561,-2.04971419371949,2.86182288517286,-21.6636901463252,-27.2073113272622,5.7609638622675,11.3640837721126,1.11842673964923,5.34559424950161,4.37469783507513,-87.0272460516883,-1.30528569221497,9.23759078979492,-1.36037111282349,12.1800003051758,-16.0300006866455,-27.6499996185303,1128,0.102634206414223,0.0388520546257496
102.91,-50.2101235919488,33.8070055184263,18.6325449799989,0.588725483374139,1.79694465065663,0.235727806144244,-0.0569510796968526,-55.3608310736137,-4.42768097374493,93.4766454636818,-0.397490426386601,-1.65259304658055,-0.321841371698026,-0.0402237931911605,7.35017765824461,2.02936389635968,0.940567351036039,-31.127553115321,-31.4859526338212,-37.0896665792148,-10.4498567180575,4.93985094132352,0.729856718057502,58.2692418670928,-55.0820263487347,171.098122403626,-45.9728800255474,-4.25452085585559,-3.43469827670916,9.4192517938982,-151.540976511745,25.9106314035883,0,0,0,-0.384174523621806,-2.80273926279762,13.9044880702863,-0.0938316823307357,1.91405348318655,2.77595892161906,2.94490581392442,-2.47533961531565,-61.119786718198,-18.1222799683161,-0.543183756027681,-3.85532856612652,-2.24307562522482,-1.79656900633262,2.32773637258989,9.20363896359709,-1.7518051820145,4.24716108775161,-23.4511442165552,-20.6729284779305,5.93176502897836,11.2429341073526,1.35476788893518,4.9998726803625,6.31171939266313,-89.9474899442038,-1.30528569221497,9.23759078979492,-1.36037111282349,12.1800003051758,-16.0300006866455,-27.6499996185303,1128,0.102634206414223,0.0388520546257496
102.915,-49.7412216884404,38.0723892205215,22.2373748370855,0.584319006030159,2.10034162457874,0.457667102692917,0.17066515503954,-55.484880492216,-13.0638035166935,78.1540596576306,-0.394814277992318,-1.91882701209273,-0.427484742078362,-0.164778174973755,6.96025153659416,2.66130158566187,0.673284437787311,-31.4595097309661,-31.7339662717656,-40.3645842698922,-10.2910102783947,4.62573885646401,0.9604338618873,56.8048265540819,-55.4104841028898,118.204680275544,-46.7642640170526,-4.35502751169973,-1.88083789336411,16.0782850828122,-128.065185316744,-14.7665808012549,0,0,0,-0.462274001498684,-6.69961962269626,10.8052215028219,-0.115102975253542,1.85949635820932,2.64518550788129,2.84221257817669,-3.22062836745869,-67.6164634440176,-26.021691568171,-0.540580853236078,-4.07929007619192,-2.44689224745443,-1.97389782653538,2.59913434223441,9.63570528381798,-1.99090336242964,5.19833558745114,-26.744583262394,-14.1762088862617,6.0177258406074,11.6387738236662,1.73072310314549,5.12421496440919,3.86383279100598,-95.7746749383545,-1.33598873718213,9.52029050282534,-1.17904941626899,15.5070320220225,-17.7146810086624,-31.7220160249503,1135.74009606942,0.116269616691154,0.0382418654979131
102.92,-49.2795490176032,42.5412482813391,26.005029252682,0.578574228322859,2.42214601040199,0.660024748944921,0.379680381301083,-55.6979611400129,-20.0585395614875,61.6080986657346,-0.391691732946772,-2.20286197750509,-0.53699593384135,-0.297685128920257,6.53509219565103,3.36809513971384,0.397066267238259,-31.7804604011756,-31.7540256886537,-43.2330808848895,-10.0906167036827,4.18433138784152,1.19603171323795,55.0797167017059,-55.9253424696842,60.1326683845149,-47.3129600111928,-4.38551062248529,-0.178973429040853,22.6371121785099,-103.261064072999,-57.4747846750279,0,0,0,-0.556976855973381,-10.5855839055073,7.47003483928183,-0.136969498214775,1.80493478758595,2.53091296837612,2.75842806486606,-3.97824829786463,-73.8340056766983,-34.4377565740182,-0.53754244682137,-4.31403721240149,-2.64210783577576,-2.14236653166982,2.87806053406333,10.1123170290791,-2.29420174577759,6.09766611126732,-30.2182056201821,-7.6836442868156,6.0935504364444,12.096429419968,2.12338618872991,5.30474971640202,0.891695855420177,-101.949632103739,-1.37036329724253,9.8367958616591,-0.976045005627269,19.2319150652486,-19.6008178714287,-36.2809701182368,1144.40576416507,0.131535569303144,0.0375587090603204
102.925,-48.8178983605306,47.0098942552284,29.772504016628,0.572829724541637,2.74393505174756,0.862372746253274,0.589856118560558,-55.9110316275654,-27.0529420789094,45.0629266286829,-0.388569336792369,-2.48688339938485,-0.646501903823308,-0.434629555205302,6.10995312742108,4.0748549919942,0.120861267496499,-32.1013957676148,-31.7740841490562,-46.10144072244,-9.8902326842622,3.74294496668559,1.43161833066474,53.3546891070951,-56.4401762866804,2.0634255194195,-47.8616298420679,-4.41599227975613,1.52280988591828,29.1956265321184,-78.4581255548522,-100.180952109555,0,0,0,-0.651675194767434,-14.4713628953427,4.13500720619491,-0.158834978522805,1.75037581860146,2.41664587768553,2.67650387995729,-4.73583210296396,-80.0512514406477,-42.8534202797983,-0.534504185285853,-4.54877315525153,-2.83731411570551,-2.31106798482241,3.1569734259594,10.5889060482413,-2.59748566706264,6.99695375264388,-33.6916623465398,-1.191389269889,6.16937141676567,12.5540631940499,2.51603055110788,5.48527586002406,-2.08029936087631,-108.12429483096,-1.40473621823369,10.1532861286867,-0.773050274768617,22.9566204962753,-21.4868647982393,-40.8397068286273,1153.07101905893,0.14680079399445,0.0368755851974196
102.93,-48.3568955498062,51.3109726248082,33.5303927764153,0.56924868288839,3.08786647283271,1.05687450919531,0.793579314134293,-56.1289193644829,-31.9526969877225,29.3212188938158,-0.38267125916012,-2.77269368268687,-0.790120741691744,-0.609156240125256,5.77917791058497,4.66173715664865,-0.0932373290426594,-32.8464398160563,-30.9140772807439,-49.7243380567864,-9.79666061372258,3.19822997356624,1.64511849212735,52.138710039005,-57.557340365305,-45.8302485452928,-47.9419510328308,-4.46882623211157,3.16612082093821,34.614137566017,-57.360380516232,-139.199125067769,0,0,0,-0.768574653737722,-18.0290983812766,0.727572845376753,-0.17942873032564,1.68089009989434,2.31041169367964,2.60380922942802,-5.49681921986763,-86.0971424285605,-51.120680330464,-0.52876794661855,-4.78163693066727,-3.0201599561679,-2.4682313070081,3.40415239627629,11.0183047925526,-2.83275428111709,7.35048348352183,-36.4697321579327,5.31496379726468,6.26816078611655,12.995355476382,2.89231318239281,5.66600731290996,-4.63271498522238,-114.259210165995,-1.50869347707607,10.5966721830663,-0.620332338653506,26.7313040927887,-23.1623769527988,-47.5806131968593,1159.27542811171,0.161538617192685,0.0359305446623468
102.935,-47.8985871807239,54.942471590383,37.2491414951613,0.574300207846053,3.52005904890996,1.22002533094018,0.967584874281708,-56.3659749736025,-28.4941255811247,16.7888936455224,-0.365700256325789,-3.06557310872182,-1.06980787904876,-0.922535359223755,5.82497138259968,4.77019537984138,-0.0594947707160199,-35.2834023618684,-26.5430174763508,-56.3568038865974,-10.1292658315136,2.24138742673255,1.77044799448339,52.954006421853,-61.0773973759225,-53.1143563745334,-46.1536501281303,-4.61082811269003,4.57574946946378,35.4830092520101,-51.0505220355994,-163.493767798472,0,0,0,-0.97402364513159,-20.2771695197416,-2.96793693370561,-0.194943679117427,1.55186662711154,2.23625222925016,2.56363858231911,-6.27120370734712,-91.4579289362576,-58.79387705668,-0.512268766651163,-5.00697578591141,-3.15364699214097,-2.5774983682628,3.5246615331571,11.2593230663142,-2.79660154005285,5.52648099196772,-36.4727076921767,11.8760168052203,6.45856522238824,13.3713439834502,3.20322675554533,5.84751490179219,-5.51049758719378,-120.234082927888,-1.89025145068605,11.5462376502585,-0.668243545767165,30.704490942561,-23.9975053081594,-63.026269050215,1155.66015400529,0.174168723650382,0.0339407419014554
102.94,-47.4402569572537,58.5741437236162,40.9680675420613,0.57935197368517,3.9522722340462,1.38318393251537,1.14346655735482,-56.6030418866947,-25.0353892529015,4.25597079457543,-0.348728444230914,-3.35846650068237,-1.34950835325844,-1.23793985664362,5.87076703827144,4.87865877485345,-0.0257506033789218,-37.7204811139914,-22.1717492384159,-62.9895859848662,-10.4618869095506,1.28449925295943,1.895783473164,53.769341682026,-64.5976222401001,-60.3988115457142,-44.3652639484833,-4.7528367646137,5.98544533598794,36.351922370061,-44.7403626700076,-187.789569016739,0,0,0,-1.1794824333397,-22.52534785725,-6.66362293279555,-0.210459367737969,1.42283700185757,2.16208922853416,2.52309738798321,-7.04562512127206,-96.8189710725136,-66.4674396785006,-0.495768799922058,-5.23232538641592,-3.28714039342977,-2.6889102642398,3.64517641650385,11.5003528330077,-2.76044707504883,3.70239152304049,-36.4756833683087,18.4373826763207,6.64897873807608,13.747350419492,3.51415515457993,6.02903114584531,-6.38832204613918,-126.209240600981,-2.27182761884917,12.4958483973833,-0.716157037521858,34.6778672533438,-24.8326734865305,-78.4726614280975,1152.04470750488,0.18679943237342,0.0319508442570219
102.945,-46.9819485881715,62.205642689191,44.6868162608073,0.584403498642833,4.38446481012345,1.54633475426024,1.32141704660431,-56.8400974958144,-21.5768178463037,-8.27635445371796,-0.331757441396583,-3.65134592671732,-1.62919549061545,-1.55451357512392,5.91656051028615,4.98711699804618,0.00799195494771774,-40.1574436598035,-17.8006894340228,-69.6220518146772,-10.7944921273417,0.327656706125742,2.02111297552005,54.584638064874,-68.1176792507176,-67.6829193749548,-42.5769630437828,-4.89483864519215,7.39507398451351,37.220794056054,-38.430504189375,-212.084211747442,0,0,0,-1.38493142473356,-24.7734189957151,-10.3591327118779,-0.225974316529756,1.29381352907477,2.08792976410468,2.48133114557511,-7.82000960875155,-102.179757580211,-74.1406364047165,-0.479269619954671,-5.45766424166006,-3.42062742940284,-2.80313744173509,3.76568555338466,11.7413711067694,-2.72429433398459,1.87838903148638,-36.4786589025527,24.9984356842764,6.83938317434777,14.1233389265602,3.82506872773244,6.21053873472754,-7.26610464811057,-132.184113362874,-2.65338559245915,13.4454138645755,-0.764068244635518,38.6510541031161,-25.667801841891,-93.9183172814532,1148.42943339846,0.199429538831116,0.0299610414961305
102.95,-46.5471992492676,65.6504669189453,48.3965404772508,0.590036820295612,4.82012912838063,1.70109891891479,1.49321651005569,-57.0649674224854,-18.2960319519043,-20.3387619202199,-0.313356197434654,-3.94010676980642,-1.89450550079346,-1.85703794776811,5.94885690311752,5.11033615181047,0.0576896663009303,-42.7394590786918,-13.511421087819,-76.4712509751516,-11.0704420060673,-0.630422513393129,2.13888569031174,55.5114142348635,-71.766836476529,-75.1831079428145,-40.4019070650912,-4.76356237713489,8.84316337231876,41.6784175425912,-34.0498841340551,-230.693171874984,1.76896663009101,0.00482345772537446,-0.00186301711214556,-1.57981945037842,-26.9059295654297,-14.0171872030275,-0.240864302840066,1.16112865663437,2.01758241653442,2.44126818095972,-8.55458738803864,-107.264976501465,-81.716721726262,-0.462379092128037,-5.67979500401174,-3.5472526550293,-2.91398374220774,3.87470702898083,11.9800287871942,-2.69083573226618,0.0681861103341811,-36.4476050912678,31.4026097010757,7.02348221777575,14.502704059898,4.14841489705029,6.38340389486931,-8.06402923502691,-138.138339497009,-3.00999224887211,14.3117401222889,-0.798040796704347,42.1767342211347,-26.5224023279869,-109.351479054821,1143.81604595624,0.211940005911387,0.0279224075354866
102.955,-46.5471992492676,65.6504669189453,51.9364462057238,0.606391224741988,5.3193965076825,1.70109891891479,1.51257623358864,-57.0649674224854,-18.2960319519043,-23.7263437698137,-0.268603345032194,-4.15266767648707,-1.89450550079346,-1.89373302748162,5.73228425740656,5.50558123023299,0.401498741367084,-47.9933510394579,-10.7340774368034,-87.3099097720755,-10.3016091137933,-1.61041373523525,2.11722842574065,58.4926302838478,-77.7927698132092,-86.6601212973123,-31.0984510577364,0.405888992444499,10.9989927018319,112.295987224437,-65.241757697643,-144.460711256665,36.1498741367069,0.0985701972608961,-0.0380718510869412,-1.57981945037842,-26.9059295654297,-16.9813064788499,-0.244218359001767,0.961063303641325,2.01758241653442,2.46857350357258,-8.55458738803864,-107.264976501465,-87.495389755472,-0.438289127381866,-5.84257384544398,-3.5472526550293,-2.90228913692303,3.77183502226812,12.1749441683341,-2.70707868069451,-1.48592315286952,-35.7891975109428,34.9085465120449,7.09116116956043,14.9439708255341,4.70067514361326,6.39677257670331,-7.3889108024094,-143.706395480874,-2.90625306686345,13.6426225241933,-0.575001636670429,37.4486820917998,-27.7352090200445,-124.539990323113,1120.80520234945,0.22223314527875,0.0249853857873405
102.96,-46.5471992492676,65.6504669189453,55.4765207342411,0.622746409046475,5.81868769449852,1.70109891891479,1.5342608202701,-57.0649674224854,-18.2960319519043,-27.1140871559032,-0.223848358594524,-4.36523871911292,-1.89450550079346,-1.92910170165003,5.51570128445105,5.90084515587684,0.745324210933981,-53.2474935315272,-7.95660134843851,-98.1490854093406,-9.5327395598012,-2.59045168785902,2.0955701284451,61.4739884918159,-83.818990495907,-98.1376819320235,-21.7945514160291,5.57558686678616,13.1549248318471,182.916924297904,-96.4351186425461,-58.2241386522404,70.532421093397,0.192321407100148,-0.0742824116762986,-1.57981945037842,-26.9059295654297,-19.9455670983982,-0.247572575101295,0.760988410552293,2.01758241653442,2.49206940248726,-8.55458738803864,-107.264976501465,-93.2743333398786,-0.414198013908179,-6.00536044896869,-3.5472526550293,-2.89519560793404,3.66895811011424,12.3698688439941,-2.72332240366617,-3.04010652361521,-35.1307585345194,38.414650503254,7.15884334860903,15.385258632931,5.25296172464986,6.41014189602155,-6.71376017683815,-149.274716976922,-2.80250893806246,12.9734730192931,-0.351951841036872,32.7204045057805,-28.9480735446657,-139.729225854019,1097.79326147292,0.232526775473415,0.0220482239876112
102.965,-46.5471992492676,65.6504669189453,59.0165952627583,0.639101593350962,6.31797888131454,1.70109891891479,1.55816875006221,-57.0649674224854,-18.2960319519043,-30.5018305419927,-0.179093372156854,-4.57780976173876,-1.89450550079346,-1.96240671608768,5.29911831149553,6.29610908152069,1.08914968050088,-58.5016360235965,-5.17912526007363,-108.988261046606,-8.76387000580906,-3.57048964048279,2.07391183114955,64.455346699784,-89.8452111786048,-109.615242566735,-12.4906517743218,10.7452847411278,15.3108569618623,253.537861371371,-127.628479587449,28.0124339521843,104.914968050087,0.286072616939401,-0.110492972265656,-1.57981945037842,-26.9059295654297,-22.9098277179465,-0.250926791200823,0.560913517463261,2.01758241653442,2.51099512597324,-8.55458738803864,-107.264976501465,-99.0532769242852,-0.390106900434492,-6.16814705249341,-3.5472526550293,-2.8931061305917,3.56608119796037,12.564793519654,-2.73956612663784,-4.59428989436091,-34.4723195580959,41.9207544944631,7.22652552765763,15.8265464403279,5.80524830568646,6.42351121533979,-6.03860955126691,-154.84303847297,-2.69876480926147,12.3043235143929,-0.128902045403315,27.9921269197611,-30.1609380692869,-154.918461384924,1074.7813205964,0.242820405668081,0.019111062187882
102.97,-45.8679338035197,68.1046522034701,62.3076982784487,0.655070029389263,6.76463344877219,2.02328172437813,1.90627157822485,-56.9517567633979,-13.4577818518206,-31.082747193932,-0.135350255717439,-4.72101592148774,-2.09640671094892,-2.19490823602476,5.28020640318989,6.95557444978696,1.30511356084594,-63.6730636791099,-1.0495709344464,-118.728045168554,-8.27390915132323,-3.07905085805871,1.70328994175365,67.1123852048757,-93.7534517564879,-112.88545848795,-6.51445341110229,14.0659503936768,16.6956825256348,298.899993896484,-147.664993286133,83.4049987792969,127,0.346292078495026,-0.133752197027206,-1.8724585208227,-31.1832235563044,-25.9525265033813,-0.252716021254391,0.376618265449834,1.98407540718947,2.49118091480497,-9.65892629035219,-113.084901050884,-104.566375493388,-0.3575347883191,-6.27571405216052,-3.74313978658439,-3.09217567656078,3.46872678941402,12.8932758688089,-2.72459051639889,-6.75568576407742,-35.4513684683993,47.3206715439362,7.31593252804815,16.2839572338845,6.35545756616241,6.89178600436956,-7.24219702026149,-160.958288390158,-2.66653374180802,12.1354865201322,-0.141749470017358,23.0600388328099,-31.1418105233131,-178.107334866917,1038.89058285446,0.253923602149693,0.01380554235964
102.975,-43.9685264797565,74.9672087084105,65.1520540746355,0.670345943099865,7.1168051835886,2.92419076386841,2.83479073482513,-56.6351895710801,0.0712556280402037,-26.6223062433266,-0.0934187602953642,-4.73965259709344,-2.66097633486632,-2.7868503912783,5.6163355615496,8.08966876457788,1.29144977392075,-68.6966139832112,5.5090467896457,-126.494474181342,-8.28484018086339,0.0554218625803014,0.705833496214649,69.1872565527752,-93.8580387675202,-101.414625019888,-6.51445341110229,14.0659503936768,16.6956825256348,298.899993896484,-147.664993286133,83.4049987792969,127,0.346292078495026,-0.133752197027206,-2.69075539887036,-43.143678166521,-29.1365163863417,-0.251694566268614,0.220640780060066,1.8903808738585,2.40540722122263,-12.7469523515948,-129.358962070938,-109.602716048812,-0.309725328895106,-6.28411362295213,-4.29089244298084,-3.64850161558357,3.38127855309279,13.4616894048969,-2.6535388243879,-10.008004429728,-39.3716944948371,56.1228493433993,7.44437212514496,16.7703880484214,6.90200904317009,8.17719410770243,-11.8204090838381,-168.056710042159,-2.76274537013392,12.8652549917156,-0.578301468148738,17.7612222997068,-31.7061250692685,-215.667716577251,979.863023337633,0.266482368051029,0.00424542832847453
102.98,-42.0692097247194,81.8294379886463,67.9962742444731,0.685621128414811,7.46896012593244,3.8250568456513,3.76453034915279,-56.318637473517,13.5996480078876,-22.1620779782521,-0.0514892642770387,-4.75828838405354,-3.22551903862236,-3.37514925496761,5.95244869238888,9.22370900277549,1.27778663852077,-73.7199247512501,12.0673517816319,-134.260532870413,-8.29577068918337,3.18974512333372,-0.291575387983252,71.2620289653635,-93.9626207915694,-89.9443385112697,-6.51445341110229,14.0659503936768,16.6956825256348,298.899993896484,-147.664993286133,83.4049987792969,127,0.346292078495026,-0.133752197027206,-3.5090132583753,-55.1035624708722,-32.3203544483082,-0.250673159988492,0.0646707320861581,1.79669080812878,2.31347253801264,-15.8348311676505,-145.632247101053,-114.6388164583,-0.26191814915161,-6.29251279323017,-4.83861898109308,-4.21015744977136,3.29383448653298,14.0300758375357,-2.58249052030805,-13.2601680162891,-43.2918335898412,64.9246074319241,7.57280559790469,17.2567956686603,7.44853445916894,9.46254091940343,-16.3984028462483,-175.154793222786,-2.85895241083688,13.5949886660231,-1.01483265033514,12.4626584280824,-32.2704127072253,-253.22630731001,920.838278409757,0.279040535117448,-0.00531422985136383
102.985,-40.1698024009563,88.6919944935867,70.84063004066,0.700897042125413,7.82113186074886,4.72596588514158,4.69505777380745,-56.0020702811992,27.1286854877484,-17.7016370276467,-0.00955776885496424,-4.77692505965924,-3.79008866253975,-3.95961545632965,6.28857785074859,10.3578033175664,1.26412285159558,-78.7434750553515,18.625969505724,-142.026961883201,-8.30670171872353,6.32421784397272,-1.28903183352225,73.336900313263,-94.0672078026017,-78.4735050432074,-6.51445341110229,14.0659503936768,16.6956825256348,298.899993896484,-147.664993286133,83.4049987792969,127,0.346292078495026,-0.133752197027206,-4.32731013642296,-67.0640170810889,-35.5043443312686,-0.249651705002716,-0.091306753303609,1.7029962747978,2.21513685119078,-18.9228572288931,-161.906308121108,-119.675157013724,-0.214108689727616,-6.30091236402179,-5.38637163748953,-4.77701076520352,3.20638625021175,14.5984893736236,-2.51143882829705,-16.5124866819397,-47.212159616279,73.7267852313872,7.7012451950015,17.7432264831972,7.99508593617661,10.7479490227363,-20.9766149098249,-182.253214874787,-2.95516403916278,14.3247571376065,-1.45138464846652,7.16384189497922,-32.8347272531808,-290.786689020344,861.810718892928,0.291599301018785,-0.0148743438825293
102.99,-39.0367988322658,86.9506918468743,73.1758143592939,0.701970487345224,8.05034455457538,5.39147605192953,5.39033924365608,-55.7489542694483,29.3048880834713,-11.2713834299051,0.058336977882085,-4.66368604930239,-4.09388823268916,-4.27935941664092,6.484873721994,11.0282630780993,1.16133132912622,-79.8727366881725,21.0453397465401,-144.89744660367,-8.84508779204624,8.78038965414468,-1.73231058299099,66.3754077644788,-90.5052768015107,-73.1898331923125,-6.32812940711203,12.5349121512993,11.6131264437115,236.878196746511,-123.052853585908,92.2178202050726,210.67862279872,0.339633196131998,-0.132711935920903,-5.20875625438774,-78.5691579760965,-41.4908013500103,-0.247325720915669,-0.2208842667385,1.51458679016942,2.01563218798131,-21.0739305597486,-172.262456932057,-127.072132537835,-0.185380195954403,-6.20655462985456,-5.62671310361507,-5.04130218925464,2.82327480530252,14.4284546008215,-2.31922730041078,-18.0443290041628,-49.7959132284548,86.4487008248957,7.15557787251689,19.1632053491597,7.75583794430552,13.3378098438117,-30.9528811357046,-187.798802914995,-3.25231930226212,15.4879356312156,-1.63173396996018,3.20074689789136,-36.9166442205841,-322.833776461518,823.317528605305,0.296105505757565,-0.0204086685659515
102.995,-38.234920713178,81.4910963630174,75.2911187403716,0.696906382393315,8.22643592089456,5.95530360202053,5.98344843425225,-55.5232415189564,26.5750903415429,-3.98943245562349,0.137456429192507,-4.49344897981958,-4.28501628056352,-4.48253738713177,6.62075378056523,11.4984080807557,1.02001606821215,-79.3191512643638,21.6760916233646,-145.652335817955,-9.61145132238794,10.9436001865986,-1.93613067084783,55.5083581419554,-85.3586098916772,-70.5795940424752,-6.061272409797,10.3421282942249,4.33378709043038,148.049327673969,-87.802850595189,104.839720836184,330.52483445854,0.330096210478961,-0.131222052978787,-6.1175526309275,-89.8783199017024,-48.6887586413901,-0.244435823276965,-0.3390618317327,1.28523319427322,1.76885042997024,-22.8202449064779,-180.061876089903,-135.489766059443,-0.164895615460189,-6.06778368913719,-5.73422265889119,-5.1771708932108,2.31236578507471,13.9392863899651,-2.07464319498256,-18.8327688501933,-51.8022410068645,100.865407286144,6.31855671171815,20.9867157351855,7.17698889479209,16.4915692279339,-43.2626079233052,-192.673709707686,-3.63633302852539,16.8384925170854,-1.70137713913246,-0.185384172070394,-42.5189784549335,-352.500471971542,793.695675836778,0.297132088777303,-0.0242036187586385
103,-37.4330808297434,76.0317612070017,77.4063222581849,0.69184251891122,8.40251889071524,6.5191042673342,6.57537305231583,-55.2975395310408,23.845422763535,3.29217129612458,0.216572107879845,-4.32322002768702,-4.47613521495094,-4.68201438047164,6.75662736001865,11.9685306656646,0.878707545580598,-78.765592236961,22.3068134242842,-146.407189037141,-10.3777783105052,13.1067075714971,-2.13994104002796,44.641826688878,-80.2121883884291,-67.9694793556909,-5.79442813692395,8.14944899483971,-2.94520516484608,59.2246941950317,-52.554528417124,117.461019621948,450.365331536458,0.320559679574429,-0.129732241078201,-7.02630567367094,-101.186942576787,-55.8863727152757,-0.241546063436164,-0.457233761710451,1.0558905345584,1.51604465902683,-24.566475984356,-187.860923350973,-143.906998206194,-0.144412011724533,-5.92901936538246,-5.84172708782955,-5.31691011923905,1.80148112632985,13.4501415039328,-1.8300707519664,-19.6211711013428,-53.8084731183002,115.281426320992,5.48157546228508,22.8101391714504,6.5981674463205,19.6451782325319,-55.5717477508263,-197.548384052028,-4.02032844400636,18.1889850048583,-1.77101698753566,-3.57135378241599,-48.1210455552835,-382.165752895666,764.075235515932,0.298158622846868,-0.0279983879981407
103.005,-36.635110901479,70.5671366232422,79.4586702524437,0.686623690054478,8.57586288298558,7.07833724857678,7.16090477409115,-55.0712140672034,21.235299950313,10.529532681904,0.295005986498622,-4.14964804914863,-4.66503238339738,-4.87591509830062,6.87769766311557,12.4349311019743,0.735729767362443,-78.1371188204506,22.824693044615,-147.113064961135,-11.121713715239,15.2275090309614,-2.34488026587148,33.9251629059756,-75.1239043852484,-65.4151269637628,-5.53249549865723,5.99712896347046,-10.090217590332,-27.9650001525879,-17.9549999237061,129.850006103516,568,0.311198681592941,-0.128269851207733,-7.94099875658528,-112.4479022254,-63.1501094352603,-0.23864383344865,-0.576550055205084,0.827819629639459,1.25894269849056,-26.3165656236288,-195.622194489623,-152.353142771205,-0.123977343914005,-5.78788727421154,-5.94702929380097,-5.45772382254613,1.28978194333155,12.9557658912081,-1.58339130663231,-20.4624666351079,-55.7204773310097,129.802888512974,4.67652173341918,24.6195718995889,6.01256321672991,22.7918906466728,-67.9476641291591,-202.378709262154,-4.39725589752197,19.5146198272705,-1.83937501907349,-6.89499998092651,-53.6199989318848,-411.285003662109,735,0.299166262149811,-0.0317233093082905
103.01,-36.0450505264633,64.835281430899,78.1623533878828,0.67317555006535,8.60306941565359,7.393164520298,7.49956370374901,-54.8123099822128,24.9906528630044,15.3948876985638,0.336971419923721,-3.79870494248226,-4.73526301679556,-4.94825258277119,6.21105087551066,12.7021407647747,0.50433170885494,-73.525482028326,17.3390218457234,-145.211955103614,-10.6726912921828,15.0925268301654,-2.60933518988005,31.2078341471942,-73.1411726376019,-65.833439150659,-5.53249549865723,5.99712896347046,-10.090217590332,-27.9650001525879,-17.9549999237061,129.850006103516,568,0.311198681592941,-0.128269851207733,-9.1692862421739,-121.144509523659,-73.9122206597123,-0.23508580051511,-0.756428123122304,0.667984237325079,1.06512999704751,-28.2673746341389,-201.354052834514,-162.315349313786,-0.106198440151476,-5.52117544099615,-5.93492048690284,-5.48376862974342,0.73607944618862,12.1844390295165,-1.22527526370406,-24.1150462182509,-52.6154445941293,149.895477132349,5.57181184073984,25.6801463344149,5.06768781115766,25.5636339988716,-83.8435272312171,-204.837568702203,-4.39725589752197,19.5146198272705,-1.83937501907349,-6.89499998092651,-53.6199989318848,-411.285003662109,735,0.299166262149811,-0.0317233093082905
103.015,-35.4549620144786,59.1031529156246,76.8659747085842,0.659726768803036,8.63027724566234,7.70800680452562,7.83517746842631,-54.5533935514073,28.7461848493172,20.2604747191823,0.378938854466241,-3.44774510112957,-4.80549699913435,-5.01825710472317,5.54437229892155,12.9693631694405,0.272922616154575,-68.9136253307704,11.8530890631591,-143.310754591864,-10.2236474575381,14.9575381927569,-2.87380272439476,28.4903758128676,-71.1583463435938,-66.2517712847294,-5.53249549865723,5.99712896347046,-10.090217590332,-27.9650001525879,-17.9549999237061,129.850006103516,568,0.311198681592941,-0.128269851207733,-10.3976322985262,-129.841531518751,-84.6748450743424,-0.231527597917132,-0.936314768506879,0.50814122327629,0.867119698011144,-30.2182766687781,-207.086184502487,-172.278030903171,-0.0884186886037307,-5.25445088965413,-5.92281110259747,-5.51181484171942,0.182350545798485,11.413075387182,-0.867142144048761,-27.7677999742795,-49.510263794079,169.989023864767,6.46714463987812,26.7407713426248,4.12276734929788,28.33550952137,-99.7401483258888,-207.296545392714,-4.39725589752197,19.5146198272705,-1.83937501907349,-6.89499998092651,-53.6199989318848,-411.285003662109,735,0.299166262149811,-0.0317233093082905
103.02,-34.8649016394629,53.3712977232814,75.5696578440233,0.646278628813908,8.65748377833035,8.02283407624683,8.16719190667707,-54.2944894664168,32.5015377620087,25.1258297358421,0.42090428789134,-3.09680199446319,-4.87572763253253,-5.08656404600419,4.87772551131664,13.2365728322408,0.0415245576470723,-64.3019885386457,6.36741786426743,-141.409644734343,-9.77462503448185,14.8225559919608,-3.13825764840333,25.7730470540862,-69.1756145959473,-66.6700834716256,-5.53249549865723,5.99712896347046,-10.090217590332,-27.9650001525879,-17.9549999237061,129.850006103516,568,0.311198681592941,-0.128269851207733,-11.6259197841149,-138.53813881701,-95.4369562987945,-0.227969564983592,-1.1161928364241,0.34830583096191,0.665792662102348,-32.1690856792883,-212.818042847379,-182.240237445751,-0.0706397848412013,-4.98773905643874,-5.91070229569934,-5.54124715764481,-0.371351951344445,10.6417485254903,-0.509026101120509,-31.4203795574225,-46.4052310571986,190.081612484142,7.36243474719878,27.8013457774508,3.17789194372563,31.1072528735688,-115.636011427947,-209.755404832762,-4.39725589752197,19.5146198272705,-1.83937501907349,-6.89499998092651,-53.6199989318848,-411.285003662109,735,0.299166262149811,-0.0317233093082905
103.025,-34.3121520388474,49.9397555637826,73.2362214445406,0.630751199128721,8.6439589497188,8.25442412419519,8.41194629375409,-53.9781346414063,36.132096449917,28.97646708689,0.462545225502966,-2.68893875504093,-4.84514142712563,-5.05306040108517,4.37085752681358,13.077786962144,0.00637161185626471,-59.9808295918153,2.16448373625281,-138.704187338534,-9.33786074697634,13.9923005147189,-3.42289535738737,25.0571465419796,-69.2213685832693,-64.8936072240331,-5.07911788236932,6.25189112037924,-8.89852460014545,-21.6395038164739,-16.2344649237302,125.946270906634,638.639012145338,0.309201736153253,-0.127826216616918,-12.9572592321491,-145.413094098296,-105.666317550375,-0.224746568117058,-1.33250638785602,0.186996595623128,0.460612868551164,-34.2402798173303,-219.5839875932,-191.398596908576,-0.0535715157285006,-4.68083393427974,-5.86607267513288,-5.53897884254678,-0.429096325971736,10.0233517584117,-0.181562919952351,-32.1842686267494,-46.8457618093765,208.75292207782,6.80600725170519,27.9883678592256,2.63821116154063,33.9550513858094,-120.99504188215,-208.762847704488,-5.33393948597866,20.6702008788183,-1.95488366787736,-5.20699612318543,-54.516412158462,-423.729963234857,712.176576485205,0.29866745437179,-0.0325295611215318
103.03,-33.8182166712367,50.1305122627938,69.2701111292087,0.611951802562616,8.56630363805509,8.35492747656795,8.52125112746517,-53.571361594364,39.5657190605165,31.2289434489262,0.503670127730204,-2.19150397627574,-4.65582134149425,-4.86056292649882,4.11562590329371,12.2482841857045,0.280213874591129,-56.1175628623544,-0.0182455543941944,-134.732604719462,-8.92045069601157,12.0674286873399,-3.7392762240422,27.4926129083858,-72.4609983725453,-59.6616215258507,-3.91194601996155,6.9077488655958,-5.83063929481733,-5.35519450335743,-11.8051327994367,115.89652491918,820.491543903243,0.304060815110322,-0.126684127124653,-14.4506921163335,-149.418986805929,-115.055600172776,-0.222051486250806,-1.6061616036641,0.0233865744513429,0.251745946437998,-36.5007678973789,-227.977286406489,-199.290162729807,-0.0376242468966514,-4.31068154734434,-5.77024402111575,-5.48584231064121,0.294059940667876,9.64582164862193,0.0975966682725058,-28.3997770897329,-52.8687817316882,225.184114301849,3.96389677730168,26.7999456122113,2.73658168310558,36.9222503012153,-109.763012359452,-202.336104920898,-7.74533054091667,23.6451198859396,-2.25224824853854,-0.861411922266175,-56.8241315022568,-455.768171828043,653.420129820736,0.297383327449023,-0.0346051696134891
103.035,-33.3242577503684,50.3212780580187,65.3038116903103,0.593151509549199,8.48864462340574,8.45543562143285,8.62596536589246,-53.1645691503903,42.9995054030606,33.4815272200684,0.544796990994217,-1.69404547738377,-4.46649222815387,-4.66853730640921,3.86038210907985,11.4187418545095,0.554069195466413,-52.2541119134128,-2.2010789282652,-130.760832715877,-8.503020740891,10.1424650726438,-4.05567217728645,29.9281954097576,-75.7007826432381,-54.4293863409629,-2.74471850108235,7.56363788532218,-2.76260769769076,10.9298913253908,-7.3755894628919,105.846299710611,1002.35274728061,0.298919648923096,-0.125541983171967,-15.9441962147129,-153.425070534148,-124.445330522163,-0.219356275869848,-1.87982986869329,-0.140231248447645,0.0424899419915281,-38.7613637685715,-236.370985453376,-207.182104859552,-0.0216762176209114,-3.94051150973006,-5.674410797519,-5.4326402903262,1.01725069094044,9.26827353634728,0.376769568193906,-24.6151050896227,-58.8920888610916,241.616090045606,1.12165077714955,25.611466695403,2.83495689545884,39.8895907071994,-98.5304472385703,-195.909055678734,-10.1568365827917,26.6201807517708,-2.54962700899947,3.48437949739329,-59.1319608894135,-487.807908159944,594.660881361089,0.296099139292794,-0.036680877080626
103.04,-32.8303223827577,50.5120347570299,61.3377013749784,0.574352112983094,8.41098931174203,8.55593897380562,8.72595972373395,-52.757796103348,46.4331280136602,35.7340035821046,0.585921893221455,-1.19661069861859,-4.27717214252249,-4.47772262237503,3.60515048555997,10.5892390780699,0.827911458201277,-48.3908451839519,-4.38380821891221,-126.789250096805,-8.08561068992622,8.21759324526484,-4.37205304394129,32.3636617761638,-78.9404124325142,-49.1974006427805,-1.57754663867458,8.21949563053874,0.305277607637359,27.2142006385072,-2.94625733859846,95.7965537231572,1184.20527903852,0.293778727880165,-0.124399893679702,-17.4376290988973,-157.430963241781,-133.834613144564,-0.216661194003595,-2.15348508450137,-0.303841269619431,-0.166157194358382,-41.0218518486202,-244.764284266665,-215.073670680783,-0.00572894878906213,-3.57035912279467,-5.57858214350186,-5.37910568854886,1.74040695758005,8.89074342655747,0.655929156418763,-20.8306135526062,-64.9151087834033,258.047282269634,-1.72045969725396,24.4230444483887,2.93332741702379,42.8567896226052,-87.2984177158725,-189.482312895145,-12.5682276377297,29.5950997588921,-2.84699158966065,7.82996369831255,-61.4396802332082,-519.84611675313,535.90443469662,0.294815012370027,-0.0387564855725833
103.045,-32.3330408722863,52.5248178755721,58.6179303861469,0.565520265327773,8.35643809159005,8.58500988673397,8.74980161579305,-52.2930087525354,49.6548532759627,38.1079597358681,0.622978793757348,-0.621555084080943,-4.00927068230628,-4.21020294290995,3.34603664439926,10.1701604705199,1.0318801432859,-44.7436072355313,-5.86572624840284,-124.992231808082,-8.04620703843548,6.95876173879369,-4.2209727466357,31.6600748940117,-80.5923015505905,-44.3225761340778,-1.48326876011369,9.18838939312202,1.38912943083754,32.9729920543398,-3.19490552741718,91.269982961824,1280.49460257527,0.290519880789278,-0.123538802374724,-18.8572620413488,-155.383671693251,-139.944482059068,-0.214237203518479,-2.42423358142573,-0.578951409564283,-0.484778085667042,-43.2737020422037,-249.035468377475,-221.734939752741,0.00135006299112706,-3.186142518167,-5.35393105352799,-5.19626434893912,3.24370486010261,9.90251912092168,0.922371478361882,-16.5425823732533,-66.6691736917154,268.779457096106,-5.76954545454543,23.4833343014813,2.68982960596381,47.380585825119,-80.4717393435001,-191.537780180219,-15.2030618425052,32.5010187791848,-3.75010280684033,30.6163944771265,-59.9989410040858,-522.552319462688,471.496877722916,0.294475179308785,-0.0423149500549473
103.05,-31.8338084067157,55.6203583124035,56.6391203693063,0.562613241241874,8.31562279500952,8.57162315312977,8.72657456605797,-51.7937762869647,52.7503937127941,40.5539361918643,0.657615085039519,-0.000409714453249888,-3.69468522596387,-3.89847756939768,3.08463512924775,9.99504683415623,1.19430438571014,-41.2250419530771,-6.93100870257418,-124.487789234195,-8.23147218995064,6.09588295091491,-3.79207123148418,29.0908642692455,-81.3004010642456,-39.6603988052338,-2.02666607112203,10.3432605534558,1.29370060821899,32.4755680442653,-6.22386399749802,90.0264219685138,1325.9226328783,0.288379880665408,-0.122844786097837,-20.2329245126576,-149.738862490536,-144.104786868565,-0.211974518826901,-2.69323390465922,-0.920310053266769,-0.867284892750022,-45.5202471691476,-250.856373947303,-227.664483018488,0.00315774189601911,-2.79359614029063,-5.05273220977429,-4.93638168965063,5.21056092070867,11.7399433633459,1.18123511472551,-11.955601452939,-65.8858777695306,276.123639662511,-10.5356818181818,22.6915161196631,2.24316293929713,52.8291922598366,-76.2638736495233,-198.634441235213,-17.9704978194584,35.365707161189,-5.01316720123489,64.3612981246649,-56.3304377196315,-507.825016911418,403.735514086552,0.294696607403273,-0.0467544704646731
103.055,-31.3345521352958,58.7160463597655,54.6602159931116,0.559706078534827,8.27480555215573,8.55823578118055,8.69895426591885,-51.2945200155448,55.8460817601561,43.0000292839989,0.692253027949713,0.620765274428157,-3.380084768646,-3.58972032183852,2.82322114919161,9.81992484751667,1.35673637331784,-37.7063088881957,-7.99634195463089,-123.983322606015,-8.41674617581568,5.23296301674897,-3.36314926420758,26.5215311319323,-82.0085343435539,-34.9979991609385,-2.57008929397582,11.4981867837033,1.19826723508676,31.9781203145775,-9.25296690315513,88.7828016761243,1371.35282941233,0.286239778495851,-0.122150736726854,-21.6086525822914,-144.09378411567,-148.265290061773,-0.209711726239434,-2.96224705514574,-1.26168497462143,-1.24672658153119,-47.7668994223671,-252.677366346828,-233.594309033901,0.0049655069998957,-2.40103104388019,-4.75151900338439,-4.67612331008838,7.17751077064575,13.5774552231581,1.44011109497529,-7.36840180290659,-65.1025444959595,283.468172435514,-15.3020454545454,21.8996601800755,1.79647497337593,58.2780585107973,-72.0558073038993,-205.731440693768,-20.7380657613145,38.2305321455671,-6.2762918247265,98.1078108944982,-52.6617595029715,-493.097012090226,335.970919256462,0.294918046056538,-0.0511942025724777
103.06,-30.8353196697252,61.8115867965969,52.6814059762711,0.556799054448927,8.2339902555752,8.54484904757635,8.66726467175617,-50.7952875499742,58.9416221969875,45.4460057399952,0.726889319231884,1.24191064405585,-3.06549931230359,-3.2843465201754,2.5618196340401,9.64481121115304,1.51916061574208,-34.1877436057415,-9.06162440880223,-123.478880032128,-8.60201132733084,4.37008422887019,-2.93424774905607,23.9523205071661,-82.7166338572089,-30.3358218320945,-3.11348660498416,12.6530579440371,1.10283841246822,31.480696304503,-12.281925373236,87.5392406828141,1416.78085971536,0.284099778371982,-0.121456720449967,-22.9843150536002,-138.448974912955,-152.425594871269,-0.207449041547857,-3.23124737837923,-1.60304361832391,-1.6224926320023,-50.013444549311,-254.498271916656,-239.523852299648,0.00677318590478774,-2.00848466600381,-4.45032015963069,-4.41578956224572,9.14436683125181,15.4148794655823,1.69897473133892,-2.78142088259233,-64.3192485737747,290.812355001918,-20.0681818181818,21.1078419982573,1.34980830670925,63.7266649455148,-67.8479416099225,-212.828101748762,-23.5055017382677,41.0952205275714,-7.53935621912106,131.852714542037,-48.9932562185172,-478.369709538956,268.209555620099,0.295139474151026,-0.0556337229822035
103.065,-30.2532720986033,60.8745293572177,52.3895375263487,0.555115806375875,8.3106260005706,8.51574874443837,8.61621039575599,-50.0506686746175,63.5954188248596,48.5795988013327,0.759964613281611,1.92040442242909,-2.60272113071591,-2.83439469063131,2.60396720626377,10.4046416411618,1.70105104662167,-30.7885443777213,-4.49103273986605,-124.575964310324,-9.34890347480858,4.73754563221359,-2.35017613727154,18.8169482255998,-80.2293585791748,-25.9861614342032,-3.28102705293957,12.618382123332,1.61587884792081,38.0254287749266,-11.364293941995,87.8380198989606,1453.84538515432,0.281186179158326,-0.121918213316343,-24.3438890603061,-131.599533439844,-152.006853818921,-0.208250040024238,-3.4265815487786,-1.85935136538576,-1.90912877047094,-52.6636222845114,-254.687026237453,-243.709252548266,0.00816958606917228,-1.66685553732771,-4.24861855065384,-4.25526627671838,10.4276519537348,16.5903554703345,1.52321078702506,-2.38201862026486,-52.8798572121622,290.40875719679,-21.7388669690377,20.0276487579434,1.49335361431713,66.9341352857707,-76.5553728521922,-223.298558540267,-22.2560670854232,41.3539595586184,-6.68600707347952,132.503815793891,-60.3223008554222,-402.28671580526,206.976301977703,0.242928484866467,-0.0469247086999601
103.07,-29.6335359999087,58.100365074279,52.8662265662723,0.553990203291467,8.44076479950543,8.47949166936005,8.55485370860779,-49.1943082823979,68.9588031707609,52.0262389062847,0.792326452228075,2.62497791077093,-2.07246139233142,-2.32066719047037,2.78440281721304,11.590361370257,1.89179726391091,-27.4439618890496,2.64683455042,-126.402596421169,-10.3516099413695,5.66550020280985,-1.69545263468417,12.5128398430511,-76.2865063399129,-21.7791794646276,-3.27732291528093,12.0417746183043,2.40609024183699,47.7779742940398,-8.64873785217224,88.8394380903749,1487.09709060069,0.277920345711873,-0.122906101277354,-25.6960391181181,-124.201760707613,-149.502019048077,-0.210446736398731,-3.58834131874948,-2.07689381585571,-2.15266994940682,-55.4975031195772,-254.132191610932,-247.09976522299,0.00937851885065455,-1.34844701198859,-4.09225991437857,-4.14091899865048,11.3994266012758,17.4641793576459,1.14945130720157,-3.89042214036989,-36.5865533663019,286.47545181525,-21.9992097791216,18.8161525129983,1.90577786791547,69.1203657041507,-91.1461537375964,-235.305323268867,-19.1767122924247,40.4254616186275,-4.86852098116591,118.077989642461,-78.4831455694486,-298.256562581856,148.721376156938,0.166833946394874,-0.0322260863733105
103.075,-29.0137703491614,55.3260685055988,53.3429383370642,0.552864546532791,8.57090980409564,8.44323286536679,8.49093085576689,-48.3379070547202,74.3224432690988,55.4730433639192,0.824689834345535,3.32958499662782,-1.54217636856529,-1.81054467450463,2.96484703221605,12.7761376402768,2.08255257691409,-24.0992199143024,9.7850422091811,-128.22931563478,-11.3543642218863,6.59349902282532,-1.04069791167324,6.20843084973603,-72.3434660861434,-17.571996885545,-3.27361860099086,11.4651396178065,3.19633931690304,57.5309848622932,-5.93305227133383,89.8409040343136,1520.35038165124,0.274654356534484,-0.123894036345702,-27.0482536530681,-116.803635213342,-146.997064834441,-0.212643537522468,-3.75010880221853,-2.29444663981526,-2.3918135892657,-58.3315190879621,-253.577330527179,-250.490439573965,0.0105875092799734,-1.03002330337136,-3.93589382215765,-4.02801276941402,12.3712475877921,18.3380449131605,0.775674004695336,-5.39889758854321,-20.2924725759065,282.541958874444,-22.259565003626,17.6045984979781,2.31822178792236,71.3067003727057,-105.737630382902,-247.31266053882,-16.0972106607063,39.4969194033069,-3.05094822221302,103.651475596979,-96.6448562815063,-194.221448691186,90.4636724559657,0.0907357793629608,-0.0175267631443517
103.08,-28.3940342504668,52.5519042226601,53.8196273769878,0.551738943448384,8.70104860303048,8.40697579028846,8.42508999906726,-47.4815466625006,79.6858276150001,58.9196834688712,0.857051673291999,4.03415848496965,-1.0119166301808,-1.30382845411121,3.14528264316532,13.961857369372,2.27329879420333,-20.7546374256307,16.9229094994671,-130.055947745624,-12.3570706884472,7.52145359342158,-0.385974409085873,-0.0956775328126465,-68.4006138468815,-13.3650149159693,-3.26991446333221,10.8885321127788,3.98655071081922,67.2835303814064,-3.21749618151111,90.8423222257279,1553.60208709761,0.27138852308803,-0.124881924306712,-28.4004037108802,-109.405862481111,-144.492230063596,-0.214840233896961,-3.91186857218942,-2.5119890902852,-2.62662894614066,-61.165399923028,-253.022495900658,-253.880952248689,0.0117964420614557,-0.711614778032239,-3.77953518588237,-3.91724556119208,13.3430222353331,19.211868800472,0.401914524871845,-6.90730110864824,-3.99916873004622,278.608653492904,-22.5199078137099,16.393102253033,2.73064604152071,73.4929307910858,-120.328411268306,-259.31942526742,-13.0178558677078,38.568421463316,-1.2334621298994,89.225649445549,-114.805700995533,-90.1912954677817,32.2087466352004,0.0146412408913679,-0.00282814081770212
103.085,-27.9199777486316,50.8080133097439,53.9003579263418,0.539186699069851,8.9165023418297,8.37405210187277,8.36135756920973,-46.657835131256,85.104464944967,63.3652894477012,0.862449440847875,4.67096651425425,-0.468780585393739,-0.787192650250107,3.5046695793968,14.818256718573,2.55033981851451,-19.4031575629635,21.4768817221651,-130.649465054384,-12.6722781532793,9.36551277742509,-0.451850206007191,-3.44291370134175,-56.8118476842228,-8.3859173785982,-3.60497926865907,10.861406079996,3.43118915824423,75.9042758383005,0.964911666931941,87.2717867959675,1573.49276174117,0.268958790095544,-0.123902568463667,-29.4853965955589,-109.79764336456,-139.56024075732,-0.220369834464544,-3.95590453541671,-2.71509202763562,-2.84293356552401,-63.2497266820766,-239.453182935231,-252.578806100586,0.00608935666094422,-0.48974191361477,-3.47144026103505,-3.65758937668423,12.975531822199,19.0384644684267,-0.188628029426054,-8.75398756196312,7.3032959768088,272.185620696274,-21.6782127786698,15.3356765873757,2.98709249785279,73.11452973485,-121.480440496261,-261.600999155256,-12.4253616333008,38.3897705078125,-0.883762240409851,86.4499969482422,-118.300003051758,-70.1750030517578,21,0,0
103.09,-27.480634384652,49.309601928091,53.8867515666505,0.523912232276125,9.1522796764566,8.34192295743508,8.29792503705621,-45.8419114564858,90.5362045852382,68.0488457210356,0.861423033239555,5.29162238003474,0.0774170328608425,-0.269857126288134,3.90668708067268,15.5961866885744,2.84793718958885,-18.5265441242347,25.4151965093955,-130.949189502185,-12.8236873420715,11.4278103489052,-0.689406002215669,-6.08564539162729,-43.4015957777861,-3.22292205196719,-4.02075101132161,10.9651927640304,2.55525496101365,84.2552751935039,5.4967452902929,82.6120368923996,1590.19998257341,0.266728283276884,-0.122454533466848,-30.5067277125784,-112.045258943297,-134.050044767522,-0.226693427224126,-3.97189263395866,-2.91475248447192,-3.05210933371293,-65.1554506212827,-222.783361417961,-250.158662035863,-0.00126538570203792,-0.290870918261837,-3.12719809407592,-3.36534041101603,12.2889694661239,18.6155629411106,-0.830811830165434,-10.6812479897567,17.4165789574381,265.169490342918,-20.5739699017887,14.3149698146558,3.20637477127599,72.1251167727552,-119.430712014528,-261.565547876484,-12.4253616333008,38.3897705078125,-0.883762240409851,86.4499969482422,-118.300003051758,-70.1750030517578,21,0,0
103.095,-27.041311969717,47.8112619946253,53.8731458557461,0.508638493809062,9.3880457686014,8.30979534499932,8.23474978764245,-45.0260266870979,95.967685225908,72.7321786701153,0.860396674573044,5.91224865131466,0.623588606979516,0.24584554205882,4.30868541269903,16.3740795648332,3.14552037043952,-17.6499724847352,29.353323507441,-131.248899658337,-12.9750893112762,13.4900095846248,-0.926950471140331,-8.7282510695301,-29.9919833073548,1.93982708949662,-4.43650292889628,11.0689744992432,1.67936253062444,92.6058763511412,10.0283628239331,77.9525091779365,1606.90640676152,0.264497882814643,-0.121006567516137,-31.5280101298499,-114.292767349825,-128.54011151833,-0.233016718458211,-3.98787997014612,-3.11440342097363,-3.25808765462819,-67.06108369057,-206.11433476153,-247.738633369961,-0.00861977737160203,-0.0920094055998904,-2.78297234148676,-3.07731420190407,11.6024398471439,18.1926815788491,-1.47296500989581,-12.6084165207151,27.529379710193,258.153694537071,-19.469779678106,13.2943117119136,3.4256465887449,71.1357509884672,-117.381081269227,-261.530098288122,-12.4253616333008,38.3897705078125,-0.883762240409851,86.4499969482422,-118.300003051758,-70.1750030517578,21,0,0
103.1,-26.6019686057373,46.3128506129724,53.8595394960548,0.493364027015336,9.6238231032283,8.27766620056163,8.17258311860247,-44.2101030123277,101.399424866179,77.4157349434498,0.859370266964725,6.53290451709515,1.1697862252341,0.760866461761916,4.71070291397491,17.1520095348345,3.44311774151386,-16.7733590460063,33.2916382946714,-131.548624106138,-13.1264985000685,15.5523071561049,-1.16450626734881,-11.3709827598156,-16.5817314009181,7.10282241612762,-4.85227467155882,11.1727611832776,0.803428333393868,100.956875706345,14.5601964472941,73.2927592743686,1623.61362759376,0.262267375995983,-0.119558532519318,-32.5493412468694,-116.540382928562,-123.029915528532,-0.239340311217794,-4.00386806868808,-3.31406387780992,-3.46147023893087,-68.9668076297761,-189.44451324426,-245.318489305238,-0.0159745197345842,0.106861589753042,-2.43873017452764,-2.79402414960755,10.9158774910688,17.7697800515329,-2.11514881063519,-14.5356769485087,37.6426626908223,251.137564183716,-18.3655368012248,12.2736049391936,3.64492886216809,70.1463380263725,-115.331352787494,-261.49464700935,-12.4253616333008,38.3897705078125,-0.883762240409851,86.4499969482422,-118.300003051758,-70.1750030517578,21,0,0
103.105,-26.5918083190918,46.2781982421875,52.849416082447,0.470878935672458,9.72438097159246,8.27692317962646,8.14355462589202,-44.1912339019775,101.525039672852,81.5020671849807,0.834956718500045,6.95566114602841,1.18241763114929,0.742634930882847,5.61134656248245,17.3335286975097,3.20125212209792,-17.1142087390668,36.1238334967718,-129.960361688351,-11.9922087807072,15.717464275676,-1.42335432008545,-6.45316033142968,-14.1560537133157,12.1300735854936,-4.27440818052374,11.0951756428839,0.793100686820899,89.7352374791844,13.2059093914839,63.9387172591968,1639.66190342346,0.259742728112098,-0.117229788656466,-32.5729606246948,-116.592361450195,-120.460043768235,-0.24297465411518,-3.93135393938278,-3.31868124008179,-3.46783888152234,-69.0108795404434,-189.059005737305,-238.204538666256,-0.0168618436107798,0.187875427606411,-2.43076920509338,-2.85215672547644,10.1053887233684,17.9258319186014,-1.82136837371409,-16.2948670596131,44.1435793655255,247.139450305328,-17.6444272303108,10.4074231266513,3.44731654393162,71.576476515866,-95.9624847925858,-247.506735123453,-12.4253616333008,38.3897705078125,-0.883762240409851,86.4499969482422,-118.300003051758,-70.1750030517578,21,0,0
103.11,-26.5918083190918,46.2781982421875,51.8156511138962,0.448222037339553,9.82174246764044,8.27692317962646,8.11773460080014,-44.1912339019775,101.525039672852,85.5744597934363,0.809988294663708,7.37375320534135,1.18241763114929,0.713204073471981,6.52383900163022,17.5009368711001,2.94660306931249,-17.4838981504037,38.929979894636,-128.327324209926,-10.8274251503738,15.8377152172691,-1.68271909607061,-1.35610395937566,-11.9903141697359,17.154356451379,-3.6729893898775,11.0132923813934,0.803265515568754,78.04967506645,11.7122040589749,54.4730826580569,1655.69536230255,0.257210993287642,-0.114880080596412,-32.5729606246948,-116.592361450195,-117.959657870456,-0.246545507222453,-3.85674100627805,-3.31868124008179,-3.46827184414566,-69.0108795404434,-189.059005737305,-230.979116283685,-0.0175960965779538,0.266102986657211,-2.43076920509338,-2.92357319331253,9.2919264714149,18.0955979537917,-1.50541491933218,-18.0501640284015,50.559291669356,243.212591912466,-16.9323530271516,8.52113384675923,3.23982472314349,73.0639669819537,-76.1826458159398,-233.187820049705,-12.4253616333008,38.3897705078125,-0.883762240409851,86.4499969482422,-118.300003051758,-70.1750030517578,21,0,0
103.115,-26.5918083190918,46.2781982421875,50.7819354379722,0.425566219347023,9.91909932123678,8.27692317962646,8.09504963795068,-44.1912339019775,101.525039672852,89.6466582195244,0.785021061387347,7.79182532892764,1.18241763114929,0.686391512696625,7.43628793074371,17.6683370622295,2.69196615886222,-17.8535699339792,41.7359924880752,-126.694364599014,-9.66269705998088,15.9579604249817,-1.94207150486255,3.74070937165357,-9.82467789430145,22.1783997462713,-3.07159927645758,10.9314130243118,0.813429859630896,66.3646698519997,10.2185699502562,45.0078994032169,1671.72805666423,0.254679379182948,-0.112530484576606,-32.5729606246948,-116.592361450195,-115.459391197639,-0.250116190062079,-3.7821316309138,-3.31868124008179,-3.46802458750863,-69.0108795404434,-189.059005737305,-223.754038428217,-0.0183303145340194,0.34432681561269,-2.43076920509338,-3.00024198184975,8.47850300747652,18.2653558940919,-1.18947653044017,-19.8053773000238,56.974698055186,239.285920762519,-16.2203127775592,6.63493451009051,3.03234279610994,74.5513865205922,-56.4037499939274,-218.869587739406,-12.4253616333008,38.3897705078125,-0.883762240409851,86.4499969482422,-118.300003051758,-70.1750030517578,21,0,0
103.12,-26.5918083190918,46.2781982421875,49.7481704694214,0.402909321014119,10.0164608172848,8.27692317962646,8.07611190866946,-44.1912339019775,101.525039672852,93.7190508279799,0.760052637551009,8.20991738824059,1.18241763114929,0.663420852081891,8.34878036989148,17.8357452358199,2.43731710607679,-18.2232593453161,44.5421388859394,-125.061327120588,-8.49791342964753,16.0782113665749,-2.2014362808477,8.8377657437076,-7.65893835072167,27.2026826121567,-2.47018048581134,10.8495297628213,0.823594688378751,54.6791074392653,8.72486461774717,35.542264802077,1687.76151554331,0.252147644358492,-0.110180776516552,-32.5729606246948,-116.592361450195,-112.959005299861,-0.253687043169352,-3.70751869780907,-3.31868124008179,-3.46769152923332,-69.0108795404434,-189.059005737305,-216.528616045647,-0.0190645675011934,0.42255437466349,-2.43076920509338,-3.08180468212943,7.66504075552306,18.4351219292822,-0.873523076058257,-21.5606742688123,63.3904103590164,235.359062369657,-15.5082385743999,4.74864523019844,2.82485097532181,76.0388769866799,-36.6239110172814,-204.550672665658,-12.4253616333008,38.3897705078125,-0.883762240409851,86.4499969482422,-118.300003051758,-70.1750030517578,21,0,0
103.125,-25.6907293929748,50.3864552420511,49.5898529116202,0.383742731313536,9.93342280733967,8.52525360411878,8.30979506798703,-42.3974198585209,107.68742735689,97.5214009712175,0.717274410330448,8.55356618090422,2.11533467677415,1.57843939328776,8.62626379472458,17.6490568862275,2.48642586727372,-17.6706427976615,43.9149275675768,-128.15468725848,-9.59283626960954,15.7912603305785,-2.0237879200277,10.4325989893491,-9.7231440088907,34.2166690494127,-2.22845551838217,10.8626246535277,0.887992774972098,44.7829041659062,6.96724471585391,25.1640770400291,1686.65586183006,0.250602646086653,-0.107772007245172,-34.1707068111808,-112.073278895962,-111.637875946496,-0.253478153963903,-3.60740181762914,-3.45794767229538,-3.60706588958031,-71.4471289995406,-172.762918133145,-206.978835898147,-0.00200918859013426,0.433213596022014,-2.11364453000733,-2.85046718120992,7.23432585242737,18.3425793042015,-0.896882763398843,-24.430496063276,59.7611321587007,228.646964412161,-15.5299482852477,3.55144479635769,1.93784134210916,77.5678459426418,-23.4778199951489,-181.215028925925,-10.3207884477019,34.763906880773,-1.14751958737464,79.0416856722705,-100.029730246423,-29.8935610133619,16.9918963725442,0,0
103.13,-24.4657713817914,55.9713625993557,49.7461345712713,0.365829211196663,9.7855492558612,8.86284261445475,8.63749264768141,-39.9588466998138,116.064791362183,101.226952444783,0.668093102265306,8.87048457741104,3.38357453422178,2.835060018606,8.67556205770275,17.3351047904192,2.64469923788787,-16.7865413953238,42.053830050337,-132.946773120426,-11.499900653239,15.3579545454546,-1.6890786608601,10.7689419141515,-13.3075986074988,41.9461497879662,-2.11597802816491,10.9098526855234,0.971884838332284,35.5291012857164,5.11466792068471,14.4572723782705,1679.39085465433,0.249412151117427,-0.10534185701023,-36.3427385103436,-105.929881000882,-110.740450304345,-0.251910925465594,-3.49811309590744,-3.64727130076388,-3.79738042090626,-74.7590511915537,-150.609450236961,-196.593132419546,0.0214403547412163,0.419591479145975,-1.68253422431571,-2.50838002871012,6.94113091997822,18.1557648339684,-1.04218290691347,-27.7010305987352,52.5217511105735,220.93350000336,-15.8153592814371,2.60180457267283,0.80657593903103,79.1118201307822,-12.7148464014731,-154.637531334637,-7.45975851003541,29.8347818411493,-1.506080492317,68.9705698312335,-75.1924863705248,24.8664313655349,11.5431409907458,0,0
103.135,-23.2408717798209,61.5560036536203,49.9024087790028,0.347916545243443,9.63768275538175,9.20041552766071,8.97031123771523,-37.5203898186749,124.441755912774,104.93232722793,0.618914139294007,9.18738786241699,4.65175391866457,4.09905523928843,8.72485797001037,17.0211676646707,2.80296506161233,-15.9024821492613,40.1928212751112,-137.738630483141,-13.4068741030336,14.9246694214876,-1.3543853615084,11.1052688012405,-16.8918822899044,49.6752619645924,-2.00350590116958,10.9570784655626,1.05577290149872,26.2757396511341,3.2621794612391,3.75097824505768,1672.12619389321,0.248221712914126,-0.102911822651229,-38.5146666413346,-99.7867760391375,-109.843067453804,-0.250343771696853,-3.38882958535881,-3.8365859017849,-3.98891640849581,-78.0708154624247,-128.457038676266,-186.207924158543,0.0448887799367987,0.405970011808219,-1.25144447509489,-2.16825050848449,6.64794996783292,17.9689592715396,-1.18747612213592,-30.9714091865244,45.282715255134,213.220403392786,-16.1007566684812,1.65220963032611,-0.32463552234373,80.6557206981813,-1.95238601462516,-128.061301028185,-4.59886499378502,24.9058918351438,-1.86462430013437,58.8999342074309,-50.3564267995988,79.62381264428,6.09464541990399,0,0
103.14,-22.0159137686375,67.1409110109249,50.0586904386539,0.33000302512657,9.48980920390328,9.53800453799668,9.30857641131426,-35.0818166599679,132.819119918067,108.637878701496,0.569732831228865,9.50430625892381,5.91999377611219,5.37162398946128,8.77415623298854,16.7072155688623,2.96123843222647,-15.0183807469237,38.3317237578714,-142.530716345088,-15.3139384866631,14.4913636363636,-1.01967610234079,11.4416117260428,-20.4763368885125,57.4047427031459,-1.89102841095231,11.0043064975583,1.1396649648589,17.0219367709443,1.40960266606991,-6.9558264167009,1664.86118671747,0.247031217944901,-0.100481672416288,-40.6866983404975,-93.6433781440581,-108.945641811653,-0.248776543198544,-3.2795408636371,-4.0259095302534,-4.18194258734043,-81.3827376544378,-106.303570780082,-175.822220679942,0.0683383232681493,0.39234789493218,-0.820334169403262,-1.82845356308553,6.35475503538377,17.7821448013065,-1.33277626565054,-34.2419437219836,38.0433342070068,205.506938983985,-16.3861676646707,0.702569406641239,-1.45590092542186,82.1996948863217,8.81058757905067,-101.483803436897,-1.73783505611856,19.9767667955202,-2.22318520507672,48.8288183663939,-25.5191829237006,134.383805023177,0.645890038105607,0,0
103.145,-21.2653152789825,70.4178179283391,52.708169020207,0.312494129425872,9.201535414568,9.65918812360866,9.43607023581441,-33.4651336793978,143.57437064977,114.447690308108,0.517933286296691,9.64161970017841,6.53169564083562,5.99714274708058,9.2003289914696,17.0927586388192,2.88038445866906,-14.98856936264,34.622617447519,-150.507690065867,-15.1779825449192,14.2747839802316,-1.0067261208449,11.0045507054616,-12.4754575248829,59.2958461587642,-1.91784691406355,10.9028343445066,1.20721806632619,11.6476059693164,0.93488707176151,-13.7779592876124,1639.9464912396,0.247920639127733,-0.0990356741669746,-41.6663916483947,-90.6489184084717,-106.524110749322,-0.236557401859014,-3.18895096517507,-3.9970888206741,-4.15846346695253,-82.3063775043749,-87.290957986073,-160.995577938327,0.0920986817045427,0.318344145834578,-0.70088026097471,-1.79883792199186,6.77677370171264,17.3931232502202,-1.44718589398143,-36.9062991830831,30.8621029471351,199.502331417085,-15.5963495485075,-0.260376572337402,-1.62401506289348,84.1314622281224,5.87503101389179,-88.248797050447,3.02786226106244,17.2557169934966,-2.37857826231682,32.0305885898771,-14.2923326795907,163.76713762391,0,0,0
103.15,-20.5784715727751,73.3845050899161,55.693094560182,0.295038703425088,8.89436396415069,9.7512744572716,9.5402139721766,-31.958897131063,154.649999074336,120.54081273443,0.465778819189977,9.75478596235181,7.05513449511558,6.54473366757911,9.67720968441528,17.5723958675622,2.76736649097673,-15.073647627991,30.6647765433883,-158.91342268255,-14.7672587111105,14.0873395460102,-1.037048014616,10.4634529378289,-2.91606363003952,60.4018636083278,-1.96340042707025,10.7813583974499,1.2725774374086,6.79472462706109,0.645450797428534,-20.0780217263261,1612.6567868456,0.249089830988152,-0.0977219537558019,-42.4857834389872,-88.0777892546956,-103.897475678032,-0.222905051189507,-3.10087092252721,-3.93892888225539,-4.10735810549205,-82.9088733855508,-68.6997221556139,-145.570882632438,0.115902126249109,0.236215823220509,-0.62333375582923,-1.80763588754296,7.29500243161892,16.9768863448167,-1.55744732587638,-39.4892753191409,23.688303612735,193.727218765056,-14.6618839131978,-1.22516410141825,-1.66260656405673,86.1154873761087,1.0970356317771,-76.8074719260385,8.049971198627,14.8314783351501,-2.5066562058793,14.3267378518575,-4.8953018413981,189.739218243258,0,0,0
103.155,-19.8916606170782,76.3510507920634,58.6778777710734,0.277584109744826,8.5872071604743,9.84335640001647,9.65012280692254,-30.4527324040398,165.725099383872,126.633644624685,0.413626838945132,9.86794682846084,7.57854839045722,7.10332923487485,10.154067638438,18.0520102259434,2.6543539122777,-15.1587218365871,26.7071243594992,-167.318754491842,-14.3565544616922,13.8999040496313,-1.06736846255962,9.92238097115794,6.6428744478148,61.5078283200767,-2.0089517679659,10.6598882426853,1.33793369198467,1.94207468292436,0.356028324176729,-26.3777837615286,1585.36838369632,0.250258967098435,-0.0964082959862663,-43.3051361588287,-85.5067826991054,-101.270965851594,-0.20925335149991,-3.01279507976695,-3.88077171705519,-4.05797049033753,-83.5113405381419,-50.1093728040709,-130.146922816503,0.139704435782968,0.154091416700403,-0.545790948304632,-1.81079847362404,7.8132064510193,16.5606692866813,-1.66770350021688,-42.0721282921175,16.5148463439145,187.952381485554,-13.727462835662,-2.18990562689767,-1.70119622507592,88.0994179205691,-3.68073192297814,-65.3666923540391,13.0718406688571,12.4073552708651,-2.63472804234931,-3.37626872009598,4.50128092170208,215.710060445639,0,0,0
103.16,-19.183894388884,79.1072968912627,61.8950189494681,0.257349973334475,8.30455429265463,9.87828006005144,9.70857398701645,-28.8932398692322,175.12491773638,133.313518125766,0.359458843645051,9.90828804543671,8.08393429680517,7.65544239070664,10.3760910710597,18.3962657508779,2.60708247262962,-14.8432586816314,21.6556461525906,-175.637469684103,-14.0184112270192,14.076574442264,-1.18613974385455,10.0568671723779,14.0897656590695,65.3650416580596,-2.00413713349959,10.5925760830983,1.37322991121729,-3.49223421287485,0.176052405974106,-33.6228961958124,1556.4160942987,0.251794487190604,-0.0948180488843268,-44.0893192206865,-82.4545195194789,-98.312558587862,-0.192409011833636,-2.93851386973007,-3.81321439896209,-4.00084102076832,-83.9475203226332,-31.1584021024186,-113.694887399255,0.163379173897543,0.076219570121539,-0.492138013234056,-1.83001089031431,8.1842056135096,16.1277651828135,-1.80219014666391,-43.4930196929009,10.9917829891794,182.590711795594,-12.6495612993183,-3.21215348068583,-1.79249083350549,90.1313124647749,-8.96623809997427,-48.88672979769,17.0986687969605,9.80094477123212,-2.74298647399149,-11.0235088891024,9.11871726180226,238.967030075064,0,0,0
103.165,-18.414593076243,81.2441453722926,65.7953490964941,0.228939873732232,8.09406588447648,9.74498910776866,9.60435015763088,-27.1771049800882,179.592871397838,141.719709066361,0.299368209566194,9.73432463577258,8.5361715854384,8.16626347290584,9.84813390828341,18.3421162982855,2.75328599462921,-13.3491348971363,13.3861556764366,-183.699721514532,-13.8938674860566,15.3247193245197,-1.56518591200164,12.1793920116495,15.3198272982064,77.3180319340204,-1.85110407494866,10.6846552396751,1.32005742778957,-10.6372543817474,0.318194724677488,-43.64866752921,1522.57268642842,0.254407930378917,-0.0924141408361539,-44.7698559506248,-77.986565858021,-94.3779843418544,-0.166172389930991,-2.90484211019683,-3.71800657590296,-3.91761714161637,-83.8942599205014,-11.1497410411949,-94.2204764693268,0.186674037944779,0.0108769945723454,-0.508799390338301,-1.90951578032295,8.1219337430283,15.6458350547408,-2.00795806651518,-41.4941695293034,10.3266137875809,178.445938881111,-11.1496214625077,-4.4034414377195,-2.03887084280108,92.3039756860765,-15.7449473504352,-17.5803240581351,18.1964860289482,6.65858036766944,-2.79291674541531,10.9232646184282,-0.329008344997185,254.233117141204,0,0,0
103.17,-17.6452550795472,83.3810957487249,69.6958652303661,0.20052841939728,7.88356743918001,9.61169179952039,9.50540473656391,-25.4608882572266,184.061038113212,150.126300855315,0.23927471007157,9.56035293068098,8.98843043896069,8.68904170655166,9.32015156992357,18.2879642635819,2.89949648832886,-11.8549398655007,5.11627087047109,-191.76235779262,-13.7693178062384,16.5729237244371,-1.94425015492666,14.3020180633019,16.5499475927074,89.2715921871055,-1.6980637190319,10.7767387870372,1.2668824088374,-17.7826152601793,0.460343821422866,-53.6749169404929,1488.72766473869,0.257021498189001,-0.0900101181578704,-45.4504251318878,-73.5183991426477,-90.4432224760745,-0.139934516937702,-2.87116874502918,-3.62279421286848,-3.83580886815651,-83.8409969786528,8.85987413099447,-74.7451369040962,0.209970012805236,-0.0544686968309109,-0.525461561938617,-1.97691296466456,8.0596589031192,15.163881945879,-2.21373579838876,-39.4952240507394,9.66141286745673,174.300968323553,-9.64961010121875,-5.59478620119811,-2.28526260070233,94.4767425106026,-22.5239798429566,13.7275745241903,19.2943556102389,3.5160661207801,-2.84284939775903,32.8710846556191,-9.77718446563035,269.499932169151,0,0,0
103.175,-16.8759537669061,85.5179442297548,73.5961953773921,0.172118319795037,7.67307903100185,9.4784008472376,9.41139963334966,-23.7447533680826,188.52899177467,158.532491795909,0.179184075992714,9.38638952101685,9.44066772759392,9.22355479740474,8.79219440714729,18.2338148109895,3.04570001032846,-10.3608160810056,-3.15321960568295,-199.82460962305,-13.6447740652757,17.8210686066928,-2.32329632307375,16.4245429025734,17.7800092318443,101.224582463066,-1.54503066048097,10.8688179436141,1.21370992540968,-24.9276354290519,0.602486140126248,-63.7006882738904,1454.88425686842,0.259634941377314,-0.0876062101096975,-46.1309618618261,-69.0504454811898,-86.5086482300669,-0.113697895035057,-2.83749698549595,-3.52758638980935,-3.75526521872262,-83.787736576521,28.8685351922182,-55.2707259741682,0.233264876852472,-0.119811272380104,-0.542122939042862,-2.03028375715505,7.99738703263791,14.6819518178063,-2.41950371824002,-37.496373887142,8.99624366585824,170.15619540907,-8.14967026440818,-6.78607415823178,-2.53164260999792,96.6494057319042,-29.3026890934176,45.0339802637451,20.3921728422267,0.373701717217422,-2.89277966918285,54.8178581631496,-19.2249100724298,284.766019235291,0,0,0
103.18,-16.5376167297363,86.4577255249023,76.5766784776286,0.135853850019123,7.54391906666538,9.41977977752686,9.39654941691598,-22.9900009918213,190.493988037109,165.363489016619,0.127353791996227,9.09203506207674,9.63956069946289,9.51601854361106,8.31889273047668,17.9295817626196,3.06806830095248,-9.28309252498615,-7.04410789932342,-203.22962739903,-12.4394990073833,19.0605626686891,-2.79793591488033,18.4241122558767,22.8749125315899,108.05715566637,-1.64249050883791,11.4547596330271,1.33563045233961,-31.4821918247849,1.04566121531419,-79.3188670322335,1417.1996386429,0.262439704485327,-0.0850621668124109,-46.4302604293823,-67.08544921875,-83.099819881455,-0.0634852414718393,-2.83914549896094,-3.48571419715881,-3.72914018937095,-83.7643127679825,37.6683006286621,-38.5153377845884,0.247607818860321,-0.114822244924444,-0.549450576305389,-2.05861805892045,7.91234391380966,13.9956476545248,-2.42220550511921,-33.9997882307519,7.80909608127753,162.758617480023,-6.85971414869176,-7.805318194999,-2.84048593607101,95.5762982019442,-32.256449117137,73.9994745699281,21.6498493929678,-1.75993841739739,-2.73679438020317,66.249477938968,-30.1676930940456,292.296366192852,0,0,0
103.185,-16.5376167297363,86.4577255249023,78.8348252262062,0.0934267628594339,7.47861316629318,9.41977977752686,9.4442566617026,-22.9900009918213,190.493988037109,170.957373063807,0.0820123188852349,8.70319832438838,9.63956069946289,9.6201207704427,7.8885360576387,17.4290582409493,2.99322366219805,-8.53233611772717,-7.49744926832211,-202.978412755063,-10.3859492315585,20.2931603131761,-3.34757623073319,20.3269909958139,31.0032944024899,110.869604668947,-1.93657974016897,12.4283350102994,1.5949891369001,-37.5726745175591,1.72511018087425,-99.3257729589749,1376.50286632018,0.265394415576683,-0.0824083334598619,-46.4302604293823,-67.08544921875,-80.1039937662271,0.0055443945879219,-2.86852039163685,-3.48571419715881,-3.74578070886864,-83.7643127679825,37.6683006286621,-23.8958166579435,0.254922254619868,-0.0546231242279712,-0.549450576305389,-2.06254868849675,7.8094325355223,13.1489676786153,-2.26549954272712,-29.3277733578864,6.21229495353056,152.808207559198,-5.73470567241419,-8.68942049028573,-3.19833686511565,91.9553422992413,-32.2073611982009,101.124881069124,23.032908939735,-3.10154539407189,-2.41917803936269,69.4256977243737,-42.2831692600848,293.753493185448,0,0,0
103.19,-16.5376167297363,86.4577255249023,81.0930796542816,0.050997652568413,7.41330415181577,9.41977977752686,9.49525218144351,-22.9900009918213,190.493988037109,176.551523854786,0.036668683670714,8.31434304505976,9.63956069946289,9.73367588091617,7.45815886328658,16.9285108518659,2.91837545448464,-7.78154391072535,-7.95081225485783,-202.727186131951,-8.33230153242175,21.5258167339564,-3.89724275612856,22.2299604743301,39.132063874452,113.68218778287,-2.2306829951151,13.4019568124145,1.85436018895306,-43.6634476343805,2.40459154588906,-119.333632912989,1335.80415337601,0.268349267563136,-0.0797543735595397,-46.4302604293823,-67.08544921875,-77.1080247953359,0.0745773223188509,-2.89789668505153,-3.48571419715881,-3.76311463511435,-83.7643127679825,37.6683006286621,-9.27559840092204,0.26223703916754,0.00557886705744357,-0.549450576305389,-2.04838903126853,7.70651624991635,12.3022473288573,-2.10878610782715,-24.6555357004674,4.61541768248438,142.85732315409,-4.60964355022195,-9.57356494390041,-3.55620485824541,88.3342137316247,-32.1582709385123,128.251581040566,24.416034437556,-4.44321634513849,-2.10154655301933,72.6020689674965,-54.3992231513715,295.210689660997,0,0,0
103.195,-16.5376167297363,86.4577255249023,83.3512264028593,0.00857056540872392,7.34799825144357,9.41977977752686,9.54879124820803,-22.9900009918213,190.493988037109,182.145407901974,-0.00867278944027767,7.92550630737139,9.63956069946289,9.8552867970937,7.0278021904486,16.4279873301956,2.84353081573021,-7.03078750346637,-8.40415362385652,-202.475971487983,-6.278751756597,22.7584143784435,-4.44688307198142,24.1328392142672,47.260445745352,116.494636785447,-2.52477222644616,14.3755321896868,2.11371887351356,-49.7539303271547,3.08404051144912,-139.34053883973,1295.10738105329,0.271303978654492,-0.0771005402069907,-46.4302604293823,-67.08544921875,-74.112198680108,0.143606958378612,-2.92727157772744,-3.48571419715881,-3.78093224615296,-83.7643127679825,37.6683006286621,5.34392272572287,0.269551474927088,0.0657779877539167,-0.549450576305389,-2.01552810262349,7.60360487162899,11.4555673529478,-1.95208014543506,-19.9835208276019,3.01861655473741,132.906913233265,-3.48463507394438,-10.4576672391871,-3.91405578729006,84.7132578289218,-32.1091830195761,155.376987539762,25.7990939843232,-5.78482332181299,-1.78393021217886,75.7782887529022,-66.5146993174107,296.667816653593,0,0,0
103.2,-16.0868603679164,84.1213822018387,84.7955274994621,-0.0291076914317357,7.26542486860402,9.30663692644054,9.49089637055124,-21.9393667166736,185.765674788679,185.947687074047,-0.0545529942918761,7.45990503026554,9.65523706825767,9.99892292676822,6.53392764891424,15.9327716410742,2.75976324294858,-5.81137044071931,-7.84493425899085,-200.470987790532,-3.81838942900534,23.7586211238172,-4.82371866927997,24.9310157281973,55.1147440972988,118.122350757277,-2.67792107493343,15.0954405760258,2.29884751840376,-52.7722178533799,5.04074688444003,-161.733675734663,1248.55571708571,0.274845913341333,-0.0736666242805825,-46.6675001217018,-63.1359169794233,-70.7819165438706,0.208842780689407,-2.97507002928178,-3.46049560162835,-3.77379507102926,-83.023784881784,49.0162531938544,20.07732633583,0.269780647481043,0.180232878999377,-0.580803424802717,-1.99514244299287,7.32842161965704,10.5801950909256,-1.78572889759996,-15.6005827264335,2.68055954172872,121.568080552266,-2.41949870847991,-11.3567037032229,-4.07928972884569,79.4836031672088,-31.9515572996966,182.313516564292,26.6746538988169,-7.0216047857501,-2.0893109072434,78.1232690163375,-71.8884578026526,299.167171595573,0.155060292571488,0,0
103.205,-14.5042701010946,75.9185601981607,84.1959117644785,-0.0548546935902994,7.13950435766385,8.90939622158013,9.14969933558493,-18.250625483772,169.16472767118,185.250370766294,-0.101778345162645,6.80161570269162,9.71027626631482,10.1862765558314,5.88063394815749,15.4509675367661,2.65360301657559,-3.4152880917504,-4.74313340611805,-194.062391662224,-0.336878415389203,24.1750958580496,-4.76655547046376,22.9550039172664,62.2794671940754,116.774764471251,-2.47712417570218,15.1782367732814,2.29754363463843,-48.0753080599005,10.2044894448882,-190.115207934302,1187.30943263976,0.279861851840996,-0.068274391828243,-47.500440618543,-49.2692435170224,-66.6123282671706,0.264540908668534,-3.06912449308559,-3.37195396980695,-3.70336810979836,-80.4238166411231,88.8585289756472,35.0942373904106,0.252217740344183,0.43091208760178,-0.690882210310411,-2.03488064212963,6.62068677717058,9.63291922482835,-1.59518490154591,-11.9442887633505,5.50343355734426,106.744631405981,-1.50488752742047,-12.2930913409743,-3.76080904972678,70.2151668159378,-31.5214050687457,208.771239332079,26.275667932784,-7.99494833791555,-3.95906916146486,78.3805033279399,-60.331963943551,304.28328154473,0.699471709868771,0,0
103.21,-12.9216043686171,67.7153470437507,83.5962674368796,-0.0806029234920399,7.01357784221694,8.51213657433716,8.80830366875265,-14.5617083536202,152.562988939207,184.553021207084,-0.149005947969463,6.14329498465813,9.76531808891053,10.3757436974164,5.22730909515713,14.9691404576784,2.54743772796303,-1.01909148583862,-1.64118464418737,-187.653489940662,3.14479861372517,24.5915904518373,-4.70938954582624,20.9788978804135,69.4445319399435,115.42711392571,-2.27631770149124,15.2610369186653,2.29623968869754,-43.3781742947558,15.3684782378747,-218.498093504414,1126.06022767098,0.284878029525176,-0.062881902247848,-48.3334208340669,-35.4019088237092,-62.4425411640781,0.320241692607222,-3.16318344186692,-3.28340811588684,-3.63272890305355,-77.8237244212413,128.702704632304,50.111864524866,0.234653995721884,0.681603249816724,-0.800966244913785,-2.05675137134161,5.91291818642021,8.68559818797784,-1.40463181942081,-8.28782045026209,8.32644218141986,91.9204754050312,-0.590232733219972,-13.2295236302748,-3.4423131838891,60.946288500223,-31.0912323260294,235.230223733683,25.8766629411459,-8.9683383038692,-5.82891657491833,78.6377499057342,-48.7749190142162,309.399635455069,1.24390908736906,0,0
103.215,-11.3389386361396,59.5121338893406,82.9966231092808,-0.10635115339378,6.88765132677002,8.11487692709419,8.46571204139621,-10.8727912234684,135.961250207235,183.855671647873,-0.196233550776281,5.48497426662464,9.82035991150624,10.5648804082723,4.57398424215677,14.4873133785906,2.44127243935046,1.37710512007317,1.46076411774332,-181.2445882191,6.62647564283954,25.0080850456251,-4.65222362118871,19.0027918435606,76.6095966858115,114.079463380169,-2.0755112272803,15.3438370640492,2.29493574275664,-38.6810405296111,20.5324670308612,-246.880979074527,1064.8110227022,0.289894207209355,-0.057489412667453,-49.1664010495908,-21.5345741303959,-58.2727540609855,0.375942476545911,-3.25724239064826,-3.19486226196674,-3.5616305709242,-75.2236322013595,168.546880288962,65.1294916593214,0.217090251099585,0.932294412031668,-0.911050279517159,-2.06191953595902,5.20514959566984,7.73827715112733,-1.21407873729571,-4.63135213717371,11.1494508054954,77.0963194040819,0.324422060980522,-14.1659559195753,-3.12381731805143,51.6774101845081,-30.6610595833131,261.689208135287,25.4776579495078,-9.94172826982284,-7.69876398837179,78.8949964835286,-37.2178740848815,314.515989365409,1.78834646486936,0,0
103.22,-10.4765921171457,52.4440610326872,79.7912396625425,-0.140041495772443,6.67681117230016,7.91147094405502,8.3147464184161,-8.86219098279325,121.749174282253,177.587063763265,-0.225241055362825,4.79959565589377,9.55226615669781,10.4279769335676,4.16272392638036,13.910086400818,2.47208486707564,3.04283969552376,3.66177762629707,-175.286378727057,9.39384637014317,24.2230669734151,-4.44814953987729,16.3636783937994,79.6620427175642,111.549152970285,-1.85305267570879,15.5682894675034,2.19476575964799,-36.7173829528208,26.9035925372734,-276.086125471743,1004.46607873211,0.294721203939589,-0.0528223399526167,-49.5081312948746,-12.9698141484782,-52.3048975290956,0.437179674718212,-3.34945772615129,-3.15323820627906,-3.53673593596456,-72.9380633118694,192.734971441179,83.392105818447,0.183024379609743,1.22420715930183,-0.867430731799674,-1.89826509524387,4.26976814928426,6.65406620654397,-1.3267653374233,0.0242340755888883,13.2844987881542,61.6148208109268,0.948679959100209,-15.0788279652351,-2.84436221881391,41.6887787497791,-25.0106039662703,284.59622812997,24.2340961553812,-10.0576414949811,-8.26912182979057,91.9366942752846,-9.36458726426575,316.160962471835,1.67234151329243,0,0
103.225,-10.0723436010396,46.0974525834885,74.9282031949126,-0.178786115992168,6.41194451298488,7.83135139558213,8.28382087494583,-7.91894188891647,109.055955338819,167.774319684645,-0.242661771582595,4.09695316797673,9.07861830169194,10.0799820255671,3.90539877300614,13.2721344580777,2.59002556237216,4.24408751798835,5.28991517079454,-169.614371102527,11.7070922801636,22.6737551124744,-4.15061733128833,13.3026474412381,80.0988601075513,108.266404100078,-1.61680477749412,15.8828585281938,2.03170336188714,-36.4922234027176,34.0430248583265,-305.816556442978,944.69158997955,0.299428247063895,-0.048616310819633,-49.537424398863,-7.77713458956141,-45.1928977681905,0.501943134588501,-3.44050760965536,-3.14145591973893,-3.54070107254604,-70.8523714034835,206.966761386224,103.720146863693,0.138459529634757,1.54236202669234,-0.72604328532968,-1.62368034405306,3.189538599182,5.48270066462168,-1.6323389570552,5.31568109520565,14.9821300083315,45.7140059708652,1.38827709611452,-15.9767855316973,-2.58971753578733,31.2415628392537,-16.0393013582772,305.245777474816,22.4532496700014,-9.62815824998181,-8.01297256222532,113.111070522745,28.8562384412333,315.5980620628,1.13624744376278,0,0
103.23,-9.66811436056359,39.751146757237,70.0653986096242,-0.217528888766717,6.14709048320705,7.75123566741958,8.24867705813052,-6.97573777163199,96.3633416413773,157.962043503416,-0.260081657136896,3.39434418389756,8.60499303145886,9.72386140671404,3.64808588957056,12.6342129345603,2.70796063394681,5.44527806180414,6.91797508142091,-163.942633934207,14.0202278885481,21.1245171267894,-3.85309930981594,10.2417624466662,80.5356566689389,104.983811759954,-1.38056814419925,16.1974125894057,1.86864873936937,-36.2670745888127,41.1821167525094,-335.545569789239,884.919951431493,0.304135065744031,-0.0444104822411569,-49.5667161060794,-2.5847026312339,-38.0812371260992,0.566703506367054,-3.53155315166204,-3.12967419500914,-3.5434197041943,-68.7667789463617,221.197872722173,124.047218614593,0.093896804628776,1.86050172362378,-0.584662580584197,-1.33821827211222,2.1093605572597,4.31139097648262,-1.93789800613495,10.6068758047414,16.6796802809968,29.8139493233861,1.82785327198364,-16.8747002811861,-2.33508499488753,20.7948450794012,-7.06842652553714,325.894342194956,20.6724881000558,-9.19869548387079,-7.75683550852939,134.284437120375,67.0752416774539,315.035188494333,0.600178936605317,0,0
103.235,-9.26386584445743,33.4045383080383,65.2023621419943,-0.256273508986442,5.88222382389177,7.67111611894669,8.20840450061853,-6.03248867775521,83.6701226979433,148.149299424796,-0.277502373356666,2.69170169598051,8.131345176453,9.35706318590821,3.39076073619633,11.9962609918201,2.82590132924333,6.64652588426873,8.54611262591837,-158.270626309677,16.3334737985685,19.5752052658487,-3.55556710122698,7.1807314941049,80.972474058926,101.701062889747,-1.14432024598457,16.511981650096,1.70558634160852,-36.0419150387095,48.3215490735625,-365.276000760474,825.145462678937,0.308842108868337,-0.0402044531081733,-49.5960092100678,2.60797692768291,-30.9692373651941,0.631466966237343,-3.62260303516611,-3.11789190846901,-3.54462876696159,-66.6810870379758,235.429662667218,144.375259659839,0.0493319546537899,2.17865659101429,-0.443275134114202,-1.0444052755751,1.02913100715744,3.14002543456033,-2.24347162576684,15.8983228243581,18.377311501174,13.9131344833245,2.26745040899795,-17.7726578476483,-2.08044031186095,10.3476291688758,1.90287608245599,346.543891539802,18.891641614676,-8.76921223887149,-7.50068624096414,155.458813367836,105.296067382953,314.472288085298,0.0640848670756646,0,0
103.24,-9.09565487390567,24.7748541230435,57.8602212106983,-0.279601547922752,5.56930067539966,7.55880779734899,8.13001686434361,-5.50794580610487,68.4640615692933,133.654991842035,-0.267227974888602,2.04876669906612,7.55268517722781,8.87227628858416,3.07143665319092,10.7252046549475,2.844769642096,8.81574923583974,11.4729801636449,-143.557479091532,17.0607311780737,18.4503805070844,-3.72986425222477,5.07183449330703,78.4455515579557,98.6735619284345,-3.38305013241645,16.7843361607669,3.52811490973452,-41.0398172650244,52.1464869542799,-393.46995938699,766.487865363006,0.310190895593211,-0.0370589435076882,-49.5161116848926,6.65088907548927,-23.2996179608628,0.676050233678633,-3.64113662879328,-3.20873146739345,-3.64669649036571,-64.1434802358852,244.83083710958,165.176476352379,-0.0265402759445058,2.41647058958364,-0.160112286324053,-0.603207243246424,0.0843912015809126,2.31078671712541,-1.98666701109488,24.1534588806115,18.4595337494218,-2.74115835996671,1.43523139118866,-17.2599465275177,-1.79482414786305,-0.293307584134152,16.5746770626587,361.171988800342,10.00955056657,-10.1069555099305,-2.19760208181125,146.947089738105,152.250423150602,286.225952402675,1.66937473360629,0,0
103.245,-8.95948343518528,15.8347117191456,50.1810754575143,-0.300837621887302,5.24983557816867,7.44212287466021,8.04065222586885,-5.0402255057419,52.9159888819634,118.524247191875,-0.253192640170491,1.41390382871946,6.95973552757169,8.35816300343418,2.74367720186507,9.3681180011108,2.85018715368818,11.1165195910297,14.5763448287849,-127.61594961015,17.5726860235331,17.3831307234284,-3.96823476227992,3.09210186209701,75.5160823266382,95.6805539809126,-5.95794813171636,17.0509736262478,5.62034121833098,-46.747165644703,55.5215974615115,-421.456826256053,707.97874016765,0.311083778938176,-0.0340572584825051,-49.4213841767864,10.5379073764853,-15.5538708450132,0.717895895013333,-3.64982512898849,-3.31350970732627,-3.76069808198075,-61.5443760201616,253.576630708638,186.043066342386,-0.106667460802617,2.64338896726174,0.142315839518383,-0.139992218004862,-0.84200328067887,1.52795629205792,-1.65349004817689,32.8114449991971,18.3224238881386,-19.4986587231312,0.430282990842518,-16.5556700205365,-1.50498727768236,-10.961123620553,32.0212733862381,374.983299217398,0.162787605021453,-11.6847212365262,3.79103065063939,134.40419387507,200.393140823666,254.219292924203,3.56550379086318,0,0
103.25,-8.82331848947646,6.8949956047005,42.5022958661533,-0.322072683260111,4.93038571387192,7.32544351581479,7.94416805917209,-4.57252750751035,37.3686575675444,103.39422401533,-0.239157974693974,0.779071230300628,6.36681415131102,7.82731065084806,2.41593337897006,8.01109605672735,2.85560440695918,13.417180239451,17.679561517353,-111.675180262732,18.0846164576418,16.315931829043,-4.20659390620356,1.11246362973456,72.5867527801019,92.6876887478647,-8.53272335312197,17.3175983777546,7.71246776408609,-52.4542418830321,58.8965470346163,-449.442358637854,649.472404840939,0.31197661970812,-0.0310557165855417,-49.3266611855364,14.4247403342474,-7.8084930667145,0.759739561037079,-3.65851321489321,-3.41828295115763,-3.87246558184193,-58.9453957365482,262.322007285303,206.90866135862,-0.186790824986265,2.87029652487606,0.44472954479407,0.323052366899446,-1.76835359001846,0.745163194399608,-1.3203289720109,41.4690182822822,18.1853205646135,-36.2553600446991,-0.57461749092646,-15.8514270953076,-1.2151642276843,-21.628430987506,47.4671331755661,388.793951074927,-9.68350583702673,-13.2624117311113,9.77937782936445,121.861896090227,248.533562925602,222.214159607254,5.46154243571032,0,0
103.255,-8.74751835777646,-2.08499603785929,34.6158605686824,-0.340196531686856,4.61361952667371,7.1781161115283,7.80955300397788,-4.24114570299784,20.3092798142206,87.8117142419136,-0.224677824057491,0.16562005957586,5.77185744132314,7.27631256032949,2.2487976190476,6.57214285714288,2.76325000000001,15.8198706643151,21.0273221634333,-95.1422398589065,18.5030714285714,15.143369047619,-4.22134523809522,-0.5949441504997,69.343430335097,88.0624926513815,-10.6219120025635,17.5339393615723,9.41003227233887,-57.0849990844727,61.6350021362305,-472.149993896484,602,0.31270107626915,-0.0286202467978001,-49.1983345921834,18.8273176511129,-0.418776326552301,0.794260333268155,-3.63650770664109,-3.53029819414729,-3.98904372015888,-56.3957331441698,267.17760681879,225.662962717344,-0.256261622270155,3.05367400104728,0.804866576691469,0.840780406841137,-2.51795238095236,0.0485714285714428,-0.9522261904762,49.7148148148148,17.7340681951793,-52.1124485596708,-1.7360476190476,-14.9958928571428,-1.05627380952383,-31.8026014109347,59.982304526749,399.098794826573,-17.6728496551514,-14.5425596237183,14.6383600234985,111.684997558594,287.595001220703,196.244995117188,7,0,0
103.26,-8.93138543419216,-11.235955424291,25.8382263177563,-0.344933493526475,4.30847675092538,6.89899906775226,7.53548696622853,-4.4961864804185,-3.24957287000573,70.2868562828065,-0.208285161962127,-0.355707798506614,5.1682965144515,6.6976897789614,2.77252989130433,4.78114130434784,2.25037228260871,18.6608158883521,25.426097020934,-76.0663647342995,18.5193532608696,13.5178994565217,-3.27428532608695,-1.13097155126139,64.7503455448202,76.4172973698336,-10.6219120025635,17.5339393615723,9.41003227233887,-57.0849990844727,61.6350021362305,-472.149993896484,602,0.31270107626915,-0.0286202467978001,-48.9255007777007,25.4471607508867,5.43926247082133,0.797274310365686,-3.48248496060729,-3.67343523755022,-4.13413646831719,-54.0588459553926,255.30082471267,235.331185416427,-0.279894818653251,3.04976855423773,1.41319875236115,1.60087556085198,-2.50709782608695,-0.277065217391287,-0.433921195652177,56.1873456790123,15.9316760601181,-64.0960111379495,-3.57046739130433,-13.4898233695652,-1.46060597826089,-39.8530629361245,59.8884997316157,394.321450617284,-17.6728496551514,-14.5425596237183,14.6383600234985,111.684997558594,287.595001220703,196.244995117188,7,0,0
103.265,-9.11526127829068,-20.3873511732893,17.0601735062347,-0.349670681247637,4.00331942447486,6.61986871430839,7.25375366298534,-4.75123941943265,-26.8095489557239,52.7611626526318,-0.19189171818434,-0.877060516054926,4.56470680683851,6.09957192685768,3.29628713768114,2.9900543478261,1.73747010869567,21.5018965825729,29.8250816335659,-56.9895799785293,18.5356358695652,11.8923523550724,-2.32718025362319,-1.66702451243512,60.1570417337627,64.7715467883342,-10.6219120025635,17.5339393615723,9.41003227233887,-57.0849990844727,61.6350021362305,-472.149993896484,602,0.31270107626915,-0.0286202467978001,-48.6526539531652,32.0673195172047,11.2975806081786,0.800288431184408,-3.32845487001451,-3.81657910642849,-4.27648347590807,-51.7218473323877,243.423476263406,244.999869143724,-0.30352914198291,3.04586292119736,2.02155993628869,2.3525472528408,-2.49624275362319,-0.602717391304327,0.0844085144927571,62.6601851851852,14.1291979781714,-76.0801451511898,-5.40497463768114,-11.9836820652174,-1.86495742753626,-47.9039083467526,59.7946904634103,389.543878600823,-17.6728496551514,-14.5425596237183,14.6383600234985,111.684997558594,287.595001220703,196.244995117188,7,0,0
103.27,-9.29912835470638,-29.538310559721,8.28253925530868,-0.354407643087256,3.69817664872653,6.34075167053235,6.9645736914837,-5.00628019685331,-50.3684016399502,35.2363046935247,-0.175499056088976,-1.3983883741374,3.96114587996687,5.48205081423187,3.82001940993787,1.19905279503106,1.22459239130437,24.3428418066099,34.2238564910666,-37.9137048539223,18.5519177018634,10.2668827639751,-1.38012034161493,-2.20305191319682,55.5639569434859,53.1263515067863,-10.6219120025635,17.5339393615723,9.41003227233887,-57.0849990844727,61.6350021362305,-472.149993896484,602,0.31270107626915,-0.0286202467978001,-48.3798201386825,38.6871626169785,17.1556194055523,0.80330240828194,-3.1744321239807,-3.95971614983141,-4.41595963991157,-49.3849601436106,231.546694157286,254.668091842806,-0.327162338366005,3.04195747438781,2.62989211195837,3.09333925077847,-2.48538819875778,-0.928354037267057,0.60271350931678,69.1327160493827,12.3268058431102,-88.0637077294686,-7.23939440993787,-10.4776125776398,-2.26928959627332,-55.9543698719424,59.700885668277,384.766534391534,-17.6728496551514,-14.5425596237183,14.6383600234985,111.684997558594,287.595001220703,196.244995117188,7,0,0
103.275,-9.69073254354307,-39.558038268429,-0.944560095976883,-0.357462854345653,3.35720881658639,6.03259168906329,6.639266077194,-5.84276045178065,-79.5900289561916,14.8666198640167,-0.149179884516889,-1.83936637166624,3.36625256285488,4.85427918406911,4.28819480400014,-0.202159217840385,0.846471082959928,25.8696069684939,34.9954525226656,-18.6601454251778,18.1977410410397,9.19489861623978,-0.708745022799866,-2.46913580246911,56.5482395195086,33.0050838298163,-11.304038730365,19.0421307402102,9.83519792435825,-71.2019946339713,61.9119010773,-461.083748792066,570.770779399976,0.311919661914729,-0.0269005958755113,-47.9440518208022,45.9566649093276,22.9841342934334,0.800026169393497,-2.88441478254943,-4.01612704399592,-4.46577087395505,-47.1692138702357,220.273454438124,257.325561000693,-0.353347442214148,2.87101282496288,3.01362075639234,3.59656050633649,-2.28846078031987,-1.53276094984031,0.973813159520099,71.8042011681971,11.2247607301727,-99.0107345124976,-8.39150597264016,-8.89305688791938,-2.2978922953599,-61.9811591995077,56.3540477983185,371.536374708239,-20.9574960152708,-14.9035681992578,15.1197047467623,98.8601979498641,268.765862638641,166.281599571434,6.30601731999947,0,0
