time,hip_angle_l,hip_angle_l_velocity,hip_angle_l_velocity_filt,hip_angle_l_torque_estimated,hip_angle_l_torque_desired,hip_angle_l_torque_measured,hip_angle_l_torque_interaction,knee_angle_l,knee_angle_l_velocity,knee_angle_l_velocity_filt,knee_angle_l_torque_estimated,knee_angle_l_torque_desired,knee_angle_l_torque_measured,knee_angle_l_torque_interaction,thigh_imu_l_accel_x,thigh_imu_l_accel_y,thigh_imu_l_accel_z,thigh_imu_l_gyro_x,thigh_imu_l_gyro_y,thigh_imu_l_gyro_z,shank_imu_l_accel_x,shank_imu_l_accel_y,shank_imu_l_accel_z,shank_imu_l_gyro_x,shank_imu_l_gyro_y,shank_imu_l_gyro_z,foot_imu_l_accel_x,foot_imu_l_accel_y,foot_imu_l_accel_z,foot_imu_l_gyro_x,foot_imu_l_gyro_y,foot_imu_l_gyro_z,insole_l_force_y,insole_l_cop_x,insole_l_cop_z,hip_angle_r,hip_angle_r_velocity,hip_angle_r_velocity_filt,hip_angle_r_torque_estimated,hip_angle_r_torque_desired,hip_angle_r_torque_measured,hip_angle_r_torque_interaction,knee_angle_r,knee_angle_r_velocity,knee_angle_r_velocity_filt,knee_angle_r_torque_estimated,knee_angle_r_torque_desired,knee_angle_r_torque_measured,knee_angle_r_torque_interaction,thigh_imu_r_accel_x,thigh_imu_r_accel_y,thigh_imu_r_accel_z,thigh_imu_r_gyro_x,thigh_imu_r_gyro_y,thigh_imu_r_gyro_z,shank_imu_r_accel_x,shank_imu_r_accel_y,shank_imu_r_accel_z,shank_imu_r_gyro_x,shank_imu_r_gyro_y,shank_imu_r_gyro_z,foot_imu_r_accel_x,foot_imu_r_accel_y,foot_imu_r_accel_z,foot_imu_r_gyro_x,foot_imu_r_gyro_y,foot_imu_r_gyro_z,insole_r_force_y,insole_r_cop_x,insole_r_cop_z
42.265,-12.1525302992496,-18.0118868947421,-16.6232721335035,0.229388256524545,5.48607831407068,5.59961005925137,5.61074026116633,-25.3391038375799,-94.3460544695537,-88.995692366575,0.179568318800994,-0.144438126996245,0.0293154680677486,0.0657955510005893,1.84373314778737,5.95361959365432,1.39980128026717,10.4742440891583,-6.57789858881984,35.3635535489103,-0.854336431950999,7.60697656554411,-1.06578424714724,-2.79747478808245,-50.3017112148794,-132.419087182553,-1.73892022385957,9.19212587014168,1.11938864895072,5.04228511942219,7.60227806253749,-19.7186624209847,794.746629557473,-0.0640293834660894,-0.143570419492046,-30.5285529914408,50.1538763776398,50.9110724822516,0.300505860028557,0.508470492177918,-0.159280604565339,-0.181553190007165,-18.8356170309841,146.025813258378,155.136431236122,-0.230435705232849,-1.08628682714181,0.117027900705315,0.0970318946477308,3.78775018090731,3.87165365989424,-0.296352017812428,21.9834047685314,7.52569461195123,-77.8328295416671,-4.03270403562481,6.43139816309492,1.88766501530753,-41.9928327028206,23.2541861575835,229.366909044679,-17.3264920471811,6.80283158929508,3.98412787449649,97.6004684393883,70.2211276548339,49.260054373992,0,0,0
42.27,-12.3923745863862,-16.8392669028609,-17.2152306255613,0.225999182419716,5.51159445381881,5.39846134187384,5.41039891019663,-26.4515741644375,-96.0212255684407,-90.7473995014885,0.216507885563884,-0.0478019849989376,-0.0958893562473031,-0.0820681118673896,1.95346696354023,6.11004865015308,1.4815179515725,11.4196785931492,-3.48217707270311,36.1360427168053,-1.53842170887836,7.20539749512942,-1.15450520456444,-2.82053416622858,-50.1057065006374,-132.692917298038,-1.68300221705815,9.17535042356921,1.13728240667397,4.10254346064263,7.48787477614851,-19.8575806018884,816.693392708043,-0.0465855511315551,-0.143059647295125,-29.9519038901474,49.6513250479737,51.0825857291087,0.295993021240775,0.681357310300937,-0.0935993855091778,-0.105200292759743,-17.2332513835813,139.325125300266,152.642683026634,-0.233168271222424,-1.21569609098103,0.0739246002104649,0.0982604198735705,3.89047971054828,4.01407414416922,-0.151596771500153,22.7155400246707,7.62081454680398,-78.5476702641969,-3.74319354300027,6.67888293904815,2.02541597550793,-42.9094429841289,26.3556725182368,219.621439355674,-17.9332020647201,6.79556217715961,4.27434230975643,89.1836505824279,77.1588739749219,48.8269561229507,0,0,0
42.275,-12.6322074371177,-15.6667028245785,-17.8071608914846,0.222610269914835,5.53710937689043,5.19732221579505,5.20543719885378,-27.5639914457904,-97.6963167907732,-92.4990231104085,0.253445690951283,0.0488295491335022,-0.221088210467737,-0.255479985456114,2.06319554689676,6.26647024770387,1.56323072641247,12.3650680163418,-0.386603168712847,36.9084950503895,-2.22247436682437,6.80383757305873,-1.24322193153354,-2.84359244484303,-49.9097111324145,-132.966734356585,-1.62708687657405,9.15857577689405,1.15517531117589,3.16284661121167,7.37347694480847,-19.9964921588086,838.639109379349,-0.0291425505647269,-0.142548899453163,-29.3752822849965,49.1487976812739,51.2540907977641,0.29148039763699,0.854235884726736,-0.027921298305918,-0.0193099212359397,-15.6309621411779,132.624756848542,150.149053725606,-0.235900706916082,-1.34509918424691,0.0308233549941052,0.145294663699823,3.99320434177566,4.15648783746174,-0.00684842749792552,23.4476403706796,7.71592994608859,-79.2624769012449,-3.45369685499583,6.92635591427775,2.16316036738102,-43.8260095590534,29.4570109918807,209.876434356241,-18.5398831527332,6.78829311164879,4.56454290683045,80.7672340614325,84.0962894850576,48.3938785231707,0,0,0
42.28,-12.8720517242542,-14.4940828326974,-18.3991193835425,0.219221195810007,5.56262551663857,4.99617349841752,4.99492973826635,-28.676461772648,-99.3714878896601,-94.2507302453219,0.290385257714173,0.145465691130809,-0.346293034782789,-0.430547352617419,2.17292936264962,6.42289930420262,1.64494739771779,13.3105025203327,2.70911834740388,37.6809842182845,-2.90655964375173,6.40225850264405,-1.33194288895074,-2.86665182298916,-49.7137064181725,-133.24056447207,-1.57116886977263,9.14180033032157,1.17306906889914,2.22310495243211,7.25907365841949,-20.1354103397122,860.585872529919,-0.0116987182301926,-0.142038127256243,-28.7986331837031,48.6462463516078,51.4256040446212,0.286967558849208,1.02712270284976,0.0377599207502436,0.0647211343295752,-14.0285964937752,125.92406889043,147.655305516118,-0.238633272905657,-1.47450844808613,-0.0122799455007445,0.192167277687015,4.09593387141663,4.29890832173672,0.137906818814349,24.1797756268189,7.81104988094133,-79.9773176237746,-3.16418636237129,7.17384069023098,2.30091132758142,-44.7426198403617,32.5584973525339,200.130964667237,-19.1465931702722,6.78102369951333,4.85475734209039,72.3504162044722,91.0340358051456,47.9607802721295,0,0,0
42.285,-13.0056734041961,-11.7710696132179,-17.9947019383292,0.210931611193766,5.52234401764619,4.91359939210616,4.90287472025681,-29.6916111842512,-98.2736827490355,-95.2378016419731,0.323500140221134,0.260733682626605,-0.435856100949939,-0.567091302188194,2.45065359093314,6.6376745551706,1.59139526689765,13.1638976067696,6.50088411272272,37.0278486445417,-3.47987844265663,6.21312290798052,-1.30530448059194,-2.99461340095945,-45.8461745359586,-134.160207460186,-1.63071935295436,9.22487801232546,1.11371321633779,1.22437934458546,7.21492250185899,-20.2097670859603,885.470667684538,0.00460004538059859,-0.141004482597345,-28.2715435274512,48.4306755065918,51.2683945619067,0.280348883076733,1.27057985367004,0.0745889889710214,0.118381418153942,-12.723380454,119.114308930653,143.922162440728,-0.237736790325579,-1.61815446628296,-0.0567339880371064,0.233557365720238,4.22016618709259,4.47110752246169,0.218283516354442,24.3410304426218,9.44059045245257,-80.643370169551,-2.88248047448472,7.40517176581124,2.28405308591228,-44.670467010162,36.9691318150809,189.243188634638,-19.8191372110151,6.4117588652469,4.99743510499466,63.0840626475297,93.9115517889734,48.3558543899306,0,0,0
42.29,-13.0595084492617,-7.88312441138403,-16.8417414994512,0.198959915333661,5.43262988069068,4.92009540078812,4.89991265476895,-30.6337348084458,-95.0926381883034,-95.6505368357005,0.353744563881847,0.390008136425523,-0.498651426554888,-0.673225196542557,2.85460073991429,6.89629925421341,1.43622044747197,12.1969057867153,10.8158570456063,35.3036839842564,-3.97003382465206,6.18356579951848,-1.19200223148748,-3.20139152600249,-39.220151970241,-135.565082368567,-1.7770184028477,9.38297547072643,0.996320048538641,0.181259721589317,7.22354328757661,-20.2356294431131,912.564683774737,0.0200399580957587,-0.139577953235935,-27.7816404831356,48.4306755065918,50.8642250053124,0.272147683029514,1.56707200825611,0.0897464814217038,0.148743246029924,-11.6412836337805,112.222041957353,139.257634867908,-0.234113976437344,-1.7725075816171,-0.10220646309522,0.268133235053086,4.36056245228726,4.66569181983675,0.250303717188313,24.0734352219779,12.2229725761936,-81.2728271090203,-2.60661412883906,7.62438698690468,2.15104609783311,-43.85551792911,42.3636081948804,177.496366619325,-20.5411940214267,5.770520746444,5.02929055251282,53.1787371064039,93.7391341954307,49.3731108629904,0,0,0
42.295,-13.113340927331,-3.99536459698107,-15.6888360367528,0.186988790315434,5.34292002154067,4.92659109972334,4.89710528867385,-31.5758135097136,-91.9117453081244,-96.0632523491307,0.383987545409065,0.519276426079209,-0.561443757913909,-0.774996947181989,3.25852862763523,7.15491162135183,1.28105302718892,11.2299600753689,15.130624229256,33.5796015366669,-4.46016583475248,6.15401010041695,-1.0787053849316,-3.40815979132185,-32.594445350669,-136.969890288825,-1.92331047681838,9.54106539062566,0.878932478353823,-0.861810162725588,7.23216366223255,-20.2614905670809,939.657407951142,0.0354791345953593,-0.138151491895188,-27.2917607986828,48.4306755065918,50.4600747205834,0.263946874037036,1.86355002531813,0.104903251123366,0.177374590975493,-10.5592384107773,105.33010362543,134.593329712005,-0.230491335294383,-1.92685333698961,-0.147676769906383,0.295420647480385,4.50095202301954,4.86026683892183,0.282322391214972,23.8058527609764,15.0052220286526,-81.9022540343307,-2.33076093722475,7.84359175524106,2.01804545187621,-43.040607706969,47.7578273518885,165.750104723315,-21.2632164022746,5.1293132035575,5.06114448107964,43.2738838771959,93.5667248232113,50.3903188305919,0,0,0
42.3,-13.1671759723966,-0.107419395147162,-14.5358755978748,0.175017094455329,5.25320588458516,4.9330871084053,4.89457188671198,-32.5179371339082,-88.7307007473923,-96.4759875428581,0.414231969069778,0.648550879878128,-0.624239083518858,-0.871750214226066,3.66247577661638,7.41353632039464,1.12587820776324,10.2629682553146,19.4455971621395,31.8554368763815,-4.9503212167479,6.12445299195491,-0.965403135827141,-3.6149379163649,-25.9684227849515,-138.374765197205,-2.06960952671172,9.69916284902663,0.761539310554672,-1.90492978572173,7.24078444795017,-20.2873529242338,966.751424041341,0.0509190473105194,-0.136724962533777,-26.8018577543672,48.4306755065918,50.0559051639891,0.255745673989817,2.16004217990421,0.120060743574048,0.204177753263463,-9.47714159055775,98.43783665213,129.928802139185,-0.226868521406148,-2.08120645232375,-0.193149244964496,0.314129147003553,4.6413482882142,5.05485113629689,0.314342592048842,23.5382575403324,17.7876041523936,-82.5317109737999,-2.05489459157909,8.0628069763345,1.88503846379705,-42.225658625917,53.1523037316879,154.003282708002,-21.9852732126862,4.4880750847546,5.0929999285978,33.3685583360701,93.3943072296686,51.4075753036518,0,0,0
42.305,-13.1724617777457,2.58305586736079,-12.5354388283227,0.161129567568955,5.13560174765585,5.02209717632059,4.97493240798322,-33.7270309244853,-84.1165731726855,-95.5699097839362,0.438409045518749,0.816027797634544,-0.558231171269972,-0.834082833240427,3.77336550060315,7.58537997587457,1.01837153196623,10.6254002293407,20.4197828709288,29.9376908070113,-5.13086851628468,6.16225572979495,-0.839867310012081,-3.84337815901949,-20.1478651953119,-137.919164842365,-2.14114761352539,9.77647018432617,0.704135775566101,-2.41499996185303,7.24499988555908,-20.2999992370605,980,0.0584689378738403,-0.136027410626411,-25.9792040996759,51.1933209289256,50.1610117204944,0.246683383539154,2.46576275738793,0.261663079171905,0.355502961361827,-8.37092567608929,85.8916911779756,122.946926201172,-0.223664716403735,-2.22047142203146,-0.360455475091503,0.201382577152663,4.54910735826295,5.33427020506633,0.18698431845596,23.2138676674262,19.7949783317696,-83.8903930065973,-1.88424607961401,8.60867310012064,1.94101326899879,-41.0530015339022,61.8645549449731,138.960863155073,-22.4453875607259,3.14727234063879,4.64715560325236,18.2636243523389,89.3777547728167,44.2137805987037,0,0,0
42.31,-13.1312874144231,4.12782715893507,-9.72379729880126,0.145407332330465,4.9912964578833,5.19007987278252,5.13474191450569,-35.1917227133866,-78.1305829219908,-93.4016695663377,0.456782046885603,1.02007934629819,-0.368954948821073,-0.667013167995144,3.60381541462415,7.67419192567309,0.956472294227861,12.2600982952171,18.1969922081823,27.8345121978655,-5.01514385442599,6.26452403562355,-0.702612478505254,-4.09256993735431,-15.0975784877264,-135.683083951441,-2.14114761352539,9.77647018432617,0.704135775566101,-2.41499996185303,7.24499988555908,-20.2999992370605,980,0.0584689378738403,-0.136027410626411,-24.8380379251022,56.6000211712908,50.7534952503473,0.236796200929313,2.78034328237005,0.524283842243622,0.625839928770928,-7.24152503528289,67.9337250457647,113.746742185425,-0.220861595641625,-2.34531033085551,-0.644369811271292,-0.0383712606681759,4.2342286271591,5.69490054667247,-0.0929078869696903,22.8350961643572,21.0608725657105,-85.9470558171206,-1.8142730282576,9.46718861483973,2.17784513512819,-39.5379155216265,73.7526640500659,120.763218222543,-22.6548710915506,1.1368749683662,3.74412044037038,-1.81864161281264,81.6820664839667,29.1615010463148,0,0,0
42.315,-13.0901130511005,5.67259845050934,-6.9121557692798,0.129685097091975,4.84699116811075,5.35806256924445,5.29511860337871,-36.6564145022878,-72.1445926712961,-91.2334293487393,0.475155048252457,1.22413089496184,-0.179678726372175,-0.493385996616569,3.43426532864514,7.76300387547161,0.894573056489489,13.8947963610935,15.9742015454358,25.7313335887197,-4.8994191925673,6.36679234145216,-0.565357646998427,-4.34176171568912,-10.0472917801409,-133.447003060517,-2.14114761352539,9.77647018432617,0.704135775566101,-2.41499996185303,7.24499988555908,-20.2999992370605,980,0.0584689378738403,-0.136027410626411,-23.6968717505286,62.006721413656,51.3459787802002,0.226909018319472,3.09492380735217,0.786904605315338,0.894104108494106,-6.11212439447648,49.9757589135538,104.546558169679,-0.218058474879515,-2.47014923967956,-0.928284147451081,-0.289018588896575,3.91934989605524,6.05553088827862,-0.372800092395341,22.4563246612883,22.3267667996513,-88.0037186276439,-1.74429997690118,10.3257041295588,2.41467700125759,-38.0228295093509,85.6407731551586,102.565573290013,-22.8643546223754,-0.873522403906391,2.8410852774884,-21.9009075779642,73.9863781951167,14.1092214939259,0,0,0
42.32,-13.0489406510796,7.21729608333426,-4.10064830620548,0.113963611530923,4.70269275919313,5.52603725585054,5.45614459017428,-38.1210364508405,-66.1588878483265,-89.0652925185248,0.493527173546386,1.42817271391213,0.00958847088969079,-0.312893539762187,3.26472332725921,7.85181159048328,0.832676770269224,15.5294164802758,13.7515168711817,23.6282552646496,-4.7837000487642,6.46905577085954,-0.428109360162185,-4.59094161190595,-4.99724588347986,-131.211028791798,-2.14114761352539,9.77647018432617,0.704135775566101,-2.41499996185303,7.24499988555908,-20.2999992370605,980,0.0584689378738403,-0.136027410626411,-22.5557599897531,67.4131638503639,51.9384340588834,0.217022307156446,3.40948933230926,1.04951284593984,1.16024463958814,-4.98277760645669,32.0186490642979,95.3468128428513,-0.21525548777756,-2.5949821958568,-1.2121849458502,-0.550748749011043,3.60448617919567,6.41614403408362,-0.652678951826073,22.0775712190388,23.5926006724328,-90.0602833710868,-1.6743302620435,11.184178708005,2.65149757462207,-36.5078157403526,97.5283154040095,84.3687960689518,-23.0738281644756,-2.88382391515608,1.93809317369296,-41.9822159679697,66.2910568568813,-0.942340326270044,0,0,0
42.325,-13.021636134463,5.98497537178139,-1.83270752341441,0.0988223257626049,4.54837007396913,5.48263968025122,5.4065504330006,-38.9682613970195,-66.6365302027505,-85.7626461439962,0.511807166055765,1.71939339434155,0.200156256234334,-0.124028968614414,3.46095647334431,7.80308737688156,0.953825246236873,15.4325031881646,13.6453824623065,22.4940289723908,-4.49882492266673,6.8310385307327,-0.220846847779642,-5.09498789048725,-4.35202082737127,-131.560514727395,-2.14011369096766,9.82609826124944,0.707754478787178,-5.4368605665982,9.00523351027933,-22.0526784495671,1020.14757387106,0.0777625601226207,-0.13539073914249,-21.798381423766,67.4363584549414,53.7267867243603,0.207159601633937,3.63281536786125,1.40121327438866,1.51336701963241,-4.66184249203058,21.9913049456159,83.2916329674009,-0.212386416894827,-2.65545883245105,-1.39367094724102,-0.721073082382925,4.17459068376845,6.83535547415969,-0.440191035812723,22.1332389946604,17.1339417410758,-89.6820475135192,-1.12254054333901,10.6973491839561,2.76043720797794,-35.150272366167,96.0670547590937,64.8238418625624,-23.1167297363281,-3.2955470085144,1.7531543970108,-46.0950012207031,64.7150039672852,-4.02500009536743,0,0,0
42.33,-12.9979047943013,4.03753434671943,0.295106927746319,0.0838313727517109,4.39147498699116,5.38480782578898,5.30337886959182,-39.6564309165544,-68.7787164490347,-82.168015848711,0.530062334537913,2.03304868467517,0.391047568474112,0.0722972237736708,3.75137970309205,7.71894606732848,1.12210786534304,14.8896560297576,14.0843514607714,21.6093891586905,-4.1704023918305,7.25988778587422,0.00443472295925806,-5.66464231597608,-4.84125345161461,-132.575839968119,-2.1388135536553,9.88850459339299,0.712304927024223,-9.2367909342969,11.218692726206,-24.2566381404873,1070.63235960291,0.102023911215693,-0.134590137254301,-21.1398750440344,66.0731482724705,55.8230239568225,0.197303669927555,3.8326301643996,1.77583744489404,1.88735417655991,-4.54912522692984,14.0067965382088,70.5017864129039,-0.209500498811305,-2.69935749523433,-1.54877012611267,-0.87565208052536,4.97257600662674,7.26963320088528,-0.100911561808348,22.3007844139218,8.68630170191504,-88.6767749979507,-0.446695831122291,9.86407879580137,2.83643581015493,-33.8333653707722,91.1680266998897,44.9328496878467,-23.1167297363281,-3.2955470085144,1.7531543970108,-46.0950012207031,64.7150039672852,-4.02500009536743,0,0,0
42.335,-12.9741723225131,2.09000045813045,2.42302284352252,0.0688397048987487,4.23457241848695,5.28697130622472,5.20117879406579,-40.3446332513829,-70.921004845252,-78.5732141438462,0.54831837351591,2.34671893162938,0.581947983346681,0.275698223485589,4.04181678164194,7.63480074550561,1.29039850898878,14.3467829857391,14.5233413914283,20.7247071610307,-3.84196420019933,7.68875749064882,0.229727036226924,-6.2343239053782,-5.33050940486582,-133.591213624524,-2.13751335434602,9.95091390137613,0.716855592248929,-13.0369025012883,13.4322574907099,-26.4607029270009,1121.11955269663,0.126286419208823,-0.133789497189493,-20.4813372634931,64.7098730854609,57.9193611481436,0.187447268242073,4.03245448908618,2.15047947931485,2.2594124896416,-4.43640258691779,6.02190739033118,57.7113299758759,-0.206614443113073,-2.74325825132087,-1.70387670087288,-1.04025118041463,5.7705993813339,7.70393163610006,0.238384090703203,22.4683378225695,0.238258837899036,-87.6714545460646,0.229181108680722,9.030768673233,2.91243803631752,-32.5163955788015,86.2687650310316,25.0409090131942,-23.1167297363281,-3.2955470085144,1.7531543970108,-46.0950012207031,64.7150039672852,-4.02500009536743,0,0,0
42.34,-12.9530754089355,0.423258438889416,4.33101215532613,0.0542808864510778,4.07784029293026,5.18366374009841,5.09462101897018,-41.0356736951484,-73.0619325541313,-75.2370120788792,0.566374310795139,2.66769755884663,0.777733381907149,0.490833813357553,4.27182686613282,7.54741200401679,1.44539485542137,13.8264557439657,14.4566086114266,19.9745333217623,-3.53501429049619,8.08858227978473,0.403924865463353,-6.57423285736494,-6.00446341578937,-134.373571466945,-2.13183526941599,9.99763505632012,0.734108806135272,-16.7622197772913,15.2950996520035,-28.9969499493571,1166.92911398924,0.149001010192589,-0.132992603485428,-19.8310788046561,63.2829511903583,59.9009040945239,0.17748592750186,4.21927739171314,2.51803298793603,2.62261661709724,-4.35060995022159,-1.80738127858692,45.0502243999272,-0.203587255453501,-2.77965250615262,-1.85572295547787,-1.21073915188412,6.48989056827254,8.08550428714883,0.554985709503844,22.3246000933944,-7.25865432512014,-86.4769535351455,0.838991425702279,8.32626541699927,2.97190771686795,-30.8609560629627,81.5476329210054,6.31716541149985,-23.1725762342177,-3.36912369576456,1.59207528038724,-46.1726272005062,64.6950729462054,-6.69680218506655,0,0,0
42.345,-12.9530754089355,1.00442710617521,4.47861328476319,0.0431821421633712,3.92240577722963,5.03649877336105,4.94547604132633,-41.749739012349,-75.1928833015277,-73.970284620677,0.5828355573386,3.04734075301873,1.01272261908105,0.751662457298972,4.01802662409559,7.43401189587249,1.49399490176893,13.4864554197235,10.3399380188868,20.3012002999558,-3.40001416175298,8.25598243942632,0.169024641450169,-5.07423142688483,-8.15779880265636,-133.290237100487,-2.09109593031381,9.91874301712579,0.853093492492734,-19.8901725130788,14.350098750801,-34.1944554209553,1175.29912197132,0.159329388884875,-0.132225368934983,-19.2468431705941,61.3457232381797,60.9640073650078,0.166679938936003,4.3020630569883,2.8289783208811,2.92770119527534,-4.48044027709094,-8.39395927715569,33.4195427919865,-0.199428559914662,-2.75594911981665,-1.98152526575336,-1.36326731933887,6.57899065324305,8.04500424852587,0.689985838247053,19.6879309122616,-7.14198754719391,-83.7669509507448,0.919991502948207,8.65296572855783,2.89900764734661,-26.4942852320096,78.2509631104613,-3.05951019725685,-23.6756744961336,-4.03194598314012,0.140979389567041,-46.8719279085948,64.5155225277843,-30.7659746185588,0,0,0
42.35,-12.9530754089355,1.58556806181369,4.62620737619103,0.0320839270929203,3.76697867305464,4.88934082383552,4.79778453243219,-42.4637702810413,-77.3237324396,-72.7036175633644,0.599296018966623,3.42696584480698,1.2477006513514,1.01846837959643,3.76423848391999,7.32061719494296,1.54259263073873,13.1464713075892,6.22346372000483,20.6278517018104,-3.26502047017021,8.42337461698895,-0.0658643819038503,-3.57430152040961,-10.3110315128408,-132.206954390255,-2.05035853377024,9.83985473971094,0.972072505348082,-23.0179760998707,13.4051429097217,-39.3917130618519,1183.66873084945,0.169657275092959,-0.131458170968296,-18.6626353944203,59.408587658114,62.0270599439377,0.155874465628041,4.38484477482567,3.13990882713664,3.23158725434212,-4.61026441330957,-14.9802232103993,21.7894157654691,-0.195270062673341,-2.73224686372036,-2.10732157744453,-1.5226454520343,6.66808648968768,8.00450614105105,0.824979529829822,17.0513874544352,-7.02532633224584,-81.0570775863795,1.00098771789787,8.97965046218813,2.8261110538919,-22.1278226153817,74.9544504937858,-12.4357387015119,-24.1787487690041,-4.69473666540948,-1.31004730919275,-47.5711952721904,64.3359806707984,-54.833999370741,0,0,0
42.355,-12.9530754089355,2.16673672909948,4.77380850562809,0.0209851828052137,3.61154415735401,4.74217585709816,4.65172562523053,-43.1778355982419,-79.4546831869964,-71.4368901051622,0.615757265510084,3.80660903897908,1.4826898885253,1.29064152300988,3.51043824188275,7.20721708679866,1.59119267708629,12.806470983347,2.10679312746501,20.9545186800038,-3.130020341427,8.59077477663053,-0.300764605917035,-2.0743000899295,-12.4643668997078,-131.123620023797,-2.00961919466806,9.7609627005166,1.09105719170555,-26.1459288356583,12.4601420085192,-44.5892185334501,1192.03873883153,0.179985653785245,-0.130690936417851,-18.0783997603583,57.4713597059354,63.0901632144216,0.145068477062185,4.46763044010084,3.45085416008172,3.53470085020963,-4.74009474017892,-21.5668012089681,10.1587341575284,-0.191111367134503,-2.70854347738439,-2.23312388772002,-1.68753630765269,6.75718657465819,7.96400610242809,0.959979658573031,14.4147182733024,-6.90865955431961,-78.3470750019789,1.0819877951438,9.30635077374669,2.75321098437056,-17.7611517844286,71.6577806832418,-21.8124143102686,-24.68184703092,-5.35755895278504,-2.76114320001295,-48.2704959802789,64.1564302523773,-78.9031718042332,0,0,0
42.36,-12.9530754089355,2.5112202167511,4.72929710309818,0.00676182139657863,3.49019790372587,4.654944896698,4.56744559907637,-43.6010926055908,-80.7177886962891,-71.0074875527796,0.632367905259783,4.12394910215668,1.62197804450989,1.47171851794471,3.33273133661154,7.19181046043807,1.6315891819401,12.7185577023902,0.274320215014616,21.406527150008,-3.28723737147967,8.47594099240053,-0.376600357621812,-1.1069140217553,-15.2581913607841,-130.737335607102,-2.00800285176289,9.70522002189033,1.17578920352976,-28.8947530174341,11.9357897782358,-48.5432807622235,1195.97742512293,0.187995555131602,-0.129967780649715,-17.7320983505249,56.3230819702148,63.5067930811694,0.130181129842033,4.5131671087435,3.63516473770142,3.71084781843278,-4.81705071926117,-25.470947265625,1.52908743192357,-0.186222568877548,-2.67996674272797,-2.30769228935242,-1.8052737821317,6.57685292802861,7.94545373267769,1.00523245417972,12.5791652179672,-5.95411623812755,-75.8393599231776,0.977977201609292,9.56817165847117,2.6002436298614,-12.5595925981115,67.6812778357258,-33.4511139809158,-24.7498406698835,-5.55320889639652,-3.70584483513301,-45.4161702569543,61.8143133769677,-96.4316712517156,0,0,0
42.365,-12.9530754089355,2.5112202167511,4.40513752770127,-0.0120114625871935,3.41845701772883,4.654944896698,4.57245162688031,-43.6010926055908,-80.7177886962891,-71.7968621083233,0.649197949879098,4.35063660311772,1.62197804450989,1.51725980070822,3.26576665176576,7.31904336164504,1.66004917299956,12.997577222581,1.76655794521986,22.0410382070343,-3.86983012963791,7.9502682163612,-0.220907465355383,-0.914700574512799,-18.9846520637759,-131.365646230346,-2.06333455913665,9.683167502344,1.2106722381747,-31.0920317389361,12.0236810228896,-50.6878243856895,1193.46624944122,0.192631570999517,-0.129308702186862,-17.7320983505249,56.3230819702148,62.9824517240325,0.109351129603292,4.50448870238968,3.63516473770142,3.70285219764509,-4.81705071926117,-25.470947265625,-2.73320156820211,-0.180270445598677,-2.6442929156001,-2.30769228935242,-1.85106483914132,6.00430487259723,7.95884666964684,0.91985248100135,11.9095183695094,-3.77983079190052,-73.6258050629978,0.60464908359409,9.7355833705856,2.33071077335716,-6.14214363372463,62.7147303763307,-48.3838253392716,-24.1844950144345,-5.06885605834668,-3.91353917622811,-37.3887784335567,56.3240459460897,-104.441484822191,0,0,0
42.37,-12.9530754089355,2.5112202167511,4.08099340908367,-0.0307838514115158,3.34671955252551,4.654944896698,4.57971868225976,-43.6010926055908,-80.7177886962891,-72.5861990244165,0.666027191997715,4.57731329502379,1.62197804450989,1.56562023150117,3.1988051599719,7.44627019605337,1.68850780701195,13.2765834383887,3.25872452161382,22.6755190089082,-4.45239510824446,7.42462050577943,-0.0652219969346651,-0.722496292511913,-22.7109350793414,-131.993926894091,-2.11866362814939,9.66111603431968,1.245553609505,-33.289205688422,12.1115680766582,-52.8322657516872,1190.95519349895,0.197267365810028,-0.1286496551506,-17.7320983505249,56.3230819702148,62.4581353688675,0.0885221225936288,4.49581070984505,3.63516473770142,3.69554998485331,-4.81705071926117,-25.470947265625,-6.99528733120208,-0.174318606132665,-2.60862078949392,-2.30769228935242,-1.89803072365254,5.43178411775975,7.97223896800561,0.834476578964175,11.2399034515709,-1.60564902130987,-71.412355750923,0.231338766843337,9.90298710007025,2.0611907688869,0.274999329853292,57.748419734953,-63.3158246667597,-23.6191763161501,-4.58452631551131,-4.12122361391195,-29.3617693772689,50.8340403055717,-112.450916463734,0,0,0
42.375,-12.9530754089355,2.5112202167511,3.75683383368677,-0.049557135395288,3.27497866652846,4.654944896698,4.58943735612974,-43.6010926055908,-80.7177886962891,-73.3755735799602,0.68285723661703,4.80400079598483,1.62197804450989,1.61580872060025,3.13184047512612,7.57350309726034,1.71696779807141,13.5556029585794,4.75096225181907,23.3100300659346,-5.0349878664027,6.89894772974009,0.0904708953317643,-0.530282845269409,-26.4373957823332,-132.622237517335,-2.17399533552315,9.63906351477336,1.28043664414994,-35.486484409924,12.1994593213121,-54.9768093751532,1188.44401781723,0.201903381677944,-0.127990576687747,-17.7320983505249,56.3230819702148,61.9337940117305,0.0676921223548872,4.48713230349123,3.63516473770142,3.68946988002261,-4.81705071926117,-25.470947265625,-11.2575763313278,-0.168366482853795,-2.57294696236605,-2.30769228935242,-1.94477735151225,4.85923606232837,7.98563190497476,0.749096605785803,10.5702566031131,0.568636424917166,-69.1988008907432,-0.141989351171865,10.0703988121847,1.79165791238266,6.69244829424013,52.781872275558,-78.2485360251155,-23.0538306607012,-4.10017347746147,-4.32891795500705,-21.3343775538714,45.3437728746937,-120.460730034209,0,0,0
42.38,-12.9530754089355,2.5112202167511,3.43268971506916,-0.0683295242196102,3.20324120132514,4.654944896698,4.60177046281804,-43.6010926055908,-80.7177886962891,-74.1649104960534,0.699686478735647,5.03067748789089,1.62197804450989,1.66680063468144,3.06487898333226,7.70072993166867,1.7454264320838,13.8346091743871,6.24312882821303,23.9445108678084,-5.61755284500924,6.37330001915832,0.246156363752482,-0.338078563268524,-30.1636787978987,-133.25051818108,-2.22932440453588,9.61701204674904,1.31531801548023,-37.6836583594099,12.2873463750807,-57.1212507411509,1185.93296187496,0.206539176488455,-0.127331529651485,-17.7320983505249,56.3230819702148,61.4094776565656,0.0468631153452243,4.4784543109466,3.63516473770142,3.68511942113548,-4.81705071926117,-25.470947265625,-15.5196620943277,-0.162414643387783,-2.53727483625987,-2.30769228935242,-1.99000241349709,4.28671530749089,7.99902420333353,0.663720703748628,9.90064168517454,2.74281819550782,-66.9853515786685,-0.515299667922618,10.2378025416693,1.52213790791239,13.1095912578181,47.8155616341803,-93.1805353526036,-22.4885119624168,-3.6158437346261,-4.53660239269088,-13.3073684975835,39.8537672341757,-128.470161675752,0,0,0
42.385,-12.9530754089355,2.5112202167511,3.10853013967226,-0.0871028082033824,3.1315003153281,4.654944896698,4.61683977310023,-43.6010926055908,-80.7177886962891,-74.9542850515971,0.716516523354961,5.25736498885194,1.62197804450989,1.71756201721557,2.99791429848648,7.82796283287564,1.77388642314326,14.1136286945779,7.73536655841827,24.5790219248348,-6.20014560316748,5.84762724311898,0.401849256018911,-0.145865116026019,-33.8901395008905,-133.878828804324,-2.28465611190965,9.59495952720272,1.35020105012517,-39.8809370809119,12.3752376197345,-59.2657943646169,1183.42178619324,0.21117519235637,-0.126672451188633,-17.7320983505249,56.3230819702148,60.8851362994286,0.0260331151064827,4.46977590459277,3.63516473770142,3.6829598091693,-4.81705071926117,-25.470947265625,-19.7819510944534,-0.156462520108912,-2.50160100913199,-2.30769228935242,-2.03253037432476,3.71416725205951,8.01241714030268,0.578340730570256,9.23099483671678,4.91710364173485,-64.7717967184887,-0.88862778593782,10.4052142537838,1.25260505140815,19.5270402222049,42.8490141747853,-108.113246710959,-21.9231663069678,-3.13149089657626,-4.74429673378598,-5.279976674186,34.3634998032976,-136.479975246227,0,0,0
42.39,-12.9507357628063,2.43442180467421,2.834820663137,-0.104416535990328,3.04750846118621,4.58719376707309,4.56696141117729,-44.1134457091931,-80.7945870700864,-75.9293677085471,0.733914074425794,5.50858612485397,1.74054252135348,1.88563704781017,3.11413382908374,8.01667074562588,1.77394439280379,14.0244939468564,8.61196169322712,24.1837241391733,-6.61670027885959,5.71376719340151,0.490000000000009,-0.354184833505662,-34.5067624582934,-135.109367239827,-2.33187811391692,9.56452881198209,1.40173946736982,-40.5518148720926,12.6198081920505,-62.0609417131558,1181.03666356823,0.216387870726527,-0.125565365203984,-17.4326407952246,53.4047423368129,59.6715263431222,0.00857186206450465,4.42015361370468,3.71420772226381,3.76242448588586,-5.12820549079946,-29.1572708411579,-23.6921081930517,-0.14679225769373,-2.45574220217664,-2.34721378163361,-2.11086470680279,3.12133617291648,8.0018036451776,0.4176107496264,9.54429120747507,6.71901418179172,-62.6238974426466,-1.18562990504655,10.3908218710657,1.12354822388782,24.514979207912,38.4063687835274,-120.832217647919,-21.1782939684536,-2.22303203369775,-4.77524132038981,4.79080473192987,27.3176308599086,-145.248328147039,0,0,0
42.395,-12.9453420001789,2.2573726348296,2.62693187082804,-0.119827058703807,2.94751660840676,4.43100197961638,4.43144559288345,-45.2946119495744,-80.9716361516823,-77.146955925435,0.752054284522282,5.7918577834033,2.01387814940271,2.20624651648973,3.46947016672744,8.28564061231452,1.7369301909659,13.4548103465532,8.68507616599332,22.444208974611,-6.81657696878417,6.09131205214793,0.490000000000009,-1.08532956116759,-31.0642893655519,-137.126108113628,-2.36851998846244,9.52315898209158,1.47502324587711,-39.2304079794385,13.0689137657113,-65.7056069004179,1178.81581145795,0.222353819760637,-0.123873388771959,-16.7422787143453,46.6768739415502,57.558104475582,-0.00449420102899285,4.31708322924169,3.89643147429663,3.94794873386933,-5.84553404622444,-37.6556305230392,-27.1430695082448,-0.132267773626686,-2.39658425162688,-2.43832565765002,-2.23623982677332,2.50196519549588,7.959854216428,0.158511336761217,11.1406238628703,8.03507469158318,-60.5614600233669,-1.38303898151526,10.1391252985681,1.17783571991671,27.6375764823015,34.647066308799,-130.663067798607,-20.1990097681105,-0.760902356520185,-4.57548395687351,17.5298590507207,18.2405144471892,-155.007740118017,0,0,0
42.4,-12.9399484947402,2.08033190715407,2.41905299120229,-0.135236846603118,2.84752952350127,4.27481763979403,4.29866086378605,-46.4757218688493,-81.1486767911133,-78.3644860845213,0.770193629645944,6.07511593481651,2.28720074409184,2.52367264709973,3.82478956100199,8.55459765381402,1.69991775406229,12.8851539102591,8.75818715246956,20.704776754697,-7.01644412806361,6.46883890856463,0.490000000000009,-1.81643942593005,-27.621980418962,-139.142752823931,-2.40516011582722,9.48179112482313,1.5483035300215,-37.909064094933,13.5179979248396,-69.3500983004787,1176.59506524374,0.228319484322639,-0.12218149301781,-16.0519495517419,39.9493263487095,55.4447833815431,-0.0175596410983108,4.21401775944513,4.07864653742272,4.13652883978078,-6.5628283975413,-46.1535849808275,-30.5938662725454,-0.117743982125161,-2.33742912188345,-2.52943318921307,-2.35643096011804,1.88262375130898,7.91790678793727,-0.100575721563967,12.736880400935,9.35107244815559,-58.4991209465161,-1.58043864500111,9.88744072762359,1.23212062737531,30.7600248630578,30.8879430874787,-140.493449188559,-19.2197722626083,0.701157602477084,-4.37573611831257,30.2683059379686,9.16383085520274,-164.766686734619,0,0,0
42.405,-12.9345547321128,1.90328273730946,2.21116419889333,-0.150647369316597,2.74753767072182,4.11862585233732,4.16842358714433,-47.6568881092306,-81.3257258727092,-79.5820743014092,0.788333839742433,6.35838759336584,2.56053637214107,2.83707497824539,4.18012589864568,8.82356752050266,1.6629035522244,12.3154703099559,8.83130162523576,18.9652615901346,-7.21632081798819,6.84638376731105,0.490000000000009,-2.54758415359199,-24.1795073262204,-141.159493697732,-2.44180199037274,9.44042129493262,1.62158730852879,-36.5876572022789,13.9671034985004,-72.9947634877408,1174.37421313346,0.234285433356749,-0.120489516585785,-15.3615874708627,33.2214579534468,53.3313615140029,-0.0306257041918083,4.11094737498214,4.26087028945554,4.32824171683754,-7.28015695296628,-54.6519446627089,-34.0448275877385,-0.103219498058117,-2.27827117133368,-2.62054506522948,-2.47103647829004,1.26325277388838,7.87595735918768,-0.35967513442915,14.3332130563302,10.6671329579471,-56.4366835272364,-1.77784772146982,9.63574415512597,1.2864081234042,33.8826221374473,27.1286406127503,-150.324299339246,-18.2404880622652,2.16328727965465,-4.17597875479627,43.0073602567594,0.0867144424832933,-174.526098705597,0,0,0
42.41,-12.9281094648666,1.58967196833015,2.02768780192187,-0.15975600764641,2.63192671212982,3.98572433223015,4.0637662783889,-48.5866845274046,-80.6190532555668,-80.3130405265609,0.805530651394884,6.59826044821081,2.83218039543187,3.14396121623264,4.47892183719935,9.00066511313506,1.63999999999999,12.3439225597212,7.81968755435386,17.704553600135,-7.21486267254872,7.29899032303969,0.42743133627438,-3.55300586626188,-21.4138648633929,-142.203760802689,-2.48439882401553,9.48293765646068,1.73590017733023,-35.5311018801421,14.9567183839048,-76.1782203682188,1170.08486907642,0.238829839247555,-0.119087119385843,-14.8567048363681,28.9053623011293,51.0472066975038,-0.030828137616748,3.99608514922634,4.3861274629157,4.46603594123051,-7.89496859077842,-60.1656085292968,-37.2064145177031,-0.0905574061411347,-2.22466475319573,-2.67442279042162,-2.54263654532086,0.843738615340824,7.87204123381246,-0.460986373986037,15.4482667822702,10.7590627069838,-54.9094467196194,-1.78766080831078,9.48711007542338,0.847890991888424,36.91907097316,24.155540050985,-157.674054177274,-15.9732023375513,8.00159533119768,-4.74850949453768,52.0894693088545,-6.0177513933443,-181.76944939171,0.14220150846734,0,0
42.415,-12.9199564392135,1.05433571989877,1.88381813223308,-0.158635668617144,2.49094613293635,3.89061426794917,3.99882441089591,-49.108537940029,-78.4777092402328,-80.2541440271022,0.821198155467073,6.76771218686658,3.10111234580213,3.44261137644199,4.68597072007967,9.02864469190266,1.63999999999999,13.3433577189922,5.04706098347293,17.2209559424232,-6.88656894834209,7.8735043404013,0.263284474171065,-5.00379883939724,-19.7466043672817,-141.669500533217,-2.53666792448832,9.66163535679287,1.91683161225829,-34.9043592018984,16.8238888051341,-78.6133764305511,1162.43711754661,0.241067162205567,-0.118154633031227,-14.6528557136447,28.5038599424754,48.4856080939826,-0.0101485195311234,3.86206635771089,4.41892403680569,4.51420146018573,-8.34343706769189,-60.8347785340886,-39.8986432027114,-0.0809170306163755,-2.18006366776857,-2.66786347564362,-2.54807866528054,0.74860804753095,7.92986569659886,-0.306166038138594,15.7821794506902,8.86382045795142,-54.2508327667357,-1.49294257862528,9.50576312793512,-0.390671694891138,39.8160512274525,22.4583425570155,-160.997060939551,-11.6147653659665,20.9446700917965,-6.57479995991269,55.2362397799065,-7.29735082055421,-184.929276942596,0.515262558702149,0,0
42.42,-12.9118038023181,0.519024997704676,1.73995532262772,-0.157515383008582,2.3499722760669,3.79550873876568,3.93534451331367,-49.6303664693131,-76.3364673298013,-80.1952503359831,0.83686491247155,6.93715584561874,3.3700314727912,3.73512058853574,4.89300973032587,9.05662293653052,1.63999999999999,14.3427452225719,2.27456661870353,16.7373813439169,-6.55829087804182,8.44799096342678,0.0991454390209305,-6.45452263491612,-18.0794233705267,-141.135265738676,-2.58893453263322,9.84032453634974,2.09775441990068,-34.2776464083905,18.6909701947774,-81.0484163782514,1154.78973068166,0.243304378482148,-0.117222191140008,-14.4490163109824,28.1023767285078,45.9241316342056,0.0105301124960382,3.72805395656315,4.45171904686896,4.56484263007686,-8.7918841604514,-61.5039166310985,-42.5907435151904,-0.0712771147700219,-2.13546470903821,-2.66130447363097,-2.54807823460285,0.653482015796214,7.98768740216311,-0.151353084531083,16.1160761972779,6.96866857904345,-53.5922502182938,-1.19823840187845,9.52441529102035,-1.62917532375125,42.7128933461235,20.7612259898768,-164.319909252144,-7.25653621609509,33.8871276926223,-8.40100334296529,58.3828602046839,-8.57688923310518,-188.088953824611,0.888305820407002,0,0
42.425,-12.9036507766651,-0.0163112507267071,1.59608565293893,-0.156395043979315,2.20899169687344,3.70039867448471,3.8727539349599,-50.1522198819374,-74.1951233144673,-80.1363538365244,0.852532416543739,7.10660758427451,3.63896342316146,4.02101152118742,5.10005861320619,9.08460251529813,1.63999999999999,15.3421803818429,-0.498059952177392,16.2537836862051,-6.22999715383519,9.0225049807884,-0.0650014230823845,-7.90531560805148,-16.4121628744156,-140.601005469204,-2.64120363310601,10.0190222366819,2.27868585482874,-33.6509037301468,20.5581406160067,-83.4835724405837,1147.14197915184,0.24554170144016,-0.116289704785393,-14.245167188259,27.7008743698539,43.3625330306844,0.0312097305816628,3.5940351650477,4.48451562075895,4.61747584439213,-9.24035263736486,-62.1730866358903,-45.2829722001988,-0.0616367392452626,-2.09086362361104,-2.65474515885297,-2.54312920946761,0.55835144798634,8.04551186494951,0.00346725131635936,16.4499888656979,5.07342633001106,-52.9336362654101,-0.903520172192957,9.54306834353209,-2.86773801053081,45.609873600416,19.0640284959073,-167.642916014421,-2.89809924451033,46.8302024532212,-10.2272938083403,61.5296306757359,-9.85648866031508,-191.248781375497,1.26136687064181,0,0
42.43,-12.8954981397697,-0.551621972920801,1.45222284333357,-0.155274758370754,2.06801784000399,3.60529314530121,3.81040929735757,-50.6740484112215,-72.0538814040358,-80.0774601454053,0.868199173548216,7.27605124302666,3.90788255015053,4.29986128340896,5.30709762345239,9.11258075992599,1.63999999999999,16.3415678854226,-3.27055431694679,15.7702090876988,-5.90171908353492,9.59699160381388,-0.229140458232519,-9.35603940357035,-14.7449818776606,-140.066770674664,-2.69347024125091,10.1977114162388,2.45960866247113,-33.0241909366389,22.42522200565,-85.918612388284,1139.49459228689,0.247778917716741,-0.115357262894174,-14.0413277855967,27.2993911558862,40.8010565709074,0.0518883626088244,3.46002276389996,4.51731063082223,4.67149098043935,-9.68879973012437,-62.8422247329002,-47.9750725126778,-0.051996823398909,-2.04626466488068,-2.64818615684032,-2.53392521703516,0.463225416251604,8.10333357051376,0.15828020492387,16.7838856122856,3.17827445110308,-52.2750537169682,-0.608815995446127,9.56172050661732,-4.10624163939092,48.506715719087,17.3669119287686,-170.965764327014,1.46012990536112,59.772660054047,-12.0534971913929,64.6762511005133,-11.136027072866,-194.408458257512,1.63441013234666,0,0
42.435,-12.8876998456904,-1.08566547327798,1.30361911012713,-0.154063818484974,1.92530728360318,3.51070156047285,3.74809126073262,-51.2064174196943,-70.1188448163641,-80.0260906290845,0.883699255212914,7.44550470912447,4.1787835667126,4.57337670272418,5.50220324134909,9.14407358738501,1.64008760402977,17.3341282587888,-5.96818675881312,15.3811964980019,-5.57881734559788,10.195917652212,-0.392584318878655,-10.8342337080839,-13.0716352211461,-139.6257847861,-2.74469256401062,10.3728303909302,2.63691663742065,-32.4099998474121,24.2549991607666,-88.3050003051758,1132,0.249971434473991,-0.114443451166153,-13.8353381359854,26.8745019990417,38.2383022055138,0.0725317299421515,3.32517587738376,4.54898831032892,4.72506173803458,-10.1403498253068,-63.3188563132568,-50.6326079589263,-0.0422854513362395,-2.00106985037164,-2.64356804489306,-2.52327339253796,0.370788436268073,8.18102496714851,0.317358738501973,17.1143016282452,1.19666563921202,-51.6098916846471,-0.271204555409542,9.60636881296538,-5.26388961892246,51.2172471785554,15.6179382770126,-173.987097332403,5.69763818426295,72.0291378758113,-13.8633866349804,65.9344217982984,-11.567661287489,-194.859231782597,2.71397284275077,0.00111082680539713,0.000527545033031736
42.44,-12.8972597499541,-1.55645050120399,0.923361868790702,-0.148419476687183,1.69794317585612,3.44148090352523,3.70986858703962,-52.2533495850131,-78.2791183556339,-80.3430414876496,0.891006800404404,7.61504270471958,4.54603755559377,4.93575302713899,5.11288509271426,9.34748138414366,1.6444619652504,17.9902824418812,-4.99610648756508,19.6205465698336,-5.51976346911957,11.9894057526646,-0.521627974886838,-13.6532664947032,-11.1004724488931,-143.749025269977,-2.74469256401062,10.3728303909302,2.63691663742065,-32.4099998474121,24.2549991607666,-88.3050003051758,1132,0.249971434473991,-0.114443451166153,-13.5246053706595,25.3052188507361,35.6189925591651,0.091401227129719,3.14980754216415,4.52591475801305,4.72376139794283,-10.742693774452,-54.3739409912484,-51.5924875885261,-0.0290999820184986,-1.9268218927894,-2.73393945813022,-2.6052313755947,0.41015768725362,9.23087166009638,0.684805081033731,17.2736147838109,-5.01114698189695,-50.6243102985206,2.16531464447365,10.9230515403708,-2.46211125711782,44.8042176112941,11.3353846375699,-162.246527834107,4.01770243454648,50.6881388239416,-14.8707194124317,-25.2228897424454,29.4944689004747,-62.7469616451478,38.3650167907724,0.0565781119548939,0.0268696270157498
42.445,-12.9068191983764,-2.02721308086432,0.543122759117503,-0.142775404026422,1.47058990942643,3.37226354720021,3.66954669225171,-53.3002318298586,-86.4390027916452,-80.6599772331659,0.89831399715296,7.78457261629812,4.9132740328409,5.29055768357581,4.7235855077905,9.55087948188473,1.64883611789,18.6464053378202,-4.02407256765556,23.8596944983279,-5.46071240848507,13.7828083348977,-0.650665477754834,-16.4721648624408,-9.12940366685438,-147.872069146927,-2.74469256401062,10.3728303909302,2.63691663742065,-32.4099998474121,24.2549991607666,-88.3050003051758,1132,0.249971434473991,-0.114443451166153,-13.2138874218874,23.7360105299695,32.9998078083745,0.110269824570138,2.97444756896701,4.50284230590471,4.72149242912896,-11.3450090022568,-45.429452186278,-52.552321448546,-0.0159151414185394,-1.85257747554463,-2.82430656222123,-2.68592015597767,0.449525061009957,10.2806682935987,1.05223390275953,17.4329203429072,-11.218663598208,-49.6387759075013,4.60171766472686,12.2396714848883,0.339533508541401,38.3914938341132,7.05303520152402,-150.506518156978,2.33784678857546,29.348157366915,-15.8780041576126,-116.375854663337,70.5546411383056,69.3590090325386,74.0143608034541,0.112042752278663,0.0532104529388653
42.45,-12.91637910264,-2.49799810879033,0.16286551778107,-0.13713106222863,1.24322580167938,3.3030428902526,3.62627737642881,-54.3471639951774,-94.599276330915,-80.9769280917309,0.905621542344449,7.95411061189322,5.28052802172207,5.63787794667866,4.33426735915567,9.75428727864338,1.65321047911062,19.3025595209126,-3.05199229640752,28.0990445701596,-5.40165853200675,15.5762964353503,-0.779709133763018,-19.2911976490601,-7.15824089460144,-151.995309630804,-2.74469256401062,10.3728303909302,2.63691663742065,-32.4099998474121,24.2549991607666,-88.3050003051758,1132,0.249971434473991,-0.114443451166153,-12.9031546565616,22.1667273816638,30.3804981620257,0.129139321757706,2.7990792337474,4.47976875358884,4.71737423491432,-11.9473529514019,-36.4845368642695,-53.5122010781458,-0.00272967210079843,-1.77832951796239,-2.91467797545839,-2.76652779772212,0.488894311995504,11.3305149865465,1.41968024529129,17.5922334984728,-17.426476219317,-48.6531945213748,7.03823686461006,13.5563542122938,3.14131187034604,31.9784642668519,2.7704815620813,-138.765948658682,0.65791103885899,8.00715831504523,-16.8853369350639,-207.533166204081,111.616771326269,201.471279169987,109.665404751476,0.16751003742816,0.0795525349215833
42.455,-12.9259385510624,-2.96876068845066,-0.217373591892129,-0.131486989567869,1.01587253524969,3.23382553392757,3.57923770437127,-55.394046240023,-102.759160766926,-81.2938638372472,0.912928739093006,8.12364052347176,5.64776449896921,5.97784477968444,3.94496777423192,9.95768537638445,1.65758463175022,19.9586824168515,-2.079958376498,32.3381924986539,-5.34260747137226,17.3696990175834,-0.908746636631014,-22.1100960167977,-5.1871721125627,-156.118353507753,-2.74469256401062,10.3728303909302,2.63691663742065,-32.4099998474121,24.2549991607666,-88.3050003051758,1132,0.249971434473991,-0.114443451166153,-12.5924367077895,20.5975190608972,27.7613134112351,0.148007919198125,2.62371926055026,4.4566963014805,4.71053298781827,-12.5496681792067,-27.5400480592992,-54.4720349381657,0.0104551684991608,-1.70408510071763,-3.00504507954939,-2.84824513714503,0.528261685751841,12.3803116200488,1.78710906701709,17.7515390575691,-23.6339928356281,-47.6676601303554,9.47463988486327,14.8729741568112,5.94295663600527,25.565740489671,-1.51186787396454,-127.025938981553,-1.02194460711203,-13.3328231419813,-17.8926216802447,-298.686131124972,152.6769435641,333.577249847674,145.314748764157,0.22297467775193,0.105893360844699
42.46,-13.0245842385013,-6.88960326418112,-1.31441127520469,-0.129248859298744,0.770847480216065,3.18308642391571,3.54611354935776,-56.4726756678323,-108.627168136165,-83.1389375492319,0.905417143401552,8.3070817842398,5.94860616428333,6.24435871683669,3.72406703642407,10.4497096688608,1.55913961920888,20.3385668056572,-1.50365678603686,39.4121988429367,-5.53545261588609,18.5925721721772,-0.962201109272165,-23.4513220627989,-4.64225419424134,-158.25882330554,-2.83478118392519,10.6328653603247,2.75826631432328,-27.3100244118436,28.5825027115875,-99.8463951823454,1117.52356887468,0.251972007783432,-0.112559060175236,-12.3612099986293,17.2620426329601,25.1628576968941,0.167321055420708,2.42784014921296,4.42517904764725,4.6916813818463,-12.94709950685,-23.7928991180031,-53.454790626497,0.0321679197175452,-1.60083840921047,-2.88386701958893,-2.72070412009367,1.43519816553171,13.2257967682025,1.26855162916452,21.0286572110722,-29.3763166543211,-43.3058510916234,10.3334969867721,16.4590931257975,6.62972028148729,21.7082666339741,8.43179258398269,-111.705291542295,-1.99785848739747,-19.1238296393265,-15.7350928677237,-314.221379182025,150.983917169626,396.981229557298,221.363153971523,0.251431736427963,0.123963227247115
42.465,-13.2330595684152,-15.0638535818107,-3.29511915070853,-0.131210372452257,0.504059830742659,3.15513573292178,3.53049552823255,-57.5903333909239,-111.66874828643,-86.867954252911,0.879635306562354,8.50765570922781,6.16755337007342,6.42230655651991,3.71081957271546,11.2975473462117,1.33393273616254,20.3778185499789,-1.41534036131281,49.9807310015814,-6.03885623681317,19.1118727495547,-0.922458718146333,-22.9704881948568,-5.85578728952365,-157.954622287046,-3.03593625720336,11.2134864573406,3.02922288101035,-15.9225047292087,38.2452025587197,-125.61668819439,1085.19975742568,0.256439003404415,-0.108351483144728,-12.2280177636403,11.7491759575137,22.5902368098319,0.18718023571923,2.2066825305767,4.38325301115635,4.65808111126555,-13.0918739993999,-26.454283265537,-49.9999879690191,0.064392967806686,-1.46184394414421,-2.50187424267191,-2.33573419970194,3.41171975085596,13.8192831423482,-0.34233995780216,28.1495778267855,-34.5444629900248,-34.7816806164058,9.2472049626663,18.3773258708039,4.70883804373919,21.0017352361816,35.9145555666299,-91.97147708451,-2.1057334451404,-5.74288968867258,-9.67569188001361,-236.521033485745,96.5779066252691,375.671361376178,347.214059203295,0.246586383206692,0.131833372491514
42.47,-13.4415448394539,-23.2384936877344,-5.27592147606577,-0.133171979140325,0.237259459527349,3.127183709102,3.50897241697114,-58.7080444094104,-114.710473474135,-90.597148774372,0.853852240318891,8.708239198563,6.38651101633874,6.59408360248567,3.69757147730289,12.1454254526159,1.10871511414892,20.4170721660162,-1.32701972522904,60.5497671196062,-6.54228386249067,19.6311980897272,-0.882714431908626,-22.4896313984007,-7.06937825200807,-157.650406762757,-3.23710092254071,11.7941352412144,3.30019236823372,-4.53444203385698,47.9083631707103,-151.388210060233,1052.87440461902,0.26090621203363,-0.104143705476338,-12.0948191773932,6.23604640158123,20.0174932476045,0.207040363000744,1.98551436606192,4.34132497542668,4.61946314456435,-13.2366553955067,-29.115794320903,-46.5450205696281,0.0966195525439642,-1.32284285114104,-2.11986325046822,-1.9551112325448,5.38833558641078,14.4127978168311,-1.95330835997016,35.2708380028734,-39.7128557682604,-26.2571036669869,8.16086113883591,20.2956500865434,2.78786420891714,20.2951701475115,63.3986290620319,-72.2367216217915,-2.2136135468897,7.63868833074064,-3.61600195038433,-158.816982656391,42.1693017358384,354.360477036164,473.070965622671,0.241740798935247,0.139703893022988
42.475,-13.6500201693678,-31.412744005364,-7.25662935156961,-0.135133492293838,-0.0295281899460573,3.09923301810807,3.48105039918231,-59.8257021325021,-117.7520536244,-94.3261654780511,0.828070403479693,8.908813123551,6.60545822212883,6.76025718620211,3.68432401359428,12.9932631299668,0.88350823110258,20.4563239103379,-1.238703300505,71.1182992782509,-7.04568748341775,20.1504986671046,-0.842972040782795,-22.0087975304587,-8.28291134729038,-157.346205744263,-3.43825599581888,12.3747563382303,3.57114893492079,6.85307764877796,57.5710630178424,-177.158503072278,1020.55059317002,0.265373207654613,-0.0999361284458305,-11.9616269424042,0.723179726134901,17.4448723605423,0.226899543299266,1.76435674742566,4.29939893893579,4.57528333832852,-13.3814298880565,-31.7771784684369,-43.0902179121501,0.128844600633105,-1.18384838607478,-1.7378704735512,-1.57968868678204,7.36485717173503,15.0062841909767,-3.56419994693684,42.3917586185867,-44.8810021039641,-17.7329331917693,7.0745691147301,22.2138828315498,0.866981971169041,19.588638749719,90.8813920446791,-52.5029071640064,-2.32148850463263,21.0196282813946,2.44339903732573,-81.1166369601107,-12.2367088085185,333.050608855044,598.921870854443,0.236895445713977,0.147574038267387
42.48,-14.0523939980273,-39.1722659497513,-11.1365159179985,-0.147510854076491,-0.284812701892063,2.94732054872208,3.32241895497098,-60.914309026483,-119.53683465548,-98.4473293557939,0.805333002363998,9.09510855115276,6.8294166769875,6.92652728034793,3.82980744759226,13.703653137767,0.582923447860159,18.8552258082653,-1.56614376750335,81.3136167109444,-7.87388353090883,20.0676927198446,-0.602923447860141,-20.0510475760515,-8.79971490254345,-153.637517766913,-3.39098867559839,13.1470263168295,3.57763439416486,12.1319395593147,62.9768407570127,-199.495002653073,992.811566539415,0.268898161276491,-0.0960060516155881,-11.9629588407573,-2.20766423159104,14.6712206898304,0.245821372115151,1.51324811034538,4.13322074748149,4.40089275811749,-13.8767511751238,-44.5258462805094,-42.3021909720963,0.175261287928503,-1.04451764534951,-1.55080317179075,-1.40499102602647,7.59842374924652,15.2204999665126,-4.42273022570489,43.5479601227374,-38.1615521935884,-8.26135945513975,7.05746098720785,22.5388081843145,1.33280590717301,20.2613470524082,92.4675809133537,-57.3123747840891,-1.89933414344578,24.1877113276114,3.74630021982683,-64.0724680820542,-30.1495389761429,302.958423437959,692.669144732436,0.231689732023021,0.147380316357177
42.485,-14.5486895970617,-46.730288974567,-15.9363429001431,-0.16493416379605,-0.534505491541261,2.7353552400479,3.09680884923233,-61.9887627717304,-120.712528495234,-102.758209821814,0.784072340819938,9.27447238605709,7.05578739498906,7.09105382166968,4.05219096733865,14.347394905454,0.245836849507739,16.4594371419917,-2.09500905812828,91.3273775416298,-8.85939365525863,19.6931520550086,-0.26583684950772,-17.3778213802697,-8.97889330701748,-148.279505478287,-3.22335581307039,14.0121018680525,3.45597437199698,14.4505805233006,66.3196159049224,-220.166134318778,967.29598374746,0.271966414789536,-0.0922107110313744,-12.0294720487182,-3.88722508980867,11.8003592744869,0.264287683643044,1.24764498663577,3.90685002947994,4.16013070730981,-14.5418889474451,-62.1612351243618,-42.8063610882263,0.228551009391066,-0.90503383064213,-1.45819696897193,-1.33094076263254,6.98745428973276,15.2509313955305,-4.9166557274574,41.8139755633114,-25.6826433142524,1.66859212184001,7.55840912642603,22.0917002656665,2.95503516174403,21.6022951116976,81.5059085235154,-74.0135360656275,-1.22039288244204,22.4071022527891,2.7444272770474,-76.4194349362564,-30.378945026198,268.613044186744,770.854508516956,0.226309780227633,0.143279397097821
42.49,-15.0450088619012,-54.2886724029412,-20.7363987615487,-0.182358304344359,-0.784210187765713,2.52337982382955,2.86426912566748,-63.0632677521954,-121.88827839783,-107.06929585173,0.762810665463396,9.45384477390763,7.28216890745525,7.25226367651837,4.27458509142053,14.9911673699015,-0.0912658227848064,14.0635342327794,-2.62389956764076,101.341615877481,-9.84495077355837,19.3185935302391,0.0712658227848246,-14.7044677119689,-9.15808025559549,-142.92123769339,-3.05571495698642,14.8772186703152,3.33430854848333,16.7693320514448,69.6625504527246,-240.838251685291,941.779184247539,0.275034814611937,-0.0884151894667313,-12.0959884283546,-5.56686603771483,8.92936096240915,0.282754875735122,0.982029197668252,3.68046851701374,3.91314856076928,-15.2070584367934,-79.7974649099358,-43.3105552456569,0.281843271968571,-0.765543364663246,-1.36558635023576,-1.26320717576885,6.37645569620251,15.2813642756681,-5.41060478199717,40.0799083190082,-13.2031393794169,11.5990172075498,8.05938115330522,21.6445710267229,4.57734177215191,22.9433071139588,70.5437134274453,-90.7154937403413,-0.541419246193394,20.6264082698044,1.7425065600587,-88.766990554316,-30.6083620154573,234.266027179616,849.043600562588,0.220929571889791,0.139178282286547
42.495,-15.5413044609356,-61.846695427757,-25.5362257436932,-0.199781614063919,-1.03390297741491,2.31141451515537,2.62502030658625,-64.1377214974429,-123.063972237584,-111.380176317749,0.741550003919337,9.63320860881197,7.5085396254568,7.41101990075724,4.49696861116692,15.6349091375884,-0.428352421137227,11.6677455665058,-3.1527648582657,111.355376708166,-10.8304608979082,18.9440528654031,0.408352421137245,-12.0312415161871,-9.33725866006952,-137.563225404763,-2.88808209445843,15.7422942215383,3.21264852631545,19.0879730154307,73.0053256006343,-261.509383350996,916.263601455585,0.278103068124981,-0.0846198488825175,-12.1625016363155,-7.24642689593247,6.05849954706567,0.301221187263015,0.716426073958647,3.45409779901219,3.66013664271669,-15.8721962091148,-97.4328537537882,-43.8147253617868,0.335132993431134,-0.626059549955866,-1.27298014741694,-1.20167003268327,5.76548623668875,15.311795704686,-5.90453028374968,38.3459237595822,-0.724230500080873,21.5289687845295,8.5603292925234,21.1974631080749,6.19957102672294,24.2842551732483,59.582041037607,-107.41665502188,0.137522014810345,18.8457991949822,0.740633617279276,-101.113957408518,-30.8377680655124,199.920647928401,927.228964347108,0.215549620094403,0.135077363027191
42.5,-16.1377258527961,-67.4529465844488,-31.0312235372883,-0.215892798381532,-1.28146219175333,2.05998377404148,2.33998427705842,-65.2349320547984,-122.139798165747,-114.622543633756,0.716009372369336,9.78324281566936,7.68466914920634,7.51801804507793,4.96173816493388,16.0143292621379,-0.807683119679683,9.27660992082334,-4.49010198134833,119.27209633958,-11.5986282426567,17.8864015342687,0.648750042057815,-9.43330213786569,-8.12243909510714,-130.26132497245,-2.94421686381247,16.4936170731702,2.84537784273089,25.3938925620432,72.8713824212248,-284.893715419983,868.582281888227,0.284170615014669,-0.0781851608720676,-12.3303666844305,-12.2520463335807,2.65160386730553,0.310413102105081,0.459575770601444,3.27381386626461,3.44754091997713,-16.6625787476624,-107.575597228419,-47.1164204442409,0.3894577081861,-0.479509477561395,-1.24832492405583,-1.21388208099316,5.27713401298743,15.3403963527472,-5.71042629790383,34.3332548254321,7.01494308592546,31.0816058479663,8.1946334241782,20.640792369032,7.2219817637361,23.4878784215841,58.8412815314109,-117.071363682245,0.258910082321999,17.359598894916,-0.0316319681706802,-103.895360740589,-29.4500444364164,166.450915951695,1007.8354025773,0.204336085424425,0.130074001534089
42.505,-16.8831304711443,-70.1529933579946,-37.5604473700258,-0.230048752563662,-1.52581584521739,1.74983196739832,1.99049625663845,-66.3658897341828,-118.08972890264,-116.273865520283,0.684100319899321,9.88959715803693,7.78598534538791,7.54963638901501,5.78728474815786,16.0002173547323,-1.24985621838654,6.89268482206885,-7.03082605127547,124.066079698951,-12.0431533259312,15.8119511456546,0.745181409328985,-6.94774807631411,-4.83256438513292,-120.066488161576,-3.33346054585084,17.0755108350641,2.11251816225673,37.6347953647971,67.5617779776598,-312.314325491475,787.909211219901,0.294702392100523,-0.0678221260271423,-12.6490909908445,-22.208466680155,-1.55286425240089,0.305797434374638,0.215785984821578,3.16215922091988,3.29846994800867,-17.6393152923535,-106.563080361247,-54.5823078854767,0.445316737185572,-0.322457488397951,-1.32482903290315,-1.33240341697492,4.97137601920078,15.3662681829907,-4.49209829189236,26.9288589645016,7.6973089789916,40.0714135285314,6.53883628859505,19.9210850913496,7.35134091495353,19.5098304492411,73.3161495183672,-116.235102502657,-0.449727505847578,16.3118516955518,-0.461996929046811,-92.4364916401845,-25.6551172827778,134.288703233409,1092.03645009701,0.184439616895771,0.123727797456337
42.51,-17.6285706340358,-72.8531688829959,-44.089982548137,-0.244205381771027,-1.77018115066055,1.43966537119783,1.636036113049,-67.4969013431691,-114.039466512391,-117.925266149926,0.652189745849387,9.99595657190049,7.88730637282198,7.58164946915799,6.61287069748662,15.9861047744019,-1.6920504020726,4.50864604608873,-9.57167127537122,128.86029165893,-12.487699606339,13.7374018370849,0.841617374920086,-4.46207549137016,-1.54253279781808,-109.871165210947,-3.72272278893456,17.6574323445028,1.37962353544332,49.8762818737549,62.2519203461475,-339.736243111967,707.232293664412,0.305234671393096,-0.0574585970219555,-12.9678304955947,-32.1653617976199,-5.75753286174156,0.301181546546549,-0.0280154260494038,3.05049925133476,3.14503871802205,-18.6160984126272,-105.550515212312,-62.048551336795,0.501178429817154,-0.165398010226392,-1.4013367898411,-1.45519694943322,4.66560344537533,15.3921412469298,-3.27371219003397,19.5241100257082,8.37970741060589,49.0616498871604,4.88296019649406,19.2013434944988,7.48070623464892,15.5315927840854,87.7917077379298,-115.398801446041,-1.1583988853284,15.264054534469,-0.892382411832287,-80.9770761247735,-21.8600091684242,102.124956863284,1176.2415127351,0.16454219960604,0.117381290760489
42.515,-18.373975252384,-75.5532156565417,-50.6192063808744,-0.258361335953157,-2.01453480412462,1.12951356455467,1.27757214271584,-68.6278590225535,-109.989397249284,-119.576588036453,0.620280693379372,10.1023109142681,7.98862256900355,7.61499014977154,7.4384172807106,15.9719928669964,-2.13422350077946,2.12472094733423,-12.1123953452984,133.654275018301,-12.9322246896134,11.6629514484708,0.938048742191256,-1.97652142981858,1.74734191215615,-99.6763284000741,-4.11196647097292,18.2393261063967,0.646763854969156,62.1171846765088,56.9423159025825,-367.156853183459,626.559222996086,0.31576644847895,-0.0470955621770302,-13.2865548020087,-42.1217821441942,-9.96200098144798,0.296565878816105,-0.27180521182927,2.93884460599003,2.98817139030637,-19.5928349573182,-104.53799834514,-69.5144387780308,0.557037458816626,-0.00834602106294734,-1.47784089868841,-1.58117231055556,4.35984545158868,15.4180130771733,-2.0553841840225,12.1197141647777,9.06207330367203,58.0514575677255,3.22716306091091,18.4816362168164,7.61006538586636,11.5535448117424,102.266575724886,-114.562540266453,-1.86703647349798,14.2163073351048,-1.32274737270842,-69.518207024369,-18.0650820147856,69.9627441449975,1260.44256025481,0.144645731077386,0.111035086682737
42.52,-19.1381844853894,-77.7028382660497,-56.9267119915645,-0.271093794579443,-2.24242825116227,0.826851757897551,0.923659202366989,-69.7426937391564,-105.387598089844,-120.544015176339,0.588076732519946,10.177926158837,8.09852984244552,7.65916238211203,8.16505709373635,15.8735126119422,-2.3927974647815,0.12421170411302,-14.6498063929145,137.010411033719,-13.2788807061661,9.4631174463062,0.925833825152019,0.247566487394387,4.45339950472825,-89.0544795734467,-4.34335406188256,18.3816097852267,0.181530697248429,73.2767615352436,51.6293856901304,-389.594309971834,550.240383875189,0.324509034114953,-0.0379316317348799,-13.6475203413438,-50.1481913102392,-14.375648263557,0.290159244557551,-0.475765426548101,2.78035841107212,2.78208232276965,-20.5925064853915,-103.155571453346,-76.8758435878458,0.611826587119959,0.169154350095101,-1.54108070131782,-1.69582447405807,4.0361448256396,15.4755649072387,-0.994942906263614,4.75392655063861,9.98225682851858,66.0815341955762,1.10951014857201,17.4048271791845,7.42254804854895,8.33998658705067,113.74064792085,-114.042948365214,-2.50140080241267,13.2810739912327,-1.63815600199199,-58.1363343335272,-14.2147852432241,41.1447620056832,1341.57827615406,0.125220985089812,0.104515897210906
42.525,-20.0085434432161,-76.7376008520366,-61.9777827898933,-0.275768389632754,-2.37712116093682,0.566662789830241,0.610470538789585,-70.7659543994388,-97.6656946722237,-117.641810696609,0.554214469008065,10.0796024141327,8.25700863070064,7.75499937807042,8.33187370095711,15.2977262579867,-1.61252623745862,0.293619250275073,-17.1676675692055,132.230460858676,-13.0717052423597,6.55458918169919,0.298926252854674,0.991631003870864,3.85549051827395,-76.0200636687426,-3.6815535119391,16.0366321357892,1.23061662577197,78.3148937745603,46.299325660887,-383.831069849578,498.581047445536,0.323125996701785,-0.0355548767202526,-14.2473627973714,-47.252478041821,-19.9713836044142,0.273621753527652,-0.454314029944872,2.35696002875791,2.30984796319822,-21.7216216967375,-99.6807147101409,-83.6437719335369,0.660545061666186,0.46229077316955,-1.52925393086212,-1.73599297050488,3.61103153627057,15.7123368658746,-0.828126299042858,-2.39108583749045,12.2476675438621,68.6791165700611,-3.62054784326807,14.3079575838444,5.44227348541225,9.45276164517397,108.233241812288,-115.315165819725,-2.71534215013069,12.9827159381299,-1.30306712325275,-47.1937035105954,-10.0524417942502,31.2568418856003,1405.34526955942,0.108471306998469,0.0970200644045359
42.53,-20.8789439040211,-75.7723174107757,-67.0290944480189,-0.280443207593654,-2.51182049352906,0.306461414678478,0.296786815643019,-71.7892638538015,-89.9434230364252,-114.739467825554,0.520350590777597,9.98127398087056,8.41549497600063,7.85471456134277,8.4986982628108,14.7219124477175,-0.832217802981708,0.463034874618718,-19.6856488094503,127.450282752195,-12.8645198994124,3.64592222421798,-0.328011213466433,1.73573100098806,3.2575530205905,-62.9850262192431,-3.0197214041038,13.6915426663312,2.27975257985121,83.3532662567,40.9690114682738,-378.067554907804,446.919247645685,0.321742893338619,-0.0331780083703045,-14.8472338568255,-44.3566266916105,-25.5673857773414,0.257083473909177,-0.43286161043398,1.93354145673494,1.83758686166567,-22.8507907498275,-96.2056922687461,-90.4120230072022,0.709265859347911,0.755441174424491,-1.51742659644807,-1.7753241513415,3.18589797541762,15.9491201149573,-0.661301737189171,-9.53643893480782,14.513186285085,71.276822809997,-8.35083138744194,11.2109403145929,3.46190449308462,10.5655897658626,102.725573083626,-116.587443939796,-2.9292936996201,12.6843436578537,-0.96796226583444,-36.2505508894268,-5.88989986435272,21.3684502610531,1469.11530368736,0.0917208302004317,0.089523874160142
42.535,-21.7493028618478,-74.8070799967625,-72.0801652463477,-0.285117802646965,-2.64651340330361,0.0462724466111686,-0.0160649682494891,-72.8125245140839,-82.2215196188051,-111.837263345824,0.486488327265716,9.8829502361662,8.57397376425574,7.9589762628098,8.66551487003155,14.146126093762,-0.0519465756588335,0.632442420780771,-22.2035099857412,122.670332577152,-12.657344435606,0.737393959610968,-0.954918785763778,2.47979551746453,2.6596440341362,-49.950610314539,-2.35792085416035,11.3465650168936,3.32883850837474,88.3913984960168,35.6389514390305,-372.304314785547,395.259911216032,0.320359855925452,-0.0308012533556772,-15.4470763128531,-41.4609134231923,-31.1631211181986,0.240545982879279,-0.411410213830751,1.51014307442073,1.36659590680802,-23.9799059611735,-92.7308355255413,-97.1799513528933,0.757984333894138,1.04857759749894,-1.50559982599237,-1.81239287220208,2.76078468604859,16.1858920735932,-0.494485129968416,-16.6814513229369,16.7785970004286,73.8744051844819,-13.080889379282,8.11407071925279,1.48162992994793,11.6783648239859,97.2181669750632,-117.859661394307,-3.14323504733812,12.3859856047509,-0.632873387095198,-25.307920066495,-1.72755641537883,11.4805301409702,1532.88229709271,0.0749711521090886,0.0820280413537723
42.54,-22.7384753103412,-71.066522200029,-74.8437178431365,-0.288223353592303,-2.69790267763472,-0.37503157893876,-0.487915649193113,-73.6669563820936,-68.7453634104524,-106.320621885728,0.453497843436931,9.70348097025038,8.76939608520394,8.10530909709769,8.33934212780537,13.6130096184439,0.406692772706126,2.12426807155836,-26.6041031200645,116.723328556291,-12.1638561883551,-1.45641009324753,-1.31,1.78838305415883,3.11784429379087,-37.8733165154843,0.0817325774984781,9.73504532468561,3.79244232043526,82.4774017941541,33.6404839907365,-357.989947944909,350.531363958981,0.314023267182984,-0.030005739645443,-15.8889866506104,-34.6307782223549,-34.5595087185452,0.223869940782545,-0.258292774796754,1.0629235340529,0.87427915965925,-24.8651057365786,-80.3028270247318,-99.2045311254905,0.789509626611162,1.41694501119059,-1.3609564558874,-1.71300378282976,2.58009398174207,16.1230252820676,-0.536880736190292,-19.1195689844539,13.6845124410084,66.7190189447056,-16.3253285689811,5.96382486110773,-0.153024547835226,13.3679117495005,82.8026356222348,-116.25012818851,-3.18178736402931,11.9859136456875,-0.535564594158048,-17.3923142256606,0.715689559667196,5.59566654525065,1559.31819183044,0.0640884446440485,0.0773293592493283
42.545,-23.8827255540501,-63.7014301006611,-74.6191568759834,-0.289279178183401,-2.64048043106507,-1.00672743962757,-1.16679381376376,-74.3007809456738,-47.7548528484475,-97.3897770155454,0.421649650080943,9.41804435974648,9.01305019183581,8.30545247038704,7.36929415795786,13.1356844269316,0.445186739763576,5.34318745677321,-33.4633161800942,109.25264754218,-11.2964587973274,-2.71644594826111,-1.31,-0.777881416337266,4.95541638377571,-27.0474823232804,4.84323523673412,9.08169861858545,3.4912759342156,62.2590864682945,35.9937490192366,-332.508221439207,314.860287819085,0.301217363936374,-0.0312756294680095,-16.1245675831387,-22.6625042950962,-35.0828757724451,0.207014765902683,0.0667815736889295,0.584639501072312,0.354586655002278,-25.4316214622936,-56.1821520879944,-95.0334303470671,0.798574820465202,1.88353381691407,-1.04285246039603,-1.43523472225056,2.71867226314887,15.6687964707898,-0.852531266061317,-15.4095742993293,3.59053885705704,46.8257169567489,-17.6289909199931,5.05023470961111,-1.33607246873393,15.8106153380838,56.7534671328287,-110.876813939175,-2.99125352909819,11.4530334940752,-0.748839611200023,-13.4312848465807,0.913291919000634,4.93998595590724,1536.99169093713,0.0608699949101157,0.076284652812311
42.55,-25.0270303612154,-56.3359867976262,-74.3945852006634,-0.290335053121388,-2.58305544632144,-1.63845342266919,-1.8411802217096,-74.9346357331138,-26.7633413560835,-88.4585062789342,0.389799938047098,9.13259413822687,9.25671591708896,8.51150696552314,6.39919993147165,12.6583364742162,0.483682542401926,8.56226033583123,-40.3228563210003,101.781610289405,-10.4290200445435,-3.97654188795615,-1.31,-3.34426825889337,6.79307609819859,-16.2211319022752,9.6049649477393,8.42832075771412,3.19009518690748,42.039807034127,38.3471262629399,-307.02527983997,279.187510707555,0.288410850041571,-0.0325455798451429,-16.3601597493198,-10.6936596619137,-35.6062677830498,0.190158787285522,0.391871423311826,0.106332661166305,-0.160337756722841,-25.9981642022532,-32.0603269593283,-90.8621306701276,0.807640446592088,2.35014487187725,-0.724733296148026,-1.15139986807381,2.8572571526469,15.2145459996574,-1.16819684769572,-11.6994027034858,-6.50391605699697,26.9314663587121,-18.9327154360116,4.13660099366114,-2.5191768031523,18.253435406739,30.7030564914752,-105.503243463897,-2.80071060858055,10.9201279321272,-0.962124798239472,-9.470066586218,1.11090370098246,4.28427410050167,1514.66412540689,0.0576513917047351,0.0752398965585736
42.555,-26.1712806049243,-48.9708946982583,-74.1700242335102,-0.291390877712487,-2.52563319975179,-2.270149283358,-2.50998756182338,-75.568460296694,-5.77283079407867,-79.5276614087515,0.357951744691111,8.84715752772298,9.50037002372084,8.72363680179101,5.42915196162414,12.1810112827039,0.522176509459377,11.7811797210461,-47.18206938103,94.3109292752945,-9.56162265351577,-5.23657774296972,-1.31,-5.91053272938947,8.63064818818344,-5.3952977100713,14.3664676069749,7.77497405161396,2.88892880068782,21.8214917082674,40.70039129144,-281.543553334267,243.51643456766,0.27560494679496,-0.0338154696677094,-16.5957406818481,1.27461426534498,-36.1296348369498,0.17330361240566,0.716945771797509,-0.371951371814283,-0.669473343783167,-26.5646799279682,-7.93965202259094,-86.6910298917042,0.816705640446129,2.81673367760073,-0.406629300656661,-0.860584670162734,2.9958354340537,14.7603171883796,-1.48384737756675,-7.98940801836124,-16.5978896409483,7.03816437075529,-20.2363777870236,3.22301084216453,-3.702224724051,20.6961389953223,4.65388800206916,-100.129929214562,-2.61017677364944,10.3872477805149,-1.17539981528145,-5.50903720713802,1.3085060603159,3.62859351115826,1492.33762451357,0.0544329419708024,0.0741951901215563
42.56,-26.8779552661341,-42.9124346072863,-71.4134474764285,-0.289029520660958,-2.42512813623362,-2.61630214188256,-2.88684197398891,-75.6850715585284,12.4003037149138,-66.8675542097382,0.330552476605743,8.50998537737546,9.54204979268172,8.73993614680932,4.79402957229836,11.9486430273159,0.599624106591385,12.6424146306202,-46.8475283508961,85.9620441684326,-8.62196341909218,-5.58150357363451,-1.36962410659137,-8.78303252305431,11.4338993163664,10.2328986955888,16.5711402893066,7.47246122360229,2.74948263168335,12.460000038147,41.7900009155273,-269.744995117188,227,0.269675552845001,-0.0344034545123577,-16.6489679898835,7.73287852268383,-33.0870777064465,0.162776384496863,1.09459530449954,-0.582174447524495,-0.903965042375949,-26.7339024765651,7.30297699264447,-77.0198895360181,0.802780856412069,3.37616645541072,-0.113322449472268,-0.586843206487942,2.96772459694193,14.3398960053447,-1.71375767354502,-6.08407467944512,-21.1734582607549,-4.79826312974349,-19.2982909581374,3.41753538969634,-4.27555318853916,22.5562500982366,-17.0240291847986,-92.0581304056406,-2.4128150320115,9.91645190535197,-1.17996988478514,-4.36564585502018,0.833570979109475,4.81063402473398,1453.74953044837,0.0459174481970065,0.0737452209925604
42.565,-27.2073089615093,-37.9808442542942,-66.4737976112038,-0.283721855438749,-2.28747979755112,-2.71623629688551,-3.01040272846343,-75.3557198800654,28.1434577134696,-50.9924761307814,0.306990343198026,8.12821902271975,9.40957899907841,8.58816357641708,4.44771703369429,11.9274941699966,0.710655607517872,11.4707418254287,-40.3103121146887,76.856286155942,-7.62003630358878,-5.13737756992852,-1.48065560751788,-11.9194602829122,15.0696750962641,30.0012056065763,16.5711402893066,7.47246122360229,2.74948263168335,12.460000038147,41.7900009155273,-269.744995117188,227,0.269675552845001,-0.0344034545123577,-16.5449618782248,9.43996754920739,-26.9699897501433,0.157705751276238,1.5175613460542,-0.561257996477367,-0.900100930284089,-26.560558957134,14.8900391226542,-62.6068336244245,0.7690339375296,4.01562932812769,0.158591437776087,-0.326280915835857,2.79589013122236,13.948642144937,-1.86973049627511,-5.7348574366722,-20.9906903579953,-9.68730452856459,-16.427333577038,4.56750450643506,-4.32313811750766,23.913954518737,-34.9320199426967,-81.6599422236353,-2.20957416117111,9.49920647049138,-1.00458756650049,-5.65176074327325,-0.221228250699141,7.57716890012896,1401.14174786653,0.0328350207152269,0.0738080722312824
42.57,-27.536646952436,-33.0494890524729,-61.5343832814486,-0.278414443299947,-2.14983802230266,-2.81616568676567,-3.1264374860184,-75.0263839059547,43.8858610371255,-35.1181550172107,0.283429333294669,7.74647087168575,9.27711452203021,8.4423026910504,4.10142100818093,11.9063463211103,0.821681814170998,10.2991248886716,-33.7734075901081,67.7509623298911,-6.61815696259975,-4.69327274331597,-1.59168181417102,-15.055738489663,18.7052775128307,49.7685699128094,16.5711402893066,7.47246122360229,2.74948263168335,12.460000038147,41.7900009155273,-269.744995117188,227,0.269675552845001,-0.0344034545123577,-16.4409607258505,11.146975177246,-20.8531934726479,0.152635359836714,1.94050721947794,-0.540342542781519,-0.888590460446566,-26.3872237031768,22.4767394816296,-48.1944649651632,0.73528862778879,4.65506170957666,0.430492359456672,-0.0572748372567086,2.62406385902108,13.5574069405403,-2.02569588181167,-5.38565684549391,-20.8079311700889,-14.5761128050607,-13.5565130907212,5.71741878962825,-4.37072077750186,25.2715942003274,-52.8391568005968,-71.262249854532,-2.00634298138884,9.08198093098816,-0.829213610905064,-6.93781430619311,-1.27597718491221,10.3435718598804,1348.53647376183,0.0197532170379239,0.0738709204730923
42.575,-27.8660006478112,-28.1178986994809,-56.5947334162238,-0.273106778077738,-2.01218968362015,-2.91609984176862,-3.23474305126727,-74.6970322274917,59.6290150356813,-19.2430769382539,0.259867199886953,7.36470451703004,9.14464372842691,8.30207837822696,3.75510846957685,11.8851974637909,0.932713315097485,9.12745208348019,-27.2361913539007,58.6452043174005,-5.61622984709635,-4.24914673960998,-1.70271331509752,-18.1921662495209,22.3410532927284,69.536876823797,16.5711402893066,7.47246122360229,2.74948263168335,12.460000038147,41.7900009155273,-269.744995117188,227,0.269675552845001,-0.0344034545123577,-16.3369546141918,12.8540642037696,-14.7361055163447,0.147564726616089,2.3634732610326,-0.519426091734391,-0.869214399788149,-26.2138801837457,30.0638016116394,-33.7814090535696,0.701541708906322,5.29452458229363,0.702406246705026,0.220197189521365,2.45222939330151,13.1661530801326,-2.18166870454176,-5.03643960272098,-20.6251632673292,-19.4651542038818,-10.6855557096217,6.86738790636697,-4.41830570647037,26.6292986208278,-70.747147558495,-60.8640616725266,-1.80310211054844,8.66473549612756,-0.653831292620418,-8.22392919444618,-2.33077641472083,13.1101067352754,1295.92869117999,0.0066707895561443,0.0739337717118143
42.58,-28.0962598676239,-24.5251319591481,-50.8584579907913,-0.25928991006542,-1.96459649770372,-2.86858925560601,-3.18789704160886,-73.9974855381067,71.3406222797462,-2.5198981894463,0.236321978598915,6.9742106562266,8.93534499057134,8.09034003317237,3.95497692326679,11.7472710220401,0.823367228570705,9.83955203074338,-21.5113684943098,52.0144348797959,-5.4675948367352,-3.52320063183354,-1.53090653306021,-19.4184055343939,26.0130085618687,91.4102998070921,17.7996858093379,9.05489143166734,3.43574779722784,16.4906669069991,37.8071554943378,-210.248255810951,202.991670163141,0.260901970257447,-0.0364513076320234,-16.1194132253294,18.3152816789267,-7.89827241539928,0.145879225413058,2.73711908214047,-0.316951122610182,-0.660415970096818,-25.8726425749907,33.0487448005282,-20.0918977669246,0.681000323395237,5.92411114293225,1.23768598302674,0.769248219179386,3.27469025347387,13.142220179184,-2.11654947306071,-3.39150964524267,-19.9488926611205,-24.3270754815004,-8.23110052570527,8.26453303551594,-3.89127650122172,22.93145279363,-63.6126794209533,-53.2096129745265,-1.7531543970108,8.56219482421875,-0.610729992389679,-8.53999996185303,-2.58999991416931,13.789999961853,1283,0.00345570128411055,0.0739492177963257
42.585,-28.294243518882,-21.3683963329903,-44.8622379227126,-0.242699428343281,-1.94634494826515,-2.77303051198285,-3.08556072158544,-73.1772658618733,81.7392826713485,14.4806930921525,0.212780779555522,6.58084823245001,8.70099848617255,7.85849749882404,4.33283214453193,11.5712836587112,0.642203766320295,11.1655279890136,-16.0509036444693,46.18972603178,-5.59699730977121,-2.70537700224597,-1.26692548806674,-20.0222837418953,29.6969851399062,113.971061834432,19.4286329324393,11.1530596256068,4.34567718028399,21.8349891914756,32.526240392031,-131.360627516685,171.158661796283,0.249268944144645,-0.039166587117743,-15.8648623934566,25.0001344352201,-0.82515080787315,0.145296669453592,3.0947174372079,-0.0553021585982947,-0.384795216574812,-25.4766747788433,34.5342673610205,-6.63728940028334,0.664760687748894,6.55051929262751,1.85881783200322,1.41190821709407,4.4211961645729,13.2379780092307,-1.97938285164253,-1.32426519945753,-19.1117704898752,-29.1804670010485,-5.91220820889997,9.74230927758718,-3.17697485006295,17.586012364266,-48.3176266203761,-46.4487331487438,-1.7531543970108,8.56219482421875,-0.610729992389679,-8.53999996185303,-2.58999991416931,13.789999961853,1283,0.00345570128411055,0.0739492177963257
42.59,-28.4922177297599,-18.2118112282718,-38.8663037701434,-0.226109737698852,-1.92809426910837,-2.67747632485138,-2.97627845575384,-72.3570852958667,92.1374472275324,31.4804737409418,0.189240703018282,6.18750456522616,8.46666315603013,7.63122396478801,4.71066934866846,11.3953046869215,0.461048942419219,12.4914407212702,-10.5906991639236,40.3652949211686,-5.7263936125577,-1.8875923686354,-1.0029570303823,-20.6261331548989,33.3807860562721,136.530748105429,21.0575023830668,13.2511277733802,5.25556317551908,27.1790566446398,27.2455770976158,-52.4767607915736,139.327171310808,0.237636472725058,-0.0418817371318107,-15.6103236992354,31.68466844019,6.24763353465167,0.144714141271923,3.45229874104726,0.206334329304303,-0.101958680215555,-25.0807258634796,36.0197190878984,6.81667741532004,0.648521826450999,7.17689757353821,2.47992006378301,2.06164973028417,5.56764740726114,13.3337312732927,-1.84222277068885,0.742880674687052,-18.274688234812,-34.0336270981515,-3.59342646296616,11.2200150554088,-2.46270725868155,12.2408268195304,-33.0233031280575,-39.6881756994549,-1.7531543970108,8.56219482421875,-0.610729992389679,-8.53999996185303,-2.58999991416931,13.789999961853,1283,0.00345570128411055,0.0739492177963257
42.595,-28.690201381018,-15.055075602114,-32.8700837020646,-0.209519255976713,-1.9098427196698,-2.58191758122823,-2.86074148406565,-71.5368656196333,102.536107619135,48.4810650225407,0.165699503974889,5.79414214144957,8.23231665163134,7.40812088346747,5.0885245699336,11.2193173235926,0.279885480168809,13.8174166795404,-5.13023431408309,34.5405860731526,-5.85579608559371,-1.06976873904782,-0.73897598538883,-21.2300113624002,37.0647626343096,159.091510132769,22.6864495061682,15.3492959673196,6.16549255857523,32.5233789291163,21.964661995309,26.4108675026919,107.494162943949,0.226003446612256,-0.0445970166175303,-15.3557728673626,38.3695211964834,13.3207551421778,0.144131585312457,3.80989709611469,0.46798329331619,0.187510674166098,-24.6847580673323,37.5052416483906,20.2712857819613,0.632282190804656,7.80330572323346,3.10105191275949,2.71772962374226,6.71415331836017,13.4294891033393,-1.70505614927068,2.81012512047219,-17.4375660635667,-38.8870186176996,-1.27453414616085,12.6977912974801,-1.74840560752278,6.89538639016638,-17.7282503274803,-32.9272958736723,-1.7531543970108,8.56219482421875,-0.610729992389679,-8.53999996185303,-2.58999991416931,13.789999961853,1283,0.00345570128411055,0.0739492177963257
42.6,-28.7813791643819,-11.7273828225005,-27.9384352060468,-0.193913571876863,-2.08674567507547,-2.43821001802918,-2.69168952422606,-70.3890937774342,111.042820105506,62.6709005416141,0.14242449518906,5.40148632161539,7.8413169282028,7.03220176681204,4.83914850162994,11.1340084835631,0.159790660225442,14.1560794262443,-2.97688015706425,31.435982216326,-6.19506932170771,-0.965335218569595,-0.604902399748613,-22.4700822996779,43.247542477214,176.805997165357,21.2144972373196,13.7134300805352,4.39334529962053,15.4878210320429,18.3738316166668,71.3922211816448,85.1801971642905,0.169800448960077,-0.033922122902242,-14.7989628754001,44.5395782352042,19.7402387689656,0.140623177908358,4.06396086477355,0.997347109173386,0.750541850947618,-24.2887144698355,37.1422080840831,26.9325570985898,0.615707126094992,8.22978403672801,3.75152455020094,3.40853669713008,6.95976238168176,13.2004752366364,-1.89530694002591,3.61035153740335,-12.8768433542271,-42.7540295227608,-2.13452338871213,12.7182404461726,-1.2105035151801,2.2984579174831,-2.73943397333418,-22.6319551422388,-1.7531543970108,8.56219482421875,-0.610729992389679,-8.53999996185303,-2.58999991416931,13.789999961853,1283,0.00345570128411055,0.0739492177963257
42.605,-28.8593920256766,-8.37843175052874,-23.1377906261674,-0.178428483333412,-2.2877218306047,-2.28855771808865,-2.51236345703766,-69.2008713027483,119.316699694275,76.5149130423248,0.119181062543577,5.00889659779361,7.43097997675294,6.6404876697937,4.51241768456332,11.0598762813715,0.0472195383789661,14.3730186553371,-1.23119729795738,28.666617369937,-6.56023905842923,-0.948861395860352,-0.486840003665713,-23.7886660515081,49.7387709727279,193.923858210968,19.3601065758126,11.61704770547,2.29038693256321,-4.30822321865552,14.9912065089817,112.195136657653,64.0387913540971,0.108098695215912,-0.0215955684872679,-14.2048526854345,50.6464883627453,26.0794687588134,0.136753807494298,4.30527180499255,1.55975013188492,1.35154749462717,-23.8926403116069,36.551216984136,32.7565259020782,0.599089813125192,8.63163264297415,4.40564992574748,4.10737913165872,7.09429860047391,12.9314027990521,-2.12594045795529,4.25438987377289,-7.85673400599932,-46.4996209000678,-3.38653391461449,12.5589934933166,-0.694323736957195,-2.20642076164902,12.2124244568026,-11.9002426530498,-1.7531543970108,8.56219482421875,-0.610729992389679,-8.53999996185303,-2.58999991416931,13.789999961853,1283,0.00345570128411055,0.0739492177963257
42.61,-28.9374011671134,-5.0296403653333,-18.3373749536206,-0.162944133159623,-2.48868840306339,-2.13891255396253,-2.32986943713472,-68.0127054856283,127.59018476275,90.3582654241865,0.0959387382059642,4.61632559368019,7.02066259124583,6.2521017940974,4.18570244687954,10.9857476139979,-0.0653462157809822,14.5899475401982,0.514402322409316,25.897384574132,-6.92539138289933,-0.932388358666212,-0.368783237107708,-25.1071869298045,56.2296899494312,211.04090303204,17.5058043365191,9.52076529141828,0.187528840079948,-24.1033235420103,11.6087426937393,152.996106543567,42.8983936216174,0.046399883573299,-0.00926960183475862,-13.6107708242021,56.7531072967842,32.4183964775383,0.132884621581974,4.54657123887261,2.12212633774434,1.95644223956092,-23.4965850392336,35.9602540641956,38.5802170034493,0.582473292512487,9.03346208802411,5.0597441108794,4.80952656074726,7.22882840422605,12.6623431915478,-2.35656297867324,4.89839750070431,-2.83686402976035,-50.2450336777478,-4.63848474136914,12.3997541337732,-0.178168571540807,-6.71108463634289,27.1635699430889,-1.16904188007707,-1.7531543970108,8.56219482421875,-0.610729992389679,-8.53999996185303,-2.58999991416931,13.789999961853,1283,0.00345570128411055,0.0739492177963257
42.615,-29.0045668637703,-2.5112202167511,-14.0584777089006,-0.147601725983081,-2.70799745973591,-2.02409445106133,-2.1802606074167,-66.7763334032394,135.811814290043,103.01069662639,0.0749866603008137,4.24208605189224,6.62149093643261,5.87800285488711,3.88166739360708,10.8133347872142,-0.197314225185348,14.7218796755922,2.81777457770144,22.3881064856162,-7.15592647516978,-0.928425820923438,-0.283240700355136,-26.2211918899605,62.0833212176598,225.281875952427,16.1112976074219,7.94428014755249,-1.3939014673233,-38.9900016784668,9.0649995803833,183.68000793457,27,0,0,-13.0280013085208,60.8804850074226,38.2854589890332,0.127503931497621,4.72645321956883,2.63565206874441,2.51530850755834,-23.0839887516589,36.6319111091176,43.1384272505943,0.561796809087222,9.32677066049201,5.70378300257209,5.50390293109888,7.32546301950276,12.3783343510499,-2.4567601719733,5.15546693805777,0.250122887545789,-54.5244445059844,-5.6182402641909,12.1620385070721,0.205463019502753,-10.0083458913251,35.1274985788123,5.98823725796536,-1.75408577972487,8.6784627253411,-0.596603989032906,-8.20426341618427,-2.35634542505231,13.0459351590715,1273.47234095582,0.000113404399918294,0.0735964187821485
42.62,-29.0388390527707,-2.5112202167511,-11.3618042716217,-0.132692682662866,-2.98288429173619,-2.01490457363237,-2.1356098743526,-65.3940231094536,143.874621404429,112.049463080356,0.0609833285145386,3.92350498575836,6.25619324632386,5.54081486720249,3.64646395414045,10.3429279082809,-0.388090348308289,14.5960506750545,6.81203874861629,16.6354626918027,-6.97821720979499,-0.962399651068617,-0.296307558103285,-26.7148287382238,66.0033785421037,230.798993668311,16.1112976074219,7.94428014755249,-1.3939014673233,-38.9900016784668,9.0649995803833,183.68000793457,27,0,0,-12.4796462845147,59.0054130522349,42.7205558697385,0.117540939623807,4.72006438001068,3.00094969654553,2.92763426565711,-22.6213144493843,41.1320834027992,43.8584416195915,0.52881326989702,9.2909548357163,6.31720738326272,6.16892567201453,7.30716941865535,12.0490495357966,-2.1614491868652,4.23917370337295,-2.52456789354206,-60.4222756081106,-5.77242918561904,11.6864048850395,0.18716941865535,-9.64376442822869,21.9025479838365,2.30693239608021,-1.75784121654406,9.14726760025685,-0.539646400800857,-6.85053699833781,-1.41422500758017,10.0457846151125,1235.05577917627,-0.01336310164861,0.072173894627888
42.625,-29.0731128760369,-2.5112202167511,-8.66500224374444,-0.117782928406438,-3.25778423168706,-2.00571425798504,-2.09155792690928,-64.0116469003422,151.937812992951,121.08866054698,0.0469793289808129,3.60490872811877,5.89087813703195,5.20659471193866,3.41124929902176,9.87249859804349,-0.578875568571239,14.4702156743738,10.8064933856115,10.8825445837555,-6.80049947037197,-0.996375101252428,-0.309375038943216,-27.2084891255099,69.923622794082,236.316374467391,16.1112976074219,7.94428014755249,-1.3939014673233,-38.9900016784668,9.0649995803833,183.68000793457,27,0,0,-11.9312651122552,57.1302516844319,47.155864237587,0.10757747266574,4.71367523580137,3.36626474352683,3.34052399129369,-22.1586180845327,45.6324702867385,44.5784903224005,0.49582815789011,9.25513730306662,6.9306610150325,6.83427363490454,7.28887494547946,11.7197490186304,-1.86612411988283,3.32283677533851,-5.29939098547733,-66.3203879477126,-5.92662545953019,11.2107485824662,0.168874945479453,-9.2791655801023,8.67696675843809,-1.3745480084525,-1.76159683244088,9.61609483008533,-0.482686096552013,-5.49674602818494,-0.472059665191834,7.04549100928028,1196.63738550689,-0.0268402503229572,0.070751302640708
42.63,-29.1073850650373,-2.5112202167511,-5.96832880646554,-0.102873885086223,-3.53267106368734,-1.99652438055608,-2.04933251205159,-62.6293366065564,160.000620107338,130.127427000945,0.0329759971945378,3.28632766198489,5.5255804469232,4.8753599067144,3.17604585955513,9.40209171911022,-0.769651691694179,14.3443866738361,14.8007575565263,5.12990078994193,-6.62279020499718,-1.03034893139761,-0.322441896691365,-27.7021259737732,73.8436801185259,241.833492183275,16.1112976074219,7.94428014755249,-1.3939014673233,-38.9900016784668,9.0649995803833,183.68000793457,27,0,0,-11.3829100882491,55.2551797292442,51.5909611182923,0.0976144807919268,4.70728639624323,3.73156237132795,3.75282755585303,-21.6959437822581,50.1326425804201,45.2985046913977,0.462844618699908,9.2193214782909,7.54408539572314,7.49900651363403,7.27058134463205,11.3904642033771,-1.57081313477473,2.40654354065368,-8.07408176656518,-72.2182190498389,-6.08081438095833,10.7351149604337,0.15058134463205,-8.91458411700586,-4.54798383653763,-5.05585287033766,-1.76535226926008,10.0848997050011,-0.425728508319964,-4.14301961033847,0.470060752280309,4.04534046532127,1158.22082372734,-0.0403167563714855,0.0693287784864475
42.635,-29.1272087097168,-2.5112202167511,-4.03499784477619,-0.093291053676102,-3.76455889067587,-1.99120879173279,-2.01395385703472,-61.829783706665,164.664291381836,137.735400957445,0.0161373315248761,2.99282554180632,5.31428575515747,4.70108894609314,2.86834704034452,9.00100020001647,-0.779088866141916,14.4077457068723,17.0070790143502,0.123827772018421,-6.42012918710951,-0.892911533891039,-0.380975727412831,-28.5463452109999,78.2277147587898,249.290007325222,14.6489838869936,7.8513438546757,-1.74770712782489,-40.4100395611426,14.6468419027358,187.670679229815,25.4395185485864,0,0,-11.0657317733765,54.1706047058105,54.6734801194565,0.0908463513559264,4.60622033533323,3.94285702705383,4.00949977935683,-21.4283247232437,52.7356224060059,45.9782261597926,0.431947504703445,9.06776247045729,7.89890098571777,7.90376496314554,6.83867000811831,10.9628068193851,-1.36358876613366,0.96722562337379,-7.17325159530201,-76.2063013758722,-5.78300060004943,10.4391935806478,0.203459579024143,-9.03249650334311,-14.7675089582541,-6.59952301082745,-1.74161194889053,10.3092228908193,-0.412715938112373,-3.0468635077542,1.01864110560907,2.27722983874868,1124.14034096926,-0.0483939898992384,0.0682459433118382
42.64,-29.1272087097168,-2.5112202167511,-3.14908574305776,-0.091016131483449,-3.93743180942878,-1.99120879173279,-1.98789437904201,-61.829783706665,164.664291381836,143.37966523647,-0.00458911534132605,2.73376145788178,5.31428575515747,4.74104832937429,2.46122939536198,8.69504512136293,-0.539753038485528,14.7306373669407,16.7603410476941,-3.85748731958026,-6.18326073911968,-0.520337204240364,-0.501877331074311,-29.8714194763752,83.2477662285333,259.406263958121,11.1807435532342,7.63092234394067,-2.58684516292768,-43.7780122412597,27.8855679083968,197.135547781339,21.7384490487452,0,0,-11.0657317733765,54.1706047058105,55.9001008851721,0.08846189637142,4.37528166314333,3.94285702705383,4.05227161833923,-21.4283247232437,52.7356224060059,46.60259447214,0.403916171606559,8.75743697862861,7.89890098571777,7.95167724757613,5.83938124316119,10.4002442554093,-1.27723047780404,-1.18944697406452,-1.2302173614007,-77.5740217095584,-4.86513536408881,10.3898459873166,0.353969738684353,-9.81231032388578,-20.8628505789801,-5.21047964298583,-1.68015394085088,10.1981256726633,-0.459991320993096,-2.30418219370566,1.02727692620627,2.19950739454702,1096.01221277046,-0.049063255443443,0.0676292368590501
42.645,-29.1272087097168,-2.5112202167511,-2.26313139671094,-0.0887411008113629,-4.11031297160921,-1.99120879173279,-1.96672386841122,-61.829783706665,164.664291381836,149.024198661663,-0.0253165505460369,2.47468502051277,5.31428575515747,4.78387017642588,2.05409233701599,8.38907545327261,-0.300405798124565,15.0535444240651,16.5135913153632,-7.83899225978376,-5.94638099608202,-0.14774510842071,-0.622784699916453,-31.1965569277818,88.2680570789199,269.523002983688,7.71233783678747,7.41049032242834,-3.42602321224225,-47.1461455228112,41.1249252013596,206.600867664156,18.0372030637817,0,0,-11.0657317733765,54.1706047058105,57.126780142174,0.0860773276844204,4.14433197866636,3.94285702705383,4.09156537168981,-21.4283247232437,52.7356224060059,47.2269925574267,0.375883501838408,8.44709668896044,7.89890098571777,7.99701582960397,4.84004482722105,9.83765486569483,-1.19086807148824,-3.34622241221608,4.71310026548301,-78.9418072628494,-3.94722635981787,10.3404960408504,0.504487075406205,-10.5921613297711,-26.9584828554508,-3.82137003875263,-1.61869300219238,10.0870231568477,-0.507268958195639,-1.56146546497427,1.03591315860169,2.12178124415851,1067.88274328474,-0.049732552901507,0.0670125009986777
42.65,-29.1272087097168,-2.5112202167511,-1.37721929499251,-0.0864661786187098,-4.28318589036212,-1.99120879173279,-1.95115667400989,-61.829783706665,164.664291381836,154.668462940688,-0.0460429974122391,2.21562093658823,5.31428575515747,4.82940504375524,1.64697469203345,8.08312037461907,-0.0610699704681766,15.3764360841336,16.2668533487071,-11.8203073513824,-5.70951254809219,0.224829221229965,-0.743686303577934,-32.5216311931571,93.2881085486633,279.639259616587,4.24409750302801,7.1900688116933,-4.26516124734503,-50.5141182029282,54.3636512070207,216.06573621568,14.3361335639406,0,0,-11.0657317733765,54.1706047058105,58.3534009078896,0.0836928726999141,3.91339330647646,3.94285702705383,4.12663224231143,-21.4283247232437,52.7356224060059,47.8513608697741,0.347852168741521,8.13677119713175,7.89890098571777,8.03936080283623,3.84075606226393,9.27509230171898,-1.10450978315862,-5.50289500965439,10.6561344993843,-80.3095275965356,-3.02936112385725,10.2911484475192,0.654997235066415,-11.3719751503138,-33.0538244761769,-2.43232667091101,-1.55723499415273,9.97592593869175,-0.554544341076362,-0.818784150925736,1.04454897919888,2.04405879995684,1039.75461508595,-0.0504018184457116,0.0663957945458897
42.655,-29.1627599024353,-3.16766420584672,-0.978011836374464,-0.0795583527360758,-4.40744619171772,-2.05823555901868,-2.00874350102292,-61.0187840473691,167.290067822958,159.668470023844,-0.0636566598517114,1.95623646717534,5.17665743542679,4.73977568284324,1.37271826413804,7.76902784896633,0.162176661541069,15.0242694998661,16.7888262429523,-15.3499060310951,-5.54475140953358,0.616552195455304,-0.743757047667856,-32.8409531463236,97.1759211800217,289.297804439213,2.05492687225342,7.05093765258789,-4.79482936859131,-52.6399993896484,62.7200012207031,222.040008544922,12,0,0,-10.8524277193991,51.9824581885977,58.4896094940685,0.0802469711412577,3.6429776355401,4.0527809254027,4.26678516955298,-21.2172426188112,50.4745375035095,48.2238978517054,0.328997441595201,7.79898175544271,8.08300122167032,8.26251224392083,2.98737057919014,8.61807790876475,-1.10997778916796,-6.27935447264567,15.1917999211125,-80.2867897226916,-2.16535964462667,10.2234033828806,0.74491713651119,-11.8604324467984,-36.8359731107609,-3.05154895769394,-1.53207678528458,9.83787241215057,-0.561011565657288,-0.179215777058816,1.0464419512673,1.8313317989745,1012.95250298992,-0.0507778960981675,0.0658602311713317
42.66,-29.2591456894424,-4.94740394667725,-1.41175959019061,-0.0647230752285681,-4.44849906233131,-2.23995738665313,-2.1874732313109,-58.8200156110283,174.409028100498,163.565305483365,-0.0759410991342267,1.6963372520301,4.80352188363983,4.41673980527049,1.32586431678692,7.44105021750843,0.357860794595791,13.5169130237186,18.6262359429966,-18.1060205811615,-5.50340969128259,1.04099383616553,-0.537048456412878,-31.439077597401,99.1256170284019,298.171812768316,2.05492687225342,7.05093765258789,-4.79482936859131,-52.6399993896484,62.7200012207031,222.040008544922,12,0,0,-10.2741214083506,46.0499926924801,56.7597647862444,0.074985048587066,3.30503945435995,4.35080472272319,4.58973706735784,-20.6449604194507,44.3443227019258,48.1654246387178,0.32584918991039,7.41423659108271,8.58213063966139,8.79721111361119,2.3837814927256,7.79951188739503,-1.27258854762187,-4.69373795371858,17.3184315183859,-77.8845466704115,-1.39364757060809,10.1241832590782,0.731136563760855,-11.8502246151315,-36.6590373618678,-7.10746074001383,-1.56904211873602,9.65370607364192,-0.497642454279713,0.283811477537523,1.03679555954159,1.38759735247116,988.423083494329,-0.0506521891092879,0.065463598176852
42.665,-29.3555360725959,-6.72722855421614,-1.84552802722423,-0.0498870903023629,-4.48955389054686,-2.42168787967443,-2.37277052503838,-56.6211423266384,181.528327844934,167.462326763088,-0.0882261241989785,1.43642564361724,4.43036853892207,4.09530493486534,1.2790081352101,7.11305694647057,0.553554258828476,12.0094846694311,20.4637332597353,-20.8622665562696,-5.46206600165597,1.46545571633218,-0.330330008279771,-30.0371352001855,101.07540584783,307.046244253602,2.05492687225342,7.05093765258789,-4.79482936859131,-52.6399993896484,62.7200012207031,222.040008544922,12,0,0,-9.69578752082456,40.1172443073493,55.0298375909516,0.0697228751186331,2.96708515863203,4.64884273127812,4.907092903391,-20.0726509308718,38.2138155816734,48.1069486374409,0.322700788101519,7.02947308018872,9.08128385858794,9.32836536868973,1.78016362417693,6.98090683278792,-1.43520706015324,-3.10804582482923,19.4451645238706,-75.482189067416,-0.621898697577818,10.0249584039743,0.717355333885311,-11.8400162967052,-36.4820931758115,-11.1635659280741,-1.60600921487562,9.46953095318016,-0.434270321152514,0.746860811541357,1.02714870782867,0.943841746535914,963.892494315867,-0.0505264761260834,0.0650669462689684
42.67,-29.451921859603,-8.50696829504668,-2.27927578104037,-0.0350518127948552,-4.53060676116045,-2.60340970730888,-2.56452021283194,-54.4223738902976,188.647288122474,171.359162222609,-0.100510563481494,1.176526428472,4.05723298713511,3.77491453133453,1.23215418785898,6.78507931501267,0.749238391883198,10.5021281932837,22.3011429597795,-23.618381106336,-5.42072428340498,1.88989735704241,-0.123621417024793,-28.6352596512628,103.025101696211,315.920252582705,2.05492687225342,7.05093765258789,-4.79482936859131,-52.6399993896484,62.7200012207031,222.040008544922,12,0,0,-9.11748120977609,34.1847788112316,53.2999928831275,0.0644609525644415,2.62914697745187,4.94686652859862,5.21867041673536,-19.5003687315112,32.0836007800896,48.0484754244533,0.319552536416709,6.64472791582872,9.58041327657901,9.85592871137934,1.1765745377124,6.1623408114182,-1.59781781860715,-1.52242930590215,21.571796121144,-73.079946015136,0.149813376440769,9.92573828017188,0.703574761134976,-11.8298084650382,-36.3051574269183,-15.219477710394,-1.64297454832706,9.28536461467151,-0.37090120977494,1.2098880661377,1.01750231610297,0.500107300032575,939.363074820276,-0.0504007691372038,0.0646703132744888
42.675,-29.7854482661058,-9.98142559680891,-3.35286396118699,-0.0135039419999445,-4.462446835467,-3.04587488358675,-3.02317485851631,-51.0973227230939,193.532335069797,175.203450975042,-0.111127968712901,0.953446668344098,3.55802298086186,3.32879498044165,1.39543674698797,6.42978707935188,0.574150394682187,8.34603868859856,22.4192863407654,-26.8502419640247,-5.52090828832573,2.2702129206481,0.0610734316576674,-27.5795173029282,103.416346099596,321.65527563639,1.5618255848818,7.61889770232051,-4.56542378597157,-53.0705256305595,67.1805314795823,210.38052119345,10.9917428334026,0,0,-8.90575988244951,22.9520891985063,48.7251725132687,0.0558400697009783,2.38494884991549,4.80080791571153,5.08040075327465,-19.2593582185314,22.8251785619605,44.9412219681227,0.31377730609534,6.30043896675245,9.36952049404345,9.66997683040507,0.848596281678427,5.58904393435812,-1.5593394266722,-1.50445588227749,24.6503235162874,-67.9358147789113,0.930756127960138,9.56324210635645,0.802842230992924,-10.3135299819969,-32.5075467899696,-20.9643574297189,-1.65256357192993,9.23759078979492,-0.354462891817093,1.33000004291534,1.01499998569489,0.384999990463257,933,-0.0503681600093842,0.0645674243569374
42.68,-30.2020104338531,-11.3488644253653,-4.6504837104205,0.0103935914020146,-4.35604009983379,-3.57963553703718,-3.57879901555901,-47.3780111255059,197.634651295813,179.02908801647,-0.121160820593595,0.743277088170773,3.01468821136435,2.83815777920028,1.63230798192771,6.0649509243872,0.269212712920657,5.96287272333265,21.9352582744772,-30.2485223460893,-5.67065447133361,2.63504907561278,0.238046193394263,-26.6450742305108,103.261726022865,326.290516632302,0.896049954089223,8.38574615731297,-4.2556848938058,-53.6518136680399,73.2030514421728,194.638111378377,9.63041389696718,0,0,-8.8224466180108,9.86374760891176,43.1542091623967,0.0460432839789282,2.17359839749819,4.49922121546181,4.78098436493963,-19.1343893604849,12.4717144996522,40.7663495786007,0.307082362372441,5.97034175731644,8.90995980794865,9.23199448941031,0.617170362484418,5.10168817511426,-1.45043311175737,-2.0355422327881,28.0620491224156,-61.8316830540553,1.71488159534693,9.10855824158704,0.941697782509332,-8.26985592433591,-27.4420586240235,-27.3004192696713,-1.65256357192993,9.23759078979492,-0.354462891817093,1.33000004291534,1.01499998569489,0.384999990463257,933,-0.0503681600093842,0.0645674243569374
42.685,-30.618592465325,-12.716368460103,-5.94816533651965,0.0342922643554212,-4.24962829020622,-4.11342164281002,-4.13946597297908,-43.6585221729231,201.737163140361,182.854907483012,-0.13119415088981,0.533097486082414,2.47132753300367,2.34634809391599,1.86919051204818,5.70009737224762,-0.0357395097631827,3.57959311704031,21.45120712736,-33.6469647748081,-5.82040779497299,2.99990262775237,0.415027394058984,-25.7105865992706,103.107098573092,330.925978659209,0.230242575853475,9.15263117939593,-3.9459312317725,-54.2331294241811,79.2258585880146,178.894950888094,8.26902004570004,0,0,-8.73912938078756,-3.22521809691901,37.5829801607044,0.0362460310981482,1.96223786685608,4.197620134081,4.4762174624814,-19.0094145433111,2.11775673346422,36.5912781107138,0.300387099401832,5.6402288072286,8.45037720774931,8.79079745639864,0.385733407769014,4.61430917636063,-1.34152160365601,-2.56665390809726,31.473937416332,-55.7272602542994,2.4990444536768,8.65385269526382,1.08055995533858,-6.22608441428551,-22.37632891079,-33.6367832440874,-1.65256357192993,9.23759078979492,-0.354462891817093,1.33000004291534,1.01499998569489,0.384999990463257,933,-0.0503681600093842,0.0645674243569374
42.69,-31.0084636874699,-13.6464567658662,-7.18550439528895,0.0582722093773278,-4.13454808531907,-4.61177105537011,-4.66891144961044,-40.0700948007638,205.625129525354,186.681354818154,-0.140741331144179,0.325677461574376,1.94778831181548,1.87249078528523,2.08964420552567,5.34256607075886,-0.297051256407044,1.13422557449311,20.878327074835,-36.9733849447231,-5.93100275034377,3.36259294911862,0.58978434804349,-24.595721070072,102.520416132263,335.307310790392,-0.460220635270369,9.91379474802514,-3.58736264619332,-55.6579054650165,84.6158533398905,163.171474861482,6.92884110513814,0,0,-8.67740744982172,-15.7579297537624,31.7985853242607,0.0260737341097572,1.76301632563654,3.89380639315337,4.16430641822508,-18.9073062255988,-8.03145542758184,32.1627922054055,0.293987895829204,5.31279232989428,7.99961415128807,8.35541912584764,0.192415051881501,4.15786523315417,-1.24569271158896,-3.15023776120162,34.661349026653,-49.6342425519239,3.21559032379049,8.22893261657709,1.21017789723714,-4.24455773021013,-17.1999143411445,-39.7608594592842,-1.65247835794946,9.23818728341686,-0.352289948569326,1.36050941968116,1.02745279314399,0.373169824340922,931.434504313039,-0.0503592577070493,0.0646474165104936
42.695,-31.031383984243,-8.56762345645827,-7.59384517089336,0.0833674634739573,-3.90039369192859,-4.62329496014549,-4.71482633749931,-38.2822606473518,206.565651772222,190.516244869028,-0.143609704790468,0.156176259079829,1.6965658250757,1.66843760620215,2.08440080009999,5.08563920490062,0.0411483935492062,-2.1639411716588,19.0852118860537,-39.3102606961673,-5.503665208151,3.69554919364919,0.733977997249643,-21.0030173524777,95.9985260503242,336.197395044751,-1.4893535896724,10.5963251423159,-2.558229683978,-68.6694153087648,81.3125063215528,147.719158431944,5.8801600200025,0,0,-8.91234799249751,-20.6486580887442,23.0861597663818,0.0107498577477127,1.73056028444946,3.55961134198577,3.81759168841279,-19.1193249713512,-15.3675476800294,24.2533069085294,0.29165603125953,5.02213876776247,7.67002862452686,8.03841495350994,0.522749593699226,4.1264048006001,-1.32958719839981,-4.45461577758947,34.7649224671602,-43.6981897428536,3.00323240405052,8.21320240030006,1.21279959994999,-3.11819656469407,-10.5032440783493,-42.9683994449923,-1.65122254460823,9.24697791429919,-0.320266903700091,1.81013144368395,1.21097199554398,0.198826596124841,908.363520440055,-0.0502280629197945,0.0658262748746726
42.7,-31.0543053739681,-3.48854796340099,-8.00220541818608,0.108463914235223,-3.6662281329097,-4.63481941443709,-4.76302808888092,-36.4943412412502,207.506218867797,194.351317786243,-0.146478215214862,-0.0133330260623025,1.44533135881721,1.46133984700932,2.07915714464307,4.82870008751094,0.379364170521333,-5.46226519055623,17.2920111927571,-41.6472478812938,-5.07630728841103,4.02852131516439,0.87817852231528,-17.4101423171724,89.4763249727204,337.087521742687,-2.5185356181746,11.2788880829991,-1.52904764766216,-81.6815456050354,78.009001783449,132.26610516027,4.83142892861608,0,0,-9.14729973828916,-25.5396196376087,14.3733187573771,-0.00457474933181599,1.69810269559936,3.22540035476117,3.46703160916256,-19.3313538271958,-22.7039897532892,16.3434444486523,0.289324055495132,4.73147134584515,7.34042738151336,7.71877926907337,0.853099887485947,4.0949428678585,-1.41348568571072,-5.75905599311023,34.8685008465564,-37.7618538737095,2.79086435804477,8.19747143392926,1.21542142767847,-1.9917816887605,-3.80625448551438,-46.1760923819181,-1.64996667138367,9.25576896436186,-0.288242331815222,2.25977490786717,1.39449994903845,0.0244750543696715,885.291436429554,-0.0500968618765296,0.0670051894525928
42.705,-31.0772256707412,1.59028534600699,-8.41054619379048,0.133559168331853,-3.43207373951922,-4.64634331921247,-4.81245003358652,-34.7065070878382,208.446741114665,198.186207837116,-0.149346588861151,-0.182834228556849,1.19410887207742,1.25086225422147,2.07391373921739,4.57177322165271,0.717563820477583,-8.76043193670814,15.4988960039758,-43.9841236327381,-4.64896974621826,4.36147755969497,1.02237217152143,-13.817438599578,82.9544348907811,337.977605997046,-3.54766857257663,11.9614184772898,-0.499914685446838,-94.6930554487837,74.7056547651113,116.813788730732,3.78274784348043,0,0,-9.38224028096495,-30.4303479725904,5.6608931994982,-0.0198986256938605,1.66564665441228,2.89120530359357,3.11331209015839,-19.5433725729482,-30.0400820057367,8.4339591517762,0.286992190925458,4.44081778371335,7.01084185475215,7.39670766581322,1.18343442930367,4.06348243530443,-1.49738017252157,-7.06343400949808,34.9720742870636,-31.8258010646392,2.5785064383048,8.18174121765222,1.21804313039132,-0.865420523244439,2.89041577728082,-49.3836323676262,-1.64871085804244,9.26455959524419,-0.256219286945987,2.70939693186995,1.57801915143844,-0.14986817384641,862.22045255657,-0.0499656670892748,0.0681840478167718
42.71,-31.0557754140738,6.69561993921882,-8.05774022160207,0.15833892788756,-3.18307584942636,-4.63645356758503,-4.84058839904451,-32.8589211955237,208.613248582737,201.516616420806,-0.154541233396086,-0.350832117553128,0.963645819065166,1.0575804758733,2.30408702418613,4.33114705582202,0.888578426370062,-11.2674564297944,14.5784914119481,-47.2789231768422,-4.35781903765689,4.70974142769671,1.08861070007143,-8.98047624537147,73.2203917570324,338.601767124133,-4.86070544615803,12.8192783502769,0.392558700736095,-107.544479245738,68.998401618926,102.591730154586,3.1357026227166,0,0,-9.64510088273878,-34.0808448791504,-2.7112847532391,-0.0340849996263438,1.646431756396,2.57733674249621,2.77743472787245,-19.8143355639446,-36.4894820047965,0.413521682608624,0.285892297119923,4.16981387482721,6.67416808389014,7.06522603244137,1.49581577201756,4.080710786815,-1.50571895091336,-8.00101720508137,35.2353455694017,-25.9894506116144,2.47563807531382,8.23581577201757,1.21185784263703,0.246713887408496,7.99192236169226,-52.6389030626708,-1.65996139545151,9.28444648385109,-0.233129437097958,2.79327170452207,1.67225370754641,-0.116139084827989,835.093708541688,-0.0501908925163292,0.0696738263111588
42.715,-30.9037534667224,11.8779839102815,-5.46506261240882,0.182185576744147,-2.89044264141805,-4.56354857363352,-4.80475737487785,-30.8358424693782,206.501918141435,203.361787400734,-0.16658075921988,-0.514374401345913,0.794317919124917,0.921899415015294,3.22701219512194,4.13853658536586,0.567560975609768,-11.4457994579946,16.2265130984643,-53.3921258657031,-4.46749999999999,5.10298780487805,0.925426829268283,-0.482761216501052,54.0353056308341,338.443239987955,-7.00898108831266,14.1929446662345,0.882696155912992,-119.922378260915,56.2178949728245,91.9928052948742,3.67073170731707,0,0,-9.99007651073176,-34.0808448791504,-10.0805922526516,-0.0449212115163656,1.66618712138982,2.32334492846233,2.49965345647019,-20.2587114723717,-40.3282703771824,-7.93192310286091,0.288418110827994,3.95668682741191,6.31669799583714,6.71071423772691,1.75530487804878,4.24121951219513,-1.29170731707317,-7.85900331225533,35.9685335742246,-20.4476061427281,2.69500000000001,8.49530487804879,1.179756097561,1.31677205660944,8.39814814814816,-56.0340258958145,-1.70801408697919,9.33698421571313,-0.236332949069215,1.80079272643822,1.50371954717287,0.529908532594762,796.036585365854,-0.0514649655442776,0.072078314905123
42.72,-30.75172427022,17.0605950018425,-2.87226137164773,0.206033362725757,-2.597795479225,-4.4906401032148,-4.76692139729964,-28.8126672729296,204.390487021555,205.207046367453,-0.178620859147237,-0.677924483635851,0.624981944800999,0.782905178427105,4.14998137565056,3.94591693029902,0.246528217165017,-11.6241509904639,17.8746133707269,-59.5056200620119,-4.57718619246862,5.49625293397285,0.762235177058871,8.01535902504538,34.849304665757,338.284705292427,-9.15735917077258,15.5666764853305,1.37285698324454,-132.300867514947,43.4367788895647,81.3933750265094,4.20578630472497,0,0,-10.3350685888525,-34.0808448791504,-17.4502511567419,-0.0557579401300482,1.68594342841621,2.06934100285466,2.22077209439364,-20.7031085708188,-44.167241801801,-16.2777658400154,0.290944044979235,3.74354961705504,5.95921086185939,6.35399387106353,2.0148063577916,4.40173589141749,-1.07768547811001,-7.71698264751126,36.7017565410429,-14.9054974115524,2.91437238493725,8.75480635779161,1.14765282171653,2.38688125142523,8.80439330543933,-59.4293106250449,-1.75606906989458,9.38952445283157,-0.239536613799614,0.808266422095342,1.33517735026505,1.17598695673238,756.977599755077,-0.0527390993262686,0.074482918156881
42.725,-30.5997023228687,22.2429589729052,-0.279583762454478,0.229880011582344,-2.30516227121669,-4.41773510926329,-4.72610570788737,-26.7895885467841,202.279156580253,207.052217347382,-0.190660384971031,-0.841466767428636,0.45565404486075,0.641027804095721,5.07290654658637,3.75330645984286,-0.0744892335952772,-11.8024940186641,19.5226350572432,-65.6188227508728,-4.68686715481172,5.88949931115419,0.599051306255724,16.5130740539158,15.6642185395587,338.126178156249,-11.3056348129272,16.940342801288,1.86299443842144,-144.678766530124,30.6562722434632,70.7944501667974,4.74081538932544,0,0,-10.6800442168454,-34.0808448791504,-24.8195586561544,-0.06659415202007,1.70569879341002,1.81534918882078,1.94147465028415,-21.1474844792459,-48.0060301741869,-24.6232106254849,0.293469858687306,3.53042256963974,5.60174077380639,5.9950962921202,2.27429546382282,4.56224461679762,-0.863673844269816,-7.57496875468522,37.4349445458657,-9.36365294266608,3.13373430962344,9.01429546382283,1.1155510766405,3.45693942062617,9.21061909189523,-62.8244334581886,-1.80412176142226,9.44206218469361,-0.242740125770871,-0.184212555988508,1.16664318989151,1.82203457415513,717.920476579243,-0.0540131723542169,0.0768874067508451
42.73,-30.5260581970215,24.7534561157227,3.16402411042792,0.252351491996382,-2.03766873608369,-4.38241767883301,-4.71900471626076,-25.8095467376709,201.256362915039,207.685084085438,-0.202635256792873,-0.991754481136982,0.373626381158829,0.584128267776422,5.68432276919079,3.6122480841668,-0.220168723210826,-11.2386721700269,19.2737052591406,-70.076612322588,-4.78494297960775,6.24994064164176,0.351463826470954,22.3878156374325,6.07040372406871,333.338345848988,-13.6265610771685,17.5644152268324,2.20538051273006,-152.026803610272,13.8619682854562,67.586933012711,4.71910637745162,0,0,-10.8471610641479,-34.0808448791504,-29.7982884408218,-0.0737738997932901,1.69026454575455,1.69230771064758,1.7933070037261,-21.3627538919449,-49.8656578063965,-31.3773395121687,0.297772529659541,3.38196481333875,5.42857122421265,5.81826224973335,2.50393064034288,4.70179659696063,-0.761404468112732,-7.69343525453843,36.813931422872,-5.15663826791676,3.38185127938694,9.26218872580853,1.19129042732824,4.94803285339284,11.408340990252,-67.0682687666668,-1.80486298707232,9.46280373584328,-0.272210954376274,-0.969769604266627,0.844133752123816,2.15957817573921,694.6461488505,-0.0537276020799771,0.0778646315844636
42.735,-30.5260581970215,24.7534561157227,7.40677717344675,0.273528899748968,-1.79381909536255,-4.38241767883301,-4.74257421407409,-25.8095467376709,201.256362915039,207.178911550405,-0.214548277613359,-1.12957539884038,0.373626381158829,0.607615841858201,6.0030144174568,3.51963683595273,-0.201101701519699,-9.97762576188346,17.2425798444243,-72.9787004565288,-4.87210650733862,6.57952773087414,0.0246005974801787,25.7976851250523,5.48864098111188,324.201644273186,-16.1094809364817,17.484173548508,2.40891995203311,-154.648519092802,-6.70181431748648,71.3240675185343,4.17433432913365,0,0,-10.8471610641479,-34.0808448791504,-32.5305687911158,-0.0775176724707585,1.64177047745203,1.69230771064758,1.76889998031855,-21.3627538919449,-49.8656578063965,-36.6357750348783,0.303744190761774,3.29427870100212,5.42857122421265,5.81228738092862,2.70549629822053,4.82164644759058,-0.764128328354319,-8.05661662008373,34.920680415446,-2.20410827765027,3.65696116378751,9.49916456682685,1.36834134303158,6.83455827997541,15.2890011369121,-72.1090916088188,-1.76115420596416,9.45367030859582,-0.326357654512029,-1.56084728123755,0.376991711599298,2.20724571697866,686.202182101572,-0.0519767464328848,0.0775008271231421
42.74,-30.5260581970215,24.7534561157227,11.6497325517135,0.294707317344088,-1.54995782669612,-4.38241767883301,-4.7608584917555,-25.8095467376709,201.256362915039,206.672714878585,-0.22646186650503,-1.2674028885202,0.373626381158829,0.630206353793075,6.32172126250162,3.42702117158073,-0.182033770619584,-8.71651922087043,15.2113575756993,-75.8809269762467,-4.95927419145344,6.90913053643331,-0.302278217950394,29.2077172119515,4.90685049685787,315.0645070147,-18.5925191935757,17.4039280438674,2.6124690970936,-157.270359591568,-27.266577502309,75.061380229236,3.62953630341603,0,0,-10.8471610641479,-34.0808448791504,-35.2629794299201,-0.0812616236696459,1.59327409671481,1.69230771064758,1.74567189263197,-21.3627538919449,-49.8656578063965,-41.8944613055505,0.309716136622059,3.20658840736215,5.42857122421265,5.80391139149831,2.90707156773605,4.94150201324846,-0.766852318482905,-8.41981530389548,33.0273391285384,0.748562503708213,3.93208416677491,9.73615170801402,1.5454007013898,8.72117366533089,19.1698463324562,-77.1501548220949,-1.71744334060722,9.44453644582181,-0.380506936627667,-2.15195314368732,-0.0901726045458638,2.25491553123995,677.757812702949,-0.0502258072964192,0.0771370053138419
42.745,-30.5260581970215,24.7534561157227,15.8924856147323,0.315884725096674,-1.30610818597498,-4.38241767883301,-4.77337136339863,-25.8095467376709,201.256362915039,206.166542343552,-0.238374887325516,-1.4052238062236,0.373626381158829,0.652647686730476,6.64041291076763,3.33440992336667,-0.162966748928457,-7.45547281272698,13.1802321609829,-78.7830151101875,-5.04643771918431,7.23871762566569,-0.629141446941168,32.6175866995714,4.32508775390104,305.927805438898,-21.075439052889,17.323686365543,2.81600853639665,-159.892075074098,-47.8303601052517,78.7985147350592,3.08476425509807,0,0,-10.8471610641479,-34.0808448791504,-37.9952597802141,-0.0850053963471143,1.54478002841229,1.69230771064758,1.72399491582692,-21.3627538919449,-49.8656578063965,-47.1528968282601,0.315687797724292,3.11890229502552,5.42857122421265,5.79304249867451,3.1086372256137,5.06135186387841,-0.769576178724492,-8.78299666944078,31.1340881211124,3.7010924939747,4.20719405117548,9.97312754903233,1.72245161709313,10.6076990919135,23.0505064791163,-82.1909776642469,-1.67373455949907,9.43540301857436,-0.434653636763422,-2.74303082065824,-0.557314645070382,2.3025830724794,669.31384595402,-0.0484749516493269,0.0767732008525204
42.75,-30.1333995501331,31.5603755587772,19.6239582779055,0.329036849513936,-1.16040919086015,-4.18899331249693,-4.58636626859427,-24.2609713824114,196.187378024651,204.410770737788,-0.247863541198931,-1.49600375395969,0.311517650616165,0.613524441560459,7.02305806319244,3.30385173026945,-0.0994439885104864,-7.04743781989255,11.7178697413503,-83.5756613997849,-4.9025543701272,7.60690979346193,-0.655777595404191,32.1363892730555,8.91208368583785,291.266086870621,-23.1354498108603,16.2582629558538,2.20131540210514,-157.572962029788,-62.9766916265372,84.2476924191322,2.39443988510464,0,0,-11.0412843103608,-30.6049711537612,-37.6184936974169,-0.0832178246679861,1.46317253982108,1.64616979988178,1.65801220453342,-21.874533971741,-53.4863587694999,-49.7333572216247,0.339826010858215,3.09980661087229,5.21207795061926,5.5631129127531,3.34992750649705,5.07394439885104,-0.788166803446849,-8.83701415590576,26.2716391333201,7.01136119934279,3.72921830118999,9.85053583641089,1.66118451648201,10.612160603589,24.6735559135482,-85.9208726576392,-1.66693365573883,9.43398189544678,-0.443078637123108,-2.83500003814697,-0.629999995231628,2.30999994277954,668,-0.0482025258243084,0.0767165943980217
