time,hip_angle_l,hip_angle_l_velocity,hip_angle_l_velocity_filt,hip_angle_l_torque_estimated,hip_angle_l_torque_desired,hip_angle_l_torque_measured,hip_angle_l_torque_interaction,knee_angle_l,knee_angle_l_velocity,knee_angle_l_velocity_filt,knee_angle_l_torque_estimated,knee_angle_l_torque_desired,knee_angle_l_torque_measured,knee_angle_l_torque_interaction,thigh_imu_l_accel_x,thigh_imu_l_accel_y,thigh_imu_l_accel_z,thigh_imu_l_gyro_x,thigh_imu_l_gyro_y,thigh_imu_l_gyro_z,shank_imu_l_accel_x,shank_imu_l_accel_y,shank_imu_l_accel_z,shank_imu_l_gyro_x,shank_imu_l_gyro_y,shank_imu_l_gyro_z,foot_imu_l_accel_x,foot_imu_l_accel_y,foot_imu_l_accel_z,foot_imu_l_gyro_x,foot_imu_l_gyro_y,foot_imu_l_gyro_z,insole_l_force_y,insole_l_cop_x,insole_l_cop_z,hip_angle_r,hip_angle_r_velocity,hip_angle_r_velocity_filt,hip_angle_r_torque_estimated,hip_angle_r_torque_desired,hip_angle_r_torque_measured,hip_angle_r_torque_interaction,knee_angle_r,knee_angle_r_velocity,knee_angle_r_velocity_filt,knee_angle_r_torque_estimated,knee_angle_r_torque_desired,knee_angle_r_torque_measured,knee_angle_r_torque_interaction,thigh_imu_r_accel_x,thigh_imu_r_accel_y,thigh_imu_r_accel_z,thigh_imu_r_gyro_x,thigh_imu_r_gyro_y,thigh_imu_r_gyro_z,shank_imu_r_accel_x,shank_imu_r_accel_y,shank_imu_r_accel_z,shank_imu_r_gyro_x,shank_imu_r_gyro_y,shank_imu_r_gyro_z,foot_imu_r_accel_x,foot_imu_r_accel_y,foot_imu_r_accel_z,foot_imu_r_gyro_x,foot_imu_r_gyro_y,foot_imu_r_gyro_z,insole_r_force_y,insole_r_cop_x,insole_r_cop_z
71.795,-19.0329909317801,29.5616217671464,-0.609561877595421,-0.0555521867383809,2.50423246556389,2.11657795322241,2.10901211628731,-49.2395923633384,-50.4654609320671,-89.6776174223579,0.458329594522793,1.16485562280461,-0.967435843305217,-0.941784372186891,2.82275447067672,8.13499429791571,0.901272656685995,13.9209823221907,-24.5147752432185,15.4112288673147,-8.0701584451508,2.95789580957464,0.000441122946643058,3.81917937316313,-17.865768711958,-129.770286434252,-3.95737839413867,8.74383866285105,1.76112236012663,-15.3033757118027,9.12292364592218,-70.5492522543955,694.969451386698,0.21614571444668,-0.14174163567247,-24.7758286526928,37.9466942750216,25.8101772882892,0.208618057585123,4.1071663273158,3.58011521670737,3.56169278167797,-11.1060648189358,-14.4837510967424,-10.9325693484135,-0.100542860952984,-2.4381483260176,-3.1833374179321,-3.16585757360566,5.82134617717709,7.35454177080047,-0.973218401960562,10.5647792423163,-30.4131756939932,-11.8117006110681,2.31234756023586,8.45999999999998,2.50507922257539,12.9709315021959,52.8413544449747,-20.5001040963642,-12.3171922871475,1.37611078961173,2.63827676435572,75.4937817460485,-135.687013015523,-65.625531961769,0,0,0
71.8,-18.6937772528552,32.4823539447319,5.08109926148539,-0.0604006382167784,2.39740639792205,2.23512189220162,2.23215116766436,-49.6677806152084,-47.1796384454627,-81.8168230921741,0.481005656346032,1.41942080529481,-0.692324411211399,-0.667743016723229,3.02374796787421,8.30545713731104,0.781694246960916,12.9786780690379,-26.2486150690196,8.58580506031148,-7.79538252493145,3.39550190473878,0.198890398660624,2.79206773722661,-17.7181410456308,-125.118444437854,-3.90558400717113,8.82244419195968,1.86471116439119,-6.95960157984853,10.9573073452401,-71.7692059898788,715.832067551501,0.224970070103454,-0.13377873971055,-24.3810057443593,39.041969084252,26.9732900687718,0.199739810373028,4.02805980073015,3.7612861423171,3.74344999743826,-11.2117218210132,-12.6582937283873,-13.9946192366718,-0.0929436972280952,-2.30266668699548,-3.1408405341471,-3.11596225787454,5.73484264673767,7.66748101327251,-0.690809817290672,13.0053472579819,-28.7358741233813,-11.2651641442395,1.29211474534736,8.45999999999998,2.36769126246571,8.86562597262699,60.935747979557,-22.8966979135494,-11.8083882679991,1.57780431191362,2.58709169671272,49.5096470385705,-109.079543304545,-73.1322577206248,0,0,0
71.805,-18.3545473985605,35.403225397134,10.7720317591633,-0.065249320893091,2.29057523629004,2.35367148393649,2.35869022359179,-50.0959892851915,-43.8936592747475,-73.9556539208129,0.50368279947497,1.67399812669983,-0.417199860456951,-0.401900764425932,3.22475104942615,8.47592810520951,0.662110135151543,12.0363288822028,-27.9825375727963,1.76005578366888,-7.52059350205033,3.83312886710502,0.397349137408115,1.76490712357631,-17.5705063396932,-120.466380618845,-3.85378715039352,8.90105346936497,1.96830490827734,1.38457042412569,12.791778516958,-72.9892178987319,736.695678548031,0.233794846548729,-0.125815464038746,-23.9861640089356,40.1372961215502,28.136458312169,0.190861139802619,3.94894950195783,3.94246570704398,3.92697359792719,-11.317383861334,-10.8327493132834,-17.0568151384672,-0.0853441711378575,-2.1671785875452,-3.09834162390253,-3.065019637266,5.64833499138621,7.98043517822047,-0.408387765996174,15.446031651885,-27.0584925708147,-10.7186016158751,0.271833280760941,8.45999999999998,2.23029675102514,4.76012468198186,69.0305274944709,-25.2934060120668,-11.299559986583,1.77950745195059,2.53590418831498,23.5242732802744,-82.4708048190829,-80.6393414369341,0,0,0
71.81,-18.0153337196356,38.3239575747195,16.4626928982441,-0.0700977723714884,2.1837491686482,2.4722154229157,2.48318117067994,-50.5241775370615,-40.6078367881432,-66.094859590629,0.526358861298209,1.92856330919004,-0.142088428363134,-0.143015021309522,3.42574454662364,8.64639094460484,0.542531725426463,11.09402462905,-29.7163773985974,-5.06536802333436,-7.24581758183098,4.27073496226916,0.595798413122096,0.737795487639794,-17.422878673366,-115.814538622447,-3.80199276342599,8.9796589984736,2.0718937125419,9.72834455607988,14.6261622162759,-74.2091716342153,757.558294712833,0.242619202205503,-0.117852568076826,-23.5913411006021,41.2325709307807,29.2995710926517,0.181982892590524,3.86984297537218,4.12363663265371,4.11071686662906,-11.4230408634113,-9.00729194492831,-20.1188650267255,-0.0777450074129684,-2.03169694852308,-3.05584474011753,-3.02063264340567,5.56183146094679,8.29337442069251,-0.125979181326285,17.8865996675507,-25.3811910002028,-10.1720651490465,-0.748399534127563,8.45999999999998,2.09290879091546,0.654819152412951,77.1249210290532,-27.689999829252,-10.7907559674346,1.98120097425248,2.48471912067198,-2.4598614272035,-55.863335108105,-88.1460671957899,0,0,0
71.815,-17.7274311943752,36.849939483176,21.2139401578222,-0.0659663772335381,2.02637101281668,2.54058958059257,2.55579289653571,-50.8490539230516,-40.7302509291403,-59.9483458124194,0.552958441254135,2.2496438586327,0.160125780626944,0.143494305360759,2.89485225302729,8.65535147746971,0.580136081022968,11.6290421079717,-29.6143444112787,-9.45141794514179,-7.13832192807519,5.09610031413337,0.736462675478064,-1.52694642095356,-13.9379893499429,-113.397075812501,-3.80089616775513,8.9813232421875,2.07408690452576,9.90499973297119,14.664999961853,-74.2350006103516,758,0.242806032299995,-0.117683976888657,-23.24962608751,41.8317058513857,31.7589234428042,0.169517283150172,3.7313163194894,4.12982476210855,4.11762550777852,-11.4837613995959,-8.39269727478358,-18.9868208466698,-0.0751336588075407,-1.89263715253323,-2.92321632373917,-2.886607150644,4.89909253248869,8.42040824306887,-0.264489891682644,18.0935305191835,-21.2461830000423,-13.4275377886174,-1.40950155763239,8.46802721620458,1.92677993717331,-2.27630993915747,75.6181786699868,-28.374989922338,-10.7697299448162,2.15529510720333,2.26062146206357,-21.4966785039023,-32.7020477721843,-97.0988150857055,0,0,0
71.82,-17.4406525026471,35.2809391672851,25.9446373876967,-0.0616409582986996,1.86790713265739,2.60787528556797,2.62559301586366,-51.1716799512456,-40.9263758382841,-53.8392096198906,0.579641587191693,2.57214742748189,0.462911473382267,0.431347146118158,2.34815586751653,8.66081844132483,0.621138309936269,12.1959865077606,-29.4726083113314,-13.7844930006715,-7.03444961482815,5.92981230203728,0.875870253783305,-3.81834670343385,-10.3810881750766,-111.028058141954,-3.80089616775513,8.9813232421875,2.07408690452576,9.90499973297119,14.664999961853,-74.2350006103516,758,0.242806032299995,-0.117683976888657,-22.9090763910829,42.4200805788171,34.2461923467654,0.156974689920853,3.59151121413506,4.13222788817182,4.11900071290441,-11.5435070472677,-7.80432228666707,-17.7641177752388,-0.0726303188372283,-1.75350673875804,-2.78864491378837,-2.75131469884499,4.22392249638289,8.54341492980879,-0.412097915770555,18.2521399643625,-17.0582187135062,-16.7650854754701,-2.06280373831776,8.47622766198725,1.76003753959254,-5.18189998807577,73.9038467944345,-29.0229263792397,-10.759255094084,2.32878381229932,2.03279479465109,-40.3823047268821,-9.61642617388353,-106.082402856676,0,0,0
71.825,-17.1538601359064,33.7118640337739,30.6755602003869,-0.0573153331066996,1.7094356961641,2.67516419905536,2.69373707737893,-51.494321363829,-41.1225100996242,-47.7297821138243,0.606326005512349,2.89466637488094,0.765711604442522,0.720247418306503,1.80143341284428,8.66628566587157,0.662142494036681,12.7629579422356,-29.3308654527127,-18.1177746784441,-6.93057234844043,6.76356404541246,1.01528447972473,-6.10985625110333,-6.8240173897399,-108.658927505041,-3.80089616775513,8.9813232421875,2.07408690452576,9.90499973297119,14.664999961853,-74.2350006103516,758,0.242806032299995,-0.117683976888657,-22.5685104555783,43.0084833628374,36.733579855891,0.144431498599253,3.45169944218851,4.1346311288279,4.11879747898273,-11.6032555439045,-7.21591924194916,-16.5413563993364,-0.0701268594954042,-1.61436969056322,-2.65406708681359,-2.61686799052942,3.54872026486266,8.66642748211004,-0.559712978532067,18.4107569728168,-12.8700547243194,-20.1027923129445,-2.71613707165111,8.48442849880734,1.59328719091751,-8.08762858975974,72.1894331711413,-29.6708937329253,-10.7487797438597,2.50228079018655,1.80495726334716,-59.2688315090257,13.4702962599329,-115.066419009115,0,0,0
71.83,-16.8828374281815,31.7527284126788,34.0539298056791,-0.0573858904604186,1.56858595885136,2.66835121520248,2.68626167851399,-51.8477419267353,-41.4343869312337,-43.0604280004621,0.63295570022921,3.21298275463198,1.0604341232236,1.00237440062638,1.35365220610923,8.68908694847271,0.740621906818882,13.415549841727,-28.2868799067503,-20.9428831979156,-6.81767676643013,7.19390175871643,0.928259055846975,-7.97914757295609,-4.52215449430711,-106.904924329863,-3.8100388858834,8.94157227315788,2.04824877861362,10.4016753775748,15.327234128277,-74.1159148518328,766.879580376427,0.244274331235437,-0.114700066752362,-22.2029121355612,43.3486913964573,38.8393944373241,0.133675043061993,3.32275614625743,4.11364766445472,4.09385935683908,-11.6692412814841,-6.99479560260014,-15.1683949124868,-0.0675619071382697,-1.48647863945605,-2.51156857369013,-2.47551318434994,3.08253119407588,8.84377500771367,-0.70647257019441,17.9140472571718,-9.69889159343445,-23.4942771054506,-3.27203208886148,8.58958407898798,1.42273915458194,-10.250241466397,67.5290033178298,-31.3548875708991,-10.755973334308,2.63187805643055,1.76763266067746,-72.4543521764109,31.0836123307183,-125.012699475358,0,0,0
71.835,-16.6452415917811,28.9671964957883,34.5662461146221,-0.0667714090874887,1.46508112888765,2.50452584208106,2.52047312510344,-52.2663628331896,-41.9914930184143,-41.4426331402347,0.659468172654694,3.5223792374987,1.33802713199517,1.26895769833425,1.11553656278926,8.74861585930269,0.898502931194078,14.2495297519056,-25.3312039798721,-20.5722254600584,-6.68567787719841,6.76943474236346,0.361440296204889,-8.95372179749431,-4.88003093085885,-106.454383458847,-3.8385534518959,8.81759583479973,1.96766410602239,11.9507213238837,17.3926286410785,-73.744506844412,794.573464979944,0.24885370318296,-0.105393764035491,-21.7842907354443,43.1629893673971,40.1366029803928,0.126704971565781,3.21684794907091,4.04311167820851,4.018303365379,-11.7484398113405,-7.55190193661199,-13.4772435176364,-0.0648667810251741,-1.38242255716881,-2.35229390537765,-2.31853051181028,3.05923727244676,9.13624313483493,-0.851412526997866,16.0288053146225,-8.68277813965361,-26.9995489884619,-3.62144091329838,8.90016970070966,1.24415242209197,-10.8381813264463,56.6265533043071,-35.2340125170939,-10.8006048718635,2.66845110821452,2.13398306441138,-73.5595204528413,37.0986204788222,-136.99742420718,0,0,0
71.84,-16.4076344256473,26.1815317510919,35.0785868533161,-0.0761573752620592,1.36157136330667,2.34069265696341,2.35366222302839,-52.6850037015393,-42.5486256711419,-39.8247611356241,0.685981909324727,3.83179047390521,1.6156333777611,1.53743044335467,0.877409564949087,8.80814760876272,1.05639148410985,15.0835494303313,-22.3753871118882,-20.2015500474248,-6.5536726936131,6.34494748534402,-0.205405492132043,-9.92834249450521,-5.23792443271205,-106.003821103836,-3.86706937762257,8.69361348463775,1.88707559075925,13.4998411362909,19.4581216420071,-73.3730811264382,822.26867016353,0.253433293497367,-0.0960870175485219,-21.3656493734085,42.9772784831545,41.4338733807188,0.119734567702419,3.1109347016628,3.97257232846099,3.94200414286786,-11.8276421177707,-8.10903483618266,-11.7860114804038,-0.0621715263952642,-1.27836151297788,-2.19301164206882,-2.16279064301985,3.03594224004936,9.42872520826905,-0.996359395248406,14.143473474503,-7.66661623260617,-30.504988020006,-3.97086639925949,9.2107701326751,1.06555717371184,-11.4261492223479,45.7235834085654,-39.1133224389668,-10.8452385376692,2.70502590398073,2.500350937527,-74.6647414291085,43.1139154519773,-148.98272042938,0,0,0
71.845,-16.1700385892468,23.3959998342013,35.5909031622592,-0.0855428938891293,1.25806653334297,2.176867283842,2.18619175590228,-53.1036246079937,-43.1057317583225,-38.2069662753967,0.712494381750212,4.14118695677193,1.89322638653267,1.80806281432184,0.63929392162912,8.8676765195927,1.21427250848504,15.9175293405099,-19.41971118501,-19.8308923095676,-6.42167380438138,5.92048046899105,-0.772224251774128,-10.9029167190434,-5.59580086926379,-105.553280232819,-3.89558394363507,8.5696370462796,1.80649091816802,15.0488870825999,21.5235161548086,-73.0016731190174,849.962554767047,0.25801266544489,-0.0867807148316509,-20.9470279732916,42.7915764540943,42.7310819237876,0.112764496206207,3.00502650447628,3.90203634221478,3.86532521386192,-11.9068406476271,-8.66614117019451,-10.0948600855534,-0.0594764002821685,-1.17430543069064,-2.03373697375633,-2.00836898546085,3.01264831842024,9.72119333539031,-1.14129935205186,12.2582315319536,-6.65050277882533,-34.0102599030173,-4.32027522369639,9.52135575439679,0.886970441221865,-12.0140890823972,34.8211333950427,-42.9924473851616,-10.8898700752247,2.7415989557647,2.86670134126092,-75.769909705539,49.1289236000812,-160.967445161202,0,0,0
71.85,-15.9507681484482,21.8834896087646,34.9171929716732,-0.0957839220852752,1.1747060163489,2.02300581937857,2.02841479457229,-53.4950375608492,-42.6001704198224,-37.5083557592062,0.735932135593501,4.43587007714185,2.17376856792315,2.08411605173218,0.671426836910537,9.01637748707502,1.42013159956134,15.6040988505347,-16.8276222721233,-19.986502051166,-6.59276594078022,5.81638845370515,-1.04371024596584,-10.3892897414622,-7.53277320351319,-105.575910065897,-3.95212671924082,8.48913238284992,1.7624347055993,15.7848851746122,22.5749237581833,-71.4904429830019,879.766175779414,0.261309882205434,-0.0784345839405177,-20.5501446831363,42.511172993699,43.4893550030425,0.105886686566478,2.9259786240483,3.7878288277802,3.74496730517909,-12.0045467377561,-9.68692154240388,-9.06038648932756,-0.053324658031883,-1.08033927820292,-1.89224744252084,-1.87305406971855,2.99249177502742,10.0464323202256,-0.979736800877356,10.3817818549658,-5.93500579277906,-37.4847458430282,-4.47371024596584,9.91274400751998,0.744950650164518,-11.6535763399307,20.8600183163998,-48.48519118105,-11.1943293927363,2.98983346057241,3.12826369526094,-71.2938166741908,46.0136348562154,-171.80662500524,0,0,0
71.855,-15.7532911922776,21.8834896087646,32.8345511128612,-0.107040228991371,1.11528568217198,1.8809975515091,1.88265401297377,-53.8540865720685,-40.8322107073121,-37.9018110475087,0.755714672092053,4.71304294796858,2.4577851036621,2.36641070416022,1.02461225129249,9.27099953000155,1.68296725677581,13.9275751111008,-14.6677459223284,-20.7673024217491,-7.12391299806781,6.09291346806621,-0.964311974515639,-8.10773021703097,-11.3455126754516,-106.160665321788,-4.04196116723705,8.46028067776911,1.76177897612802,15.5549039327729,22.4216031043596,-68.6252594460295,912.07305864536,0.263083551930935,-0.0712300099310296,-20.1791277196813,42.1182932896778,43.6072925163584,0.099119201764454,2.87884910301623,3.62175136196675,3.57311315028065,-12.1242296544612,-11.2584411417998,-8.80615541438868,-0.043067090407374,-0.998369786829398,-1.77190145280095,-1.76016008294113,2.97606454645151,10.4105692203248,-0.454065486448399,8.51597317720876,-5.57671644523875,-40.9222955265046,-4.39431197451565,10.4000851219385,0.646387278709086,-10.16633753882,3.26665931689691,-55.8943444811288,-11.8074328908473,3.48949631499686,3.26531033880985,-60.1876405527389,32.0518593705537,-181.28376428412,0,0,0
71.86,-15.5558048194384,21.8834896087646,30.7518099434843,-0.118297072653315,1.05586251454247,1.73898251198983,1.7375039866917,-54.2131527045033,-39.064166689823,-38.2952850976865,0.775498151918844,4.99022903575544,2.74181518270064,2.65177066079766,1.37781450728498,9.52563371455427,1.94581544728184,12.2509714268031,-12.5077665790497,-21.5481400247184,-7.65508538304874,6.36945166849443,-0.884909916966952,-5.82606189666612,-15.1584339574835,-106.745448461674,-4.13179989897979,8.43142759689768,1.76112321538834,15.3249117243015,22.2682751394562,-65.7599392830719,944.381482061727,0.264857306233697,-0.0640250923721633,-19.8080930643203,41.725394851228,43.7252356535125,0.0923513942556066,2.83171733461774,3.45566597676625,3.40199784687201,-12.2439182782341,-12.8300356789478,-8.55191221646687,-0.0328090336517972,-0.916396386749029,-1.65154972439479,-1.64843407422121,2.95963653454488,10.774723484255,0.0716308945636682,6.65007552855482,-5.21841001270737,-44.3600091291877,-4.31490991696696,10.8874494751684,0.54781920726932,-8.67902781887844,-14.3275386201388,-63.3038510859285,-12.4205656247361,3.98918299579366,3.40236351741401,-49.0809348344093,18.0894181190493,-190.761355479421,0,0,0
71.865,-15.3583278632678,21.8834896087646,28.6691680846723,-0.129553379559411,0.99644218036555,1.59697424412035,1.59343738608199,-54.5722017157227,-37.2962069773127,-38.688740385989,0.795280688417396,5.26740190658218,3.02583171843959,2.94043415856185,1.73099992166694,9.78025575748079,2.20865110449631,10.5744476873692,-10.3478902292548,-22.3289403953015,-8.18623244033633,6.64597668285549,-0.805511645516756,-3.54450237223491,-18.9711734294219,-107.330203717565,-4.22163434697602,8.40257589181688,1.76046748591706,15.0949304824623,22.1149544856325,-62.8947557460995,976.688364927673,0.266630975959198,-0.0568205183626752,-19.4370761008653,41.3325151472068,43.8431731668283,0.085583909453583,2.78458781358567,3.28958851095279,3.23198873445444,-12.3636011949393,-14.4015552783437,-8.29768114152799,-0.0225514660272883,-0.834426895375512,-1.53120373467489,-1.53772220850831,2.94320930596898,11.1388603843543,0.597302208992624,4.78426685079773,-4.86012066516706,-47.797558812664,-4.23551164551676,11.3747905895869,0.449255835813888,-7.19178901776773,-31.9208976196417,-70.7130043860073,-13.033669122847,4.48884585021812,3.53941016096292,-37.9747587129574,4.12764263338747,-200.238494758301,0,0,0
71.87,-15.3197477722168,21.8834896087646,26.8829543502056,-0.133222508501019,0.885816542305314,1.56923079490662,1.56515868610822,-54.6423473358154,-36.9508094787598,-38.8033581496014,0.814187562057298,5.52073047579367,3.08131861686707,3.00412093471473,1.95597559848416,9.94363936460986,2.29119511969682,9.58119762199007,-8.61650114852813,-22.954634972474,-8.18972997240306,6.80249825043244,-0.567177716451237,-2.47431285968429,-17.6803890144926,-107.744291714899,-4.38327401861102,8.64562641018024,1.78115228249588,15.2215732385675,19.4802083781361,-63.1070791809687,1003.27682780294,0.269339617838229,-0.0498949654597895,-19.3645923614502,41.2557601928711,43.5300651143561,0.0744508573188084,2.77305711738329,3.2571427822113,3.1970268102675,-12.3869830513,-14.7085752487183,-8.99985196896847,-0.013197108230421,-0.77605716250821,-1.50769233703613,-1.52462653450688,2.82413241255463,11.2946724677485,0.853747375648649,3.4404353957609,-5.16699571415041,-49.6080052517185,-4.01277527629966,11.5680418047615,0.463423342532319,-6.03470346521151,-40.9258308876881,-75.3927923848126,-13.195073858104,5.50329677480593,3.10029583359763,-23.7246901685785,-14.493913572064,-199.23564342963,0,0,0
71.875,-15.3197477722168,21.8834896087646,25.168814822505,-0.135049365605624,0.76276557065267,1.56923079490662,1.56656293171636,-54.6423473358154,-36.9508094787598,-38.8502715009816,0.832880717320575,5.76825498975854,3.08131861686707,3.01606869225042,2.14981051853222,10.0848619492163,2.32996210370643,8.75389514136164,-6.98924502960611,-23.5426350826727,-8.06512180951501,6.92987548360689,-0.290270687811146,-1.69828945843366,-15.1506210985214,-108.116919691711,-4.56233735611722,8.95467635722108,1.80701701687801,15.4347915132992,16.2431650654491,-64.0665631337758,1028.47536740919,0.272275096592587,-0.0430375651510758,-19.3645923614502,41.2557601928711,43.1123241389221,0.0622585698471363,2.77016997176008,3.2571427822113,3.19619749856175,-12.3869830513,-14.7085752487183,-9.93418139926648,-0.00406259073113273,-0.723420560327298,-1.50769233703613,-1.53553826290093,2.68014075766179,11.3998971386318,1.04481322541031,2.22341191186125,-5.63534463913426,-51.0233078425456,-3.75525173966437,11.6898808973631,0.504959396828327,-4.95784279827783,-47.8450879983985,-79.4096536027399,-13.2468032608485,6.64267050072913,2.52132417980224,-8.71217556860333,-34.2456920028651,-195.688465068793,0,0,0
71.88,-15.3197477722168,21.8834896087646,23.4545935562354,-0.136876309823723,0.639708731326971,1.56923079490662,1.5702764363514,-54.6423473358154,-36.9508094787598,-38.8971870894202,0.851574763965058,6.01579130690466,3.08131861686707,3.03190598926079,2.34365468157871,10.2260912680073,2.36873093631572,7.92655321089864,-5.36191131514173,-24.1306632315968,-7.94050770469939,7.05725879075174,-0.013350454887586,-0.922229052586152,-12.6207325508247,-108.48956543725,-4.74140923224044,9.26374104127719,1.83288298461737,15.6480199553227,13.0059673946813,-65.0260928394775,1053.67510860523,0.27521071532495,-0.0361798378479265,-19.3645923614502,41.2557601928711,42.6945632435522,0.0500657009874774,2.76728268846362,3.2571427822113,3.19727129080572,-12.3869830513,-14.7085752487183,-10.8685553829683,0.00507236234669256,-0.67078144817537,-1.50769233703613,-1.54660700242239,2.53614223654155,11.5051268271427,1.23588818612757,1.00633039432067,-6.10371589728892,-52.4386779219327,-3.49771592304546,11.8117257998495,0.546497431766854,-3.88093078135288,-54.7646750531798,-83.4267063642853,-13.2985351303042,7.78209855757245,1.94232491780248,6.30105490160217,-53.9984122952097,-192.141117561117,0,0,0
71.885,-15.2234792593028,21.7311917249681,21.9664509968739,-0.140081243946939,0.494152452714367,1.54123989511322,1.54861614685543,-54.7815308255374,-37.1411819094171,-38.8959234004385,0.86835924748153,6.26329811809097,3.20494509095457,3.17533443097504,2.5408608846964,10.3458372692423,2.41114387764445,7.26187980661832,-3.5351002968306,-24.8230988392481,-7.80232308034485,7.30009446181626,0.26465806654192,-0.199336044010471,-9.87925049502728,-108.499242699933,-4.88583993911743,9.51301765441895,1.85374522209167,15.8199996948242,10.3950004577637,-65.8000030517578,1074,0.277578443288803,-0.0306487269699574,-19.1882932407305,41.5222813123879,42.3460402343805,0.0385530167988923,2.76470163498283,3.23008491241102,3.17334440702671,-12.4507755009586,-14.63242630682,-11.7640436792806,0.0122392178605833,-0.622792992297825,-1.47783537409352,-1.52759151622424,2.40938678319576,11.5884080174793,1.36452827966976,-0.295015419782626,-7.18247790003444,-54.0041204489109,-3.20084897884424,11.9264504860466,0.578938678319559,-2.88000803737899,-60.441328990952,-87.7993982626275,-13.2073188839034,8.77062666182064,1.30731345579768,18.6105896814502,-71.690732989197,-186.386305282393,0,0,0
71.89,-14.7257121851328,20.9437185447459,21.4207722404687,-0.149033688962458,0.254729415764337,1.39650982843001,1.41306646628278,-55.5011945697312,-38.1255237772044,-38.6937342328443,0.877184294157075,6.51074290104776,3.84416955213876,3.83832052382685,2.75213664254968,10.3760195203642,2.46876453887718,7.27542963877182,-0.87594573670831,-25.9511223660261,-7.60751036855807,8.02446848874179,0.547273690683333,0.302007745668645,-6.25467039396887,-106.995211330895,-4.88583993911743,9.51301765441895,1.85374522209167,15.8199996948242,10.3950004577637,-65.8000030517578,1074,0.277578443288803,-0.0306487269699574,-18.276718990303,42.900358461921,42.2861785472092,0.0298741124493175,2.76339703521962,3.09017918128391,3.03871490077963,-12.7806214709384,-14.2386897167089,-12.4975852512596,0.0112001553669696,-0.594187638596147,-1.32345661994353,-1.38340817914677,2.35450996297413,11.5801764944461,1.23282391113786,-1.94809494250834,-10.8070580010928,-56.1958057997378,-2.73988368898253,12.0115095573902,0.573450996297401,-2.19574151362778,-60.9358978645543,-93.6563132109733,-12.5199343446127,9.13009062158101,0.438554120383823,19.6477617720437,-80.7947975477011,-171.424140583907,0,0,0
71.895,-14.2279688458034,20.1562829133116,20.8751195034586,-0.157985707101904,0.0153177951330628,1.25178666285621,1.28052020284761,-56.2208239984689,-39.1098187089882,-38.4915547061603,0.886008920031235,6.75817588518789,4.48336353342303,4.50513724259779,2.96340232622034,10.4062003323172,2.52638245260555,7.28897882483376,1.78308202794573,-27.0790921056819,-7.41270694595265,8.74880797561264,0.829875838970076,0.803327629960117,-2.63026312240222,-105.491251678021,-4.88583993911743,9.51301765441895,1.85374522209167,15.8199996948242,10.3950004577637,-65.8000030517578,1074,0.277578443288803,-0.0306487269699574,-17.3651882061282,44.2783699011189,42.2263197144003,0.0211956219326795,2.76209249766315,2.95028012122924,2.90625862351583,-13.1104517129967,-13.8449719009917,-13.2310918460514,0.0101611424185824,-0.565583648872806,-1.16908522697769,-1.23814597917493,2.29963575942331,11.5719453639135,1.1011258226159,-3.60109564206398,-14.4314652726595,-58.3873866452552,-2.27894037915562,12.0965645728939,0.567963575942324,-1.51150761750024,-61.4304431558148,-99.5129488862432,-11.8325825816208,9.48953744115639,-0.430163790304908,20.6848844075498,-89.8984280005139,-156.462689320701,0,0,0
71.9,-13.7302017716335,19.3688097330894,20.3294407470533,-0.166938152117424,-0.224105241816968,1.10705659617299,1.15101645139163,-56.9404877426626,-40.0941605767755,-38.2893655385661,0.894833966706781,7.00562066814468,5.12258799460723,5.17564100734541,3.17467808407362,10.4363825834391,2.58400311383827,7.30252865698726,4.44223658806802,-28.2071156324598,-7.21789423416586,9.47318200253818,1.11249146311149,1.30467141963923,0.994316978656194,-103.987220308984,-4.88583993911743,9.51301765441895,1.85374522209167,15.8199996948242,10.3950004577637,-65.8000030517578,1074,0.277578443288803,-0.0306487269699574,-16.4536139557007,45.656447050652,42.1664580272291,0.0125167175831047,2.76078789789993,2.81037439010214,2.77591930998883,-13.4402976829765,-13.4512353108806,-13.9646334180304,0.00912207992496864,-0.536978295171128,-1.0147064728277,-1.09134380919276,2.24475893920168,11.5637138408802,0.969421454083989,-5.25417516478969,-18.0560453737179,-60.5790719960821,-1.81797508929391,12.1816236442375,0.562475893920165,-0.82724109374903,-61.9250120294172,-105.369863834589,-11.1451980423301,9.84900140091677,-1.29892312571877,21.7220564981433,-99.0024925590181,-141.500524622214,0,0,0
71.905,-13.4226824838402,18.2068107582015,19.843835370843,-0.178246435099181,-0.441858318030726,0.982451854156512,1.04464157210259,-57.470995404697,-40.5382690429688,-38.3199812927713,0.900728906811872,7.24307715923742,5.54566387370931,5.63333176669103,3.40913846792608,10.4345401702304,2.49334855719328,7.86734738336705,4.15151585049862,-28.5668299259054,-6.9444820427652,9.81264895162965,1.3257317832676,0.748329604256555,3.86329281326166,-104.358383502872,-4.89391851702344,9.46521970338289,1.8783174124352,16.9317019777177,12.4118055767703,-69.5581468245982,1071.61075358107,0.277851217430806,-0.02863036025836,-15.7750846976038,47.1857498633013,42.5825391131754,0.00542897582291678,2.73062793203343,2.74972380422719,2.72685688245895,-13.6259774655664,-11.8618452598971,-14.0597258948993,0.00798966555069532,-0.503250628859528,-0.914166179402676,-0.99641146333271,2.3099481004775,11.523458584181,0.784915922773529,-5.30422090487138,-21.3310369396453,-62.4840392949866,-1.58470209674072,12.1651878762716,0.586703342329252,-1.09457502620606,-60.6819802294856,-107.986319029569,-10.6711419146908,9.72035476917396,-1.9850770112066,19.1598738234939,-99.4797512352999,-130.583576348898,0.421631720988167,0,0
71.91,-13.2715466381712,16.7367984834523,19.4075764815586,-0.191492527371018,-0.641814590403108,0.874382103647078,0.957658679477478,-57.8460365325643,-40.5382690429688,-38.5419977582302,0.904215403661291,7.47234251633706,5.79107229188673,5.91624578681834,3.66268021345967,10.4063688651711,2.28078325538228,8.88543495116622,1.43556174882318,-28.2949183394746,-6.60642638205375,9.83569820122361,1.48195447496002,-0.677625343188865,6.11130604526542,-106.271249895786,-4.90863951240487,9.37812103024637,1.92309349861858,18.9574748751756,16.0868804708365,-76.4063344346432,1067.25700643554,0.278348273587388,-0.0249524397895425,-15.288091905592,48.8395140998117,43.3899475603456,-0.000351224649668492,2.6767422181406,2.75422670986238,2.7448162479933,-13.6931487082918,-9.28932353484748,-13.6299326088475,0.00678040454255504,-0.465308778033081,-0.857879858962822,-0.94335611177484,2.4738538753679,11.4568718631318,0.556984454566555,-4.03635408907178,-24.3189026277516,-64.1534499651666,-1.5386035975528,12.0653077946977,0.63536286924984,-2.14428022033439,-58.010290804671,-107.938892590075,-10.3724302457289,9.19040211054482,-2.52116341791133,13.6382978938788,-92.8646161328944,-122.99141049514,1.18994004078692,0,0
71.915,-13.1204179990559,15.2668563027465,18.971338394243,-0.204737988034412,-0.841761328335648,0.766317506186971,0.873291669560856,-58.2210597774863,-40.5382690429688,-38.7640036373614,0.90770173426539,7.70159694146279,6.03646900834671,6.20146683043328,3.91620986945742,10.3781989033936,2.06822808924274,9.90347397387823,-1.28026284903279,-28.0230197185018,-6.26838684072342,9.85874635176885,1.6381697175445,-2.10351229736004,8.35921208609847,-108.184025078211,-4.92335980585061,9.29102651020317,1.96786744976066,20.9831511784651,19.7617801276866,-83.2541955051302,1062.9034668881,0.278845306043027,-0.0212746946936255,-14.8011223346746,50.493199480503,44.197317508162,-0.00613114950712538,2.62285907366002,2.75872940078721,2.76444751169914,-13.760316748116,-6.71692447438519,-13.2001598164674,0.00557120119515327,-0.427368736373658,-0.801596222402447,-0.88756314888858,2.63775183480079,11.3902883171122,0.32906385473018,-2.76854772848943,-27.3066258465803,-65.8227810334646,-1.49250729646229,11.9654324756683,0.684020075956479,-3.19393536176416,-55.3387287730199,-107.891468411998,-10.0737328201234,8.66047472144928,-3.05722426260926,8.11698524749499,-86.2497964574918,-115.399606655776,1.95821172562859,0,0
71.92,-12.9692821533869,13.7968440279973,18.5350795049586,-0.217984080306249,-1.04171760070803,0.658247755677537,0.791187986326181,-58.5961009053536,-40.5382690429688,-38.9860201028203,0.911188231114808,7.93086229856243,6.28187742652414,6.4883209877899,4.16975161499101,10.3500275983343,1.85566278743174,10.9215615416774,-3.99621695070822,-27.751108132071,-5.93033118001197,9.88179560136281,1.79439240923692,-3.52946724480546,10.6072253181022,-110.096891471126,-4.93808080123203,9.20392783706666,2.01264353594404,23.008924075923,23.4368550217528,-90.1023831151752,1058.54971974258,0.279342362199609,-0.017596774224808,-14.3141295426627,52.1469637170134,45.0047259553321,-0.0119113499797107,2.56897335976718,2.7632323064224,2.78552150727451,-13.8274879908414,-4.14440274933558,-12.7703665304156,0.004361940187013,-0.389426885547211,-0.745309901962593,-0.828725522584773,2.80165760969118,11.323701596063,0.101132386523206,-1.50068091268984,-30.2944915346866,-67.4921917036446,-1.44640879727437,11.8655523940944,0.732679602877066,-4.24364055589249,-52.6670393482053,-107.844041972504,-9.77502115116148,8.13052206282014,-3.593310669314,2.5954093178798,-79.6346613550863,-107.807440802018,2.72652004542735,0,0
71.925,-12.8849475246032,11.0181072374988,17.4578024098242,-0.221453861941597,-1.14958402782931,0.49388389884809,0.65462677636795,-58.9929802994294,-41.6660116014032,-39.4815871155745,0.902985695561769,8.14846221435862,6.52429822203553,6.77299395722208,4.08361078425033,10.2387071830348,1.89701066787351,11.3594135503146,-8.46013088798376,-27.1088317860327,-5.81698571151484,9.77124290424774,1.70504648606713,-3.05386282383758,7.16639057108442,-110.074894458692,-5.02655703257349,9.18421841003148,1.90728248592307,25.8204739262386,26.5909747206279,-96.3541987630679,1051.06214521239,0.28111097320578,-0.0136572615525354,-13.8468631602323,50.981356574113,45.8239643275702,-0.0181668368696514,2.45967936998624,2.79861218389932,2.83866111223129,-13.8513976478577,-2.22627390951964,-11.5208287086406,0.0031797924142798,-0.329013512777184,-0.705315567082607,-0.782913021354411,2.73076433697551,11.2179178897007,-0.142417792720004,0.30463791090072,-31.3601807751589,-69.5353080672751,-1.32172147152002,11.72172147152,0.655692894549683,-6.12654261123042,-47.3090140937256,-105.701261866163,-7.702811797909,10.4774555210245,-5.34679856612655,-19.1072550482484,-63.7041418750454,-103.271254084289,3.6985711514838,0,0
71.93,-12.8375288405418,7.51581001113025,16.0261436929094,-0.219520364358837,-1.20655878988525,0.298393145266405,0.488262496881582,-59.4019594666907,-43.4171604934133,-40.1283869435644,0.888321822127795,8.35963055015966,6.76508565589977,7.05592125269774,3.80971513544966,10.0814205728325,2.07870382103832,11.4765917401205,-13.8905029984188,-26.2618008711498,-5.8278330639426,9.586837912976,1.47996392319132,-1.52719840808026,0.580976303990878,-108.983463319357,-5.15580561047743,9.20175472657096,1.71893024066921,29.0665444712775,29.4573869996599,-102.276852195514,1041.8418956488,0.283582525539007,-0.00957287065492112,-13.3904653089097,48.2573477612552,46.6498019615442,-0.0246854859536133,2.31975217470445,2.85106091778642,2.90978830750396,-13.8513976478577,-0.669697324955418,-9.81811137427894,0.00201254306850804,-0.256175267751744,-0.674323133422045,-0.74270058924307,2.53008831706214,11.0904614986746,-0.394618736665179,2.4071494308472,-31.3635287234391,-71.785129311549,-1.1535875088899,11.5535875088899,0.50925363677506,-8.47010640734912,-40.465807809059,-102.400184861916,-4.65020614504282,14.4146675069662,-7.77329517103563,-49.7550939918189,-42.6236686782468,-100.423824072004,4.78330639425874,0,0
71.935,-12.7901124175278,4.01367978348508,14.5945532412395,-0.217586958970317,-1.26353083523501,0.102911713196907,0.322648885280734,-59.8109191327518,-45.1682258860484,-40.775155930441,0.87365864790579,8.57078881690025,7.00586160838723,7.3377224211596,3.53583254671235,9.92414146246847,2.26038831059674,11.5937643425629,-19.3206161744598,-25.4148103449239,-5.83867989914012,9.4024417146182,1.25489209284282,-0.000606787688942401,-6.00412395326731,-107.892084222323,-5.28504802546998,9.21929020693286,1.53058697654472,32.3124602351537,32.3236626006316,-108.199223220301,1032.62208573091,0.286053960022131,-0.00548867451178412,-12.9340892198345,45.5334688362866,47.4756002174125,-0.031203824211279,2.17983165151857,2.90350715078025,2.98155272283892,-13.8513976478577,0.886805037952097,-8.1154752299485,0.000845349380248476,-0.183340495844987,-0.643332177562058,-0.699053241118152,2.32942186590807,10.9630111851038,-0.646807655007458,4.50956069752647,-31.3668765120803,-74.0348432784415,-0.98546156332838,11.3854615633284,0.362821361608571,-10.8135584561954,-33.6229278264277,-99.0992652616842,-1.59774604842559,18.3516917563074,-10.1996760742184,-80.4014715659948,-21.5442006537349,-97.5765298326561,5.86798991401047,0,0
71.94,-12.7426937334664,0.511382557116553,13.1628945243247,-0.215653461387557,-1.32050559729095,-0.0925790403847774,0.157128388912244,-60.2198983000131,-46.9193747780585,-41.4219557584309,0.858994774471816,8.78195715270129,7.24664904225148,7.61736062374452,3.26193689791168,9.76685485226611,2.44208146376155,11.7109425323688,-24.7509882848949,-24.567779430041,-5.84952725156788,9.21803672334646,1.02980952996701,1.52605762806838,-12.5895382203608,-106.800653082987,-5.41429660337392,9.23682652347234,1.34223473129086,35.5585307801927,35.1900748796636,-114.121876652748,1023.40183616732,0.288525512355358,-0.00140428361416984,-12.4776913685119,42.8094600234288,48.3014378513865,-0.0377224732952408,2.03990445623678,2.95595588466735,3.0536765126508,-13.8513976478577,2.44338162251632,-6.41275789558686,-0.000321899965523283,-0.110502250819547,-0.612339743901495,-0.65204132322267,2.1287458459947,10.8355547940777,-0.899008598952634,6.61207221747295,-31.3702244603605,-76.2846645227154,-0.817327600698263,11.2173276006982,0.216382103833949,-13.1571222523141,-26.7797215417611,-95.798188257437,1.45485960444059,22.288903742249,-12.6261726791274,-111.049310509565,-0.46372745693628,-94.7290998203719,6.95272515678541,0,0
71.945,-12.7406271362305,0.358745723962784,11.1777591577546,-0.205651201058787,-1.32680245255326,-0.101098902523518,0.178001175102071,-60.2377223968506,-46.9956932067871,-42.2554349489564,0.84166714067754,8.92759168077865,7.25714302062988,7.66344492921089,3.36660340337916,9.94948053049113,2.24837328165687,11.1912141051607,-25.7944011190585,-23.2562642377536,-5.95445721552717,9.81002167988856,0.874245745776045,3.02914172372984,-15.0928476105246,-107.211942405273,-5.41992950439453,9.23759078979492,1.33402597904205,35.7000007629395,35.314998626709,-114.379997253418,1023,0.288633227348328,-0.00122627802193165,-12.4578006744385,42.6907424926758,47.9561108446783,-0.0429114783655005,1.88959649829024,2.9582417011261,3.07571112149112,-13.8513976478577,2.5112202167511,-4.7257588074644,0.00150653080646922,-0.048794413470836,-0.610989034175873,-0.631493271167141,1.92323175679768,10.8518631381336,-0.688939381093703,9.87070972140917,-29.3040189061667,-76.0048346495429,-0.367878762187371,11.4553529946103,0.197853812147995,-13.5711613670636,-19.4007038225775,-91.2666980672915,0.407993091165583,19.1773569366366,-11.226788937102,-155.449311536152,18.267384198341,-42.7492825966618,16.4740265245564,0,0
71.95,-12.7406271362305,0.358745723962784,9.16730281630533,-0.195280747510184,-1.330790223209,-0.101098902523518,0.206112080855454,-60.2377223968506,-46.9956932067871,-43.0974626969207,0.824217255070774,9.07024708606937,7.25714302062988,7.69469786147537,3.48852625204385,10.1476051595713,2.03754835584085,10.6424358511401,-26.6379516923815,-21.9235170494179,-6.06367976745594,10.4374163386423,0.721842184945193,4.53122620187762,-17.4102597803601,-107.691731393074,-5.41992950439453,9.23759078979492,1.33402597904205,35.7000007629395,35.314998626709,-114.379997253418,1023,0.288633227348328,-0.00122627802193165,-12.4578006744385,42.6907424926758,47.5573965014498,-0.0480401501045815,1.73880799365009,2.9582417011261,3.09525215878506,-13.8513976478577,2.5112202167511,-3.03939189154988,0.00347156625804533,0.0124092864306406,-0.610989034175873,-0.609415687496089,1.71748694967602,10.8747236722582,-0.457793980500225,13.1821944999563,-27.1434005231942,-75.609714306648,0.0944120389995703,11.7118989886756,0.185153515412102,-13.8972924437387,-11.9969012069054,-86.6789118636794,-0.825739076313256,15.7444421755829,-9.65298957854161,-200.478214000886,36.8923690481491,11.4720952656516,26.3802579785623,0,0
71.955,-12.7406271362305,0.358745723962784,7.15684647485604,-0.184910293961581,-1.33477799386474,-0.101098902523518,0.232231513218949,-60.2377223968506,-46.9956932067871,-43.939490444885,0.806767369464009,9.2129024913601,7.25714302062988,7.72058309133117,3.61044910070855,10.3457297886514,1.82672343002483,10.0936575971195,-27.4815022657046,-20.5907698610821,-6.17290231938471,11.064810997396,0.569438624114342,6.0333106800254,-19.7276719501956,-108.171520380875,-5.41992950439453,9.23759078979492,1.33402597904205,35.7000007629395,35.314998626709,-114.379997253418,1023,0.288633227348328,-0.00122627802193165,-12.4578006744385,42.6907424926758,47.1586821582212,-0.0531688218436624,1.58801948900995,2.9582417011261,3.11430624166377,-13.8513976478577,2.5112202167511,-1.35302497563536,0.00543660170962144,0.0736129863321173,-0.610989034175873,-0.584864571044025,1.51174214255435,10.8975842063829,-0.226648579906746,16.4936792785034,-24.9827821402217,-75.2145939637532,0.556702840186512,11.9684449827409,0.172453218676208,-14.2234235204137,-4.59309859123337,-82.0911256600673,-2.05947124379209,12.3115274145292,-8.07919021998126,-245.50711646562,55.5173538979573,65.6934731279649,36.2864894325683,0,0
71.96,-12.7424111146639,0.29652367874451,5.14814810648972,-0.174594373865416,-1.33993348093199,-0.106121695102711,0.250640886048466,-60.2493182274782,-47.0908563084221,-44.7938324775458,0.789290128044662,9.35393013220039,7.26360089607013,7.74661291106537,3.72250112804574,10.5451012734383,1.62499924796952,9.57992830642734,-28.3283543035331,-19.1180647625131,-6.26036009726258,11.7160660032087,0.412144038905059,7.4856417883842,-21.9402332284823,-108.701679101475,-5.42851851161715,9.24691285793465,1.33634733232903,35.7101777980001,35.3537428046999,-114.69405720402,1022.39294846084,0.288669066852341,-0.00111575933490059,-12.4503302854245,42.6175400925821,46.7381667395723,-0.0581339036563931,1.43770962562885,2.95671692498048,3.1310715241971,-13.8505056635059,2.50389997601198,0.3146101642058,0.00738061501452956,0.133899874338634,-0.609598796949901,-0.556958439002662,1.30245011531134,10.9255093753134,-0.00545836257896317,19.8140479294094,-22.7867337490236,-74.7749511644403,1.01137734382833,12.2211222801564,0.154388599217913,-14.6132421736218,2.84766740569911,-77.5153177468053,-3.26920175552368,8.94539833068848,-6.53600835800171,-289.660003662109,73.7799987792969,118.860000610352,46,0,0
71.965,-12.8343364112389,-2.90966976675335,3.22333735510091,-0.167008453759036,-1.40410143918683,-0.364937434588825,0.0119082749589329,-60.8468311511202,-51.9944449263328,-46.2724626982508,0.770387770725221,9.41306017963022,7.59636395192488,8.09181024948842,3.3360973378121,10.8079609946857,1.88260177479195,10.8358136412759,-29.3440961893409,-10.570256049358,-5.24835017046022,13.5744842324276,0.00734006818410748,6.42771253990713,-18.8605557536212,-111.778111394593,-5.8710950705181,9.72726276709062,1.45596261767157,36.2345826611241,37.3501627084473,-130.877018589822,991.112641632407,0.290515813973164,0.00457907581108324,-12.0653941714177,38.845548115271,45.2151013691717,-0.0548456730277154,1.31121418236458,2.87814787012589,3.06975315683998,-13.804543265901,2.12670074067849,1.03990474376985,0.00826724401777718,0.148012234286326,-0.537962297925117,-0.457441368828054,0.913417727865234,11.2093978742605,-0.286718264313645,23.5914394791864,-18.7951602041562,-72.0846954988345,1.08234946856511,12.2789514188309,-0.134757094154198,-18.2218842727215,12.174319737365,-73.5334797471692,-3.26920175552368,8.94539833068848,-6.53600835800171,-289.660003662109,73.7799987792969,118.860000610352,46,0,0
71.97,-12.9262573245745,-6.11571033253323,1.2986183837403,-0.159422895369236,-1.46826633774501,-0.62374083306123,-0.230768718437246,-61.4443155837779,-56.8977997282689,-47.7510224139863,0.751486314719785,9.4721874075842,7.92911114076381,8.42918370587435,2.94971197232528,11.0708081820917,2.14019201844983,12.0916390922156,-30.3597896419097,-2.02285491815555,-4.23638849894715,15.432813847388,-0.397444600421132,5.36983373627312,-15.7810251258645,-114.854396995344,-6.31365052620721,10.2075897719023,1.57557219944339,36.758962519248,39.3464874176543,-147.059208329554,959.833826331094,0.292362473036238,0.0102736394123815,-11.680476412175,35.0737359964368,43.6921086225252,-0.051557599190504,1.18472477073502,2.79958256165003,3.00712544817905,-13.7585830599038,1.74951949119448,1.76516473938486,0.00915383074422701,0.162123921319659,-0.466329214716614,-0.357240359323597,0.524403890504354,11.493272836659,-0.567964754838059,27.3686509130207,-14.803776987991,-69.3945681116793,1.15331820916473,12.3367778000602,-0.423889000300799,-21.8303543022952,21.5005273497703,-69.5518316120191,-3.26920175552368,8.94539833068848,-6.53600835800171,-289.660003662109,73.7799987792969,118.860000610352,46,0,0
71.975,-13.0181826211495,-9.32190377803109,-0.626192367648513,-0.151836975262856,-1.53243429599985,-0.882556572547344,-0.477948992274728,-62.0418285074199,-61.8013883461795,-49.2296526346912,0.732583957400344,9.53131745501403,8.26187419661856,8.75827595332164,2.56330818209164,11.333667903339,2.39779454527225,13.3475244270642,-31.3755315277175,6.5249537949996,-3.22437857214479,17.2912320766068,-0.802248571142084,4.31190448779605,-12.7013476510034,-117.930829288462,-6.75622708510817,10.6879396810582,1.69518748478594,37.283367382372,41.3429073214017,-163.242169715356,928.553519502657,0.294209220157061,0.0159684745583653,-11.2955402981681,31.3017440191258,42.1690432521246,-0.0482693685618263,1.05822932747074,2.72101350679544,2.94290950501926,-13.7126206622989,1.37232025586099,2.49045931894891,0.0100404597474746,0.176236281267351,-0.39469271569183,-0.257085903621957,0.135371503058245,11.7771613356061,-0.849224656572741,31.1460424627977,-10.8122034431236,-66.7043124460735,1.22429033390151,12.3946069387346,-0.71303469367291,-25.4389964013949,30.8271796814362,-65.5699936123831,-3.26920175552368,8.94539833068848,-6.53600835800171,-289.660003662109,73.7799987792969,118.860000610352,46,0,0
71.98,-13.1809463310309,-13.9631248210285,-2.88944154145437,-0.144955986068242,-1.60168622736202,-1.0737400549616,-0.662430672577657,-62.9159883154621,-69.0072010184426,-51.5062293845077,0.71046921872712,9.56312326765995,8.58711340137466,9.07125971613923,2.22920526931007,11.582046651519,2.54551701493324,14.6418655354023,-31.4234425698678,15.1193925859122,-2.45605707981456,18.9785916547367,-1.17922063594216,3.40325175252084,-10.7021506636903,-120.82821752743,-7.20305423510864,11.275331685838,1.74312526315087,37.6411089251532,43.4136714193546,-181.056340267805,899.143907852743,0.295726703597239,0.0209160902759402,-10.953258249832,26.6413016858742,40.2155485960987,-0.0441212770482668,0.932197866054841,2.59061865539537,2.82501596480296,-13.6856031092118,1.03374690009655,3.01923919479099,0.00854130311038302,0.18232568609521,-0.315554224555948,-0.150256911556466,-0.238695937692918,12.0532985723479,-0.971101537976588,33.7843009349858,-7.17527138068952,-63.3343368585623,1.37179198571032,12.5667321609162,-1.06317892275969,-25.9027795005853,36.9001280795893,-62.6981427243448,-3.60776090751587,9.99227935467258,-6.31006587135508,-273.975714150763,69.1391737137214,126.425436851962,56.6597144695885,0.0131145537290595,0.00993172996881547
71.985,-13.6023715453616,-23.8445466915001,-6.38880438991166,-0.140647117450317,-1.68951469836146,-1.01804595200559,-0.605303704432821,-64.8003577422234,-84.6198485089409,-56.6965502769244,0.676621426919128,9.49517752847616,8.88495575592424,9.34818809001136,2.08597459908851,11.7776116050907,2.29210890607969,16.0768926682015,-27.9378908847513,23.8859801412589,-2.57725226230973,20.0418039375353,-1.4546642325221,3.03939416197698,-12.6472585308968,-123.072572758822,-7.66549905151633,12.2536561302194,1.52938480197551,37.3904552942948,45.7563195024725,-204.82987641615,876.557532933188,0.296042408100324,0.0231367646285227,-10.7666268883492,18.736164253526,36.6901576449695,-0.0368329819466745,0.807832414336539,2.27098302830603,2.51576961571368,-13.7277456831815,0.836118466955724,2.83067680565293,-0.00166849942777349,0.159125271056613,-0.209009006291199,-0.0176443946455452,-0.558210509725639,12.3011978092699,-0.511110731688085,32.2642603464521,-4.83230054064536,-57.4820105657959,1.79872956040923,13.1561814575973,-1.63610160364596,-14.8850356373877,31.0954093220343,-63.8781294899404,-5.18244765304261,14.861471821959,-5.25917524594966,-201.025853952947,47.5540365934619,161.61335631505,106.239561853978,0.0741122074895022,0.0561256179497421
71.99,-14.023776665032,-33.7254973898436,-9.88800037956442,-0.136338454290557,-1.7773389814689,-0.962354504690567,-0.553662920749672,-66.684637317305,-100.231751547432,-61.8866236812192,0.642775249062681,9.42723502912354,9.18278390856868,9.61658715113906,1.9427507584812,11.9731672336122,2.03871288038983,17.5118513751409,-24.4525053998867,32.6521496827035,-2.69844166590053,21.1049655235819,-1.73009469522847,2.67555392111796,-14.5922736502553,-125.316820973466,-8.1279218173415,13.2319339255238,1.31565453250629,37.1398136152594,48.0988558819816,-228.602278979898,853.972234991266,0.29635809754979,0.025357333093524,-10.5800044259396,10.8314037588772,33.1649347937331,-0.0295450343701205,0.683472892689367,1.95136264228225,2.20417750582349,-13.7698862476828,0.638499457257257,2.64212340766446,-0.0118778151357499,0.135925962274693,-0.10246886838208,0.112549133063088,-0.877709846465014,12.5490852257056,-0.0511418589684491,30.7442922374429,-2.48944141959986,-51.6299633273063,2.2256467776041,13.7456026477889,-2.20899696607519,-3.86781712913305,25.2909673487039,-65.0580599906701,-6.75705931337263,19.7304321133697,-4.20833472976727,-128.079472195919,25.9699287091896,196.799597925788,155.817045141123,0.135106952721728,0.102317303284856
71.995,-14.4452018793626,-43.6069192603152,-13.3873632280217,-0.132029585672633,-1.86516745246834,-0.906660401734554,-0.507587008236123,-68.5690067440663,-115.844399037931,-67.0769445736359,0.608927457254689,9.35928928993976,9.48062626311827,9.87684148569894,1.79952008825964,12.168732187184,1.78530477153628,18.9468785079401,-20.9669537147702,41.4187372380502,-2.8196368483957,22.1681778063804,-2.00553829180841,2.3116963305741,-16.5373815174618,-127.561176204859,-8.59036663374919,14.2102583699052,1.10191407133093,36.889159984401,50.4415039650995,-252.375815128243,831.385860071711,0.296673802052875,0.0275780074461066,-10.3933730644569,2.92626632652904,29.639543842604,-0.0222567392685283,0.559107440971065,1.6317270151929,1.88997667263941,-13.8120288216525,0.440871024116431,2.4535610185264,-0.0220876176739064,0.112725547236095,0.00407634988266875,0.239572134533283,-1.19722441849774,12.7969844626275,0.408848947320054,29.2242516489092,-0.146470579555701,-45.77763703454,2.65258435230301,14.33505194447,-2.78191964696146,7.14992673406453,19.4862485911488,-66.2380467562656,-8.33174605889937,24.5996245806562,-3.15744410436184,-55.1296119981033,4.38479158893013,231.987517388875,205.396892525513,0.196104606482171,0.148511191265783
72,-15.0064252497053,-52.8931362582202,-18.7991324831642,-0.13809458226874,-1.95859737800062,-0.933480990457733,-0.549540605402525,-70.067186838476,-123.434416502575,-74.3129385608143,0.57530019100048,9.2287398210739,9.60709657643728,9.95812170539276,1.48194014137465,12.3713495763774,1.27601343560436,22.2019394605581,-21.1001023081537,53.142218236351,-3.31853261142027,22.029365318093,-1.92645510603099,3.76293783464454,-19.5492765705663,-128.271950297919,-8.99333948129734,14.7448314187783,0.817374843083785,37.5860606820002,50.1193251643987,-274.399947354386,803.874367072743,0.297002514712869,0.0288042983634762,-10.339319503443,-1.68128674924329,25.1780720553771,-0.0128120007431778,0.438220436679254,1.4313815465492,1.69226254996703,-13.8866167653958,-3.82930085380322,1.40662122572248,-0.0286494610552261,0.0925500189725865,0.114520843775903,0.366609972325579,-1.16256830601092,12.9476181881987,0.303538376698272,27.3902854911194,-1.73674991814731,-39.7027264225506,3.3875936231012,14.4601864942096,-2.26578934175564,10.5848758469203,14.9140933349921,-64.0374269592197,-8.01487890248216,24.3560874619783,-2.70124396636216,-34.8900872450123,-4.99359479086521,251.115295923449,258.871910562992,0.221320487181961,0.163321628525645
72.005,-15.6671021247,-61.7568724918122,-25.5712177960348,-0.151536724780064,-2.05601801062976,-1.01897833820285,-0.655494397772668,-71.290877552064,-125.320319194223,-83.004160763955,0.541826992381306,9.05366342224328,9.61171792851191,9.91068998632583,1.0403579485637,12.5789983456159,0.584727026620553,26.751456173675,-23.806448198838,66.9692444236486,-4.08604451797264,21.0358053842683,-1.59526846142278,6.50497893491829,-23.3199887108244,-127.89228306865,-9.35405586378648,14.9639052151379,0.482468790892533,38.9568054456248,47.9022142103622,-295.181909945266,772.85847495864,0.297340504037364,0.0293236028785154,-10.3795349924882,-3.94436853630128,20.0506076148883,-0.00183308718710142,0.319797024286721,1.31584461130833,1.57637260248554,-13.9842820578271,-10.9957265089035,-0.250779240444772,-0.0326178479900337,0.0745237818902656,0.227747047166212,0.49191204788899,-0.876065573770486,13.0291006166341,-0.203755451947641,25.3329434111507,-6.1240156785853,-33.4690448206265,4.34172657542486,14.2551661904046,-0.975212813956981,8.62812935761249,11.2180166329663,-59.432744922192,-6.35293920016106,20.4769692500564,-2.66787928834968,-52.1301915614403,-5.69276655604201,258.824585520893,315.12107083772,0.221094711848552,0.155817121056654
72.01,-16.3277474968873,-70.6201860791981,-32.3429801981047,-0.164978226334754,-2.15343399798747,-1.10447160921004,-0.76643987287623,-72.5145099168673,-127.206131961081,-91.6949685468114,0.508355389852091,8.87859537151483,9.61633906022836,9.85729298517789,0.598796811550613,12.7866372136161,-0.106526420013025,31.3007559538951,-26.5126650438477,80.7956113020492,-4.853519827543,20.0422928259889,-1.26409760866297,9.24688928747602,-27.0905210536316,-127.512633942912,-9.71475504637183,15.1829685654838,0.147578707900795,40.3274848485415,45.6852089739948,-315.962881597629,741.844061763674,0.297678477245641,0.0298428826317523,-10.4197485639534,-6.20734241368031,14.9233876653607,0.00914530286556303,0.201379258633288,1.20031318517175,1.45735869798138,-14.081942693321,-18.1618104500206,-1.90810067740803,-0.0365860457017375,0.0564984043462377,0.340967851633986,0.612155224958545,-0.589576502732241,13.1105791597734,-0.711025091492437,23.2756994306517,-10.5110722426777,-27.2356604570012,5.29581403218527,14.0501556625056,0.315302175765776,6.67147617111271,7.52211616957778,-54.8282824484885,-4.69107874348665,16.5980360046714,-2.6345162012526,-69.3694738244487,-6.39190498287411,266.533507519177,371.367549004863,0.220868947280704,0.148312971422275
72.015,-16.988424371882,-79.48392231279,-39.1150655109753,-0.178420368846077,-2.25085463061661,-1.18996895695516,-0.881927974937604,-73.7382006304553,-129.092034652728,-100.386190749952,0.474882191232917,8.70351897268421,9.62096041230299,9.79896084487415,0.157214618739663,12.9942859828546,-0.797812828996831,35.850272667012,-29.2190109345321,94.6226374893468,-5.62103173409537,19.0487328921642,-0.932910964054758,11.9889303877498,-30.8612331938897,-127.132966713643,-10.075471428861,15.4020423618434,-0.187327344290456,41.698229612166,43.4680980199583,-336.744844188509,710.828169649571,0.298016466570135,0.0303621871467914,-10.4599640529987,-8.4704242007383,9.79592322487187,0.0201242164216394,0.0829558462407563,1.08477624993088,1.33510715753151,-14.1796079857523,-25.3282361051208,-3.56550114357527,-0.0405544326365452,0.0384721672639168,0.454194055024295,0.726929969931154,-0.303073770491811,13.1920615882087,-1.21831892013835,21.218357350683,-14.8983380031157,-21.0019788550771,6.24994698450893,13.8451353587006,1.60587870356443,4.71472968180493,3.82603946755198,-50.2236004114607,-3.02913904116555,12.7189177927495,-2.60115152324012,-86.6095781408767,-7.09107674805091,274.242797116621,427.616709279591,0.220643171947295,0.140808463953284
72.02,-17.7941974113978,-86.2360697132065,-47.2682839955756,-0.189025686508141,-2.3750675343392,-1.29791645277326,-1.02382905950247,-74.9293921981301,-128.925302312032,-107.318193744182,0.442558056828904,8.48239678466253,9.52928760139608,9.64053129077347,-0.365795653198113,12.9365924842233,-0.48973517487632,37.7154585558692,-29.3642374040232,106.397855604674,-6.70444685520167,17.078155026842,-0.458535526984649,20.1773123409187,-40.8005313461959,-122.055483079775,-10.5249210114781,17.5826016933601,-1.0778595350313,37.401406883583,34.1518364249282,-347.373398233699,668.719788735014,0.298393306940041,0.0305549634321326,-10.5840417303405,-11.5872553158479,5.10875550545178,0.0336848440292402,-0.0196088666889066,0.975563018309901,1.21589322747521,-14.5024653025327,-33.4524600772249,-7.70374596809373,-0.0254036883205238,0.0313922030002002,0.471990864619585,0.740512317185785,0.12091250604411,13.0944268941319,-1.35027598348561,15.2083106990017,-17.5613724448461,-15.3316217722448,6.00987316661913,13.8932695240339,2.66657016749941,3.52798185028906,6.17389717806711,-49.2899791940173,-2.91432418352299,11.6473723794569,-2.60740343672506,-78.8659366085668,-10.1120240200384,258.049488289111,509.343863520835,0.218188569922579,0.138010612771275
72.025,-18.6409827270928,-92.392494140933,-55.8119173678096,-0.198830770893246,-2.50685192690502,-1.41220859095096,-1.17535840853768,-76.1114815666418,-128.179067545221,-113.753964435334,0.410556345400739,8.24826160098945,9.41042377769127,9.45231134327491,-0.911826375888028,12.8039850229986,0.100498034888481,38.8229282756106,-28.7864271154624,117.594534974118,-7.87711283583572,14.8316286249179,0.0562934401229847,29.9037855316914,-52.4819293465991,-115.651419048227,-10.9994489012111,20.3170536062117,-2.12530846870195,31.5042749991818,22.8307995595627,-355.13612992953,623.477243140707,0.298781138634211,0.0306555672789125,-10.7318026534351,-14.9453043274189,0.545604099683092,0.0479751606672615,-0.11770268254708,0.868128392924787,1.09517211104475,-14.8889177296066,-41.8475828541217,-12.5426265176539,-0.00485437608659892,0.027402116542478,0.462847493565369,0.721245084716898,0.583738547181278,12.9462185551161,-1.37627744647085,8.08198380675247,-19.7377911984249,-9.81995363080699,5.43264068834694,14.0128762537659,3.66242619983387,2.55854458837047,10.2281993694684,-49.3927010230948,-3.23628079420764,11.3683848765139,-2.62484014016092,-64.0685040633453,-13.7886309754194,235.10709726539,598.268866930335,0.215104583806154,0.136541356075374
72.03,-19.4877276658415,-98.5486250141856,-64.355143357182,-0.208635387746196,-2.63863003564513,-1.52649527937955,-1.3294017810714,-77.29351457003,-127.432868360842,-120.189428252049,0.378556159898161,8.0141375814964,9.29156562172554,9.26274228679393,-1.45783106240005,12.6713838848457,0.690703100784803,39.9303451882893,-28.2086443784127,128.790680456504,-9.04972290067819,12.5852093432684,0.571097858834323,39.6297949386956,-64.1627703472883,-109.247660379259,-11.473954164209,23.0513751332197,-3.17270745725847,25.6074243055056,11.5103025109465,-362.89849147794,578.236854829711,0.299168951835548,0.030756166328637,-10.8795565309012,-18.3031932184,-4.0173297230508,0.0622647959054812,-0.215791821034671,0.760698890304569,0.971229535601311,-15.2753517296144,-50.2423053295319,-17.3812763366901,0.015693956302188,0.02341222034255,0.453704558491082,0.696072577592104,1.04654251955814,12.7980172830628,-1.4022776696381,0.955996716472141,-21.9141061746457,-4.30854830017126,4.85543573403424,14.1324772803352,4.65823474713914,1.58915355176476,14.2823082411008,-49.4954179541258,-3.55822205315614,11.0894106764273,-2.642276012169,-49.2717770985428,-17.4650626205317,212.165800195083,687.189630162292,0.212020744742281,0.135072169437488
72.035,-20.3345129815365,-104.705049441912,-72.8987767294159,-0.218440472131301,-2.77041442821095,-1.64078741755725,-1.48514252095766,-78.4756039385417,-126.686633594031,-126.625198943201,0.346554448469996,7.78000239782331,9.17270179802074,9.07306741373223,-2.00386178508997,12.538776423621,1.2809363105496,41.0378149080307,-27.6308340898519,139.987359825948,-10.2223888813122,10.3386829413442,1.08592682594196,49.3562681294682,-75.8441683476915,-102.84359634771,-11.948482053942,25.7858270460714,-4.22015639092913,19.7102924211044,0.189265645581063,-370.661223173771,532.994309235404,0.299556783529718,0.0308567701754169,-11.0273174539959,-21.661242229971,-8.58048112881949,0.0765551125435024,-0.313885636892844,0.653264264919455,0.84417685964706,-15.6618041566882,-58.6374281064286,-22.2201568862502,0.0362432685361128,0.0194221338848278,0.444561187436866,0.665150392258089,1.50936856069531,12.649808944047,-1.42827913262334,-6.17033017577711,-24.0905249282245,1.20311984126656,4.27820325576206,14.2520840100673,5.6540907794736,0.619716289846169,18.3366104325021,-49.5981397832033,-3.88017866384079,10.8104231734843,-2.65971271560485,-34.4743445533213,-21.1416695759127,189.223409171362,776.114633571792,0.208936758625856,0.133602912741588
72.04,-21.4020128509053,-102.626732611164,-79.3178960259156,-0.226117871656142,-2.84485276690414,-1.89201080353503,-1.77863924997614,-79.7437867515476,-124.329029634241,-128.023986863411,0.316862655146351,7.49318198491573,9.00167031838534,8.83235955288594,-1.54259269087877,12.2330404124649,0.869611292238476,35.6729622858804,-26.9754543551226,144.440389905917,-11.0968415598858,8.16572547830262,1.55059140192585,55.8505926968071,-78.728385545131,-97.6354041761326,-11.4203917016987,24.5046443577426,-2.90496406394712,4.01544465015279,-13.6126112810958,-348.075243575502,488.425657745091,0.298280154145595,0.0307025818744216,-11.2967219467234,-24.1917042087369,-11.9567317648271,0.081094395513598,-0.397791663673299,0.5264998170545,0.694875500583694,-16.2931728074136,-59.7257112596619,-28.6675500382187,0.057228550209539,-0.00729717836674113,0.341706225127888,0.535074606142113,1.61423989688378,12.5335894811333,-1.42752533677055,-7.99540223537072,-19.5174320663154,5.95813711201535,3.91086979048198,13.898699168499,5.06421424419341,-1.08199937159256,31.5709515380538,-56.7906270564041,-3.7900618208721,10.6763847181246,-2.30821818238059,-32.1438330351624,-19.4968321564844,168.987885966397,835.700192079258,0.206121988815223,0.127133339720588
72.045,-22.4852109943062,-99.9646492899089,-85.5867622244311,-0.233644857598461,-2.91523034450677,-2.15295240405259,-2.08179735364061,-81.0181364380545,-121.857094977224,-129.065835943907,0.287333067538671,7.20261271235485,8.82693257628192,8.59026659913077,-1.00990484494654,11.9150178178785,0.387277023782442,29.8490917265822,-26.3145432017641,148.415672338247,-11.9502021886926,5.99787145853868,2.01172416407613,62.116161304142,-80.9892251836001,-92.5117068189073,-10.8212110052683,22.9387768913346,-1.42224575718096,-12.374645141853,-27.5910294875576,-323.337060675603,443.902494502995,0.296885486227741,0.0305303265924012,-11.5747620253746,-26.663637854788,-15.2490298900963,0.0849427784454915,-0.480696375782197,0.398358840667363,0.54152996961636,-16.9419328224387,-60.2961572523737,-35.2292802624077,0.0782458040457442,-0.0356288526013622,0.23220393893473,0.393360851964029,1.69374554553036,12.4196313847398,-1.42487514848233,-9.44482620040954,-14.4657151317331,10.6597674455612,3.55839474814873,13.5117716784189,4.36191434781511,-2.83570421416775,45.4566294333693,-64.4859886044206,-3.67073351538419,10.5526130880516,-1.93055666498549,-30.6968304724263,-17.4747384622436,148.943186282304,893.209277933631,0.203326156729282,0.120309024901486
72.05,-23.5683574879768,-97.3026929037732,-91.855329506954,-0.241171484634336,-2.98560456632179,-2.4138815621898,-2.38401592297327,-82.292425360224,-119.385278188538,-130.107635346303,0.257804887979228,6.91205729489948,8.65220316613263,8.35161455355065,-0.477242398968821,11.5970103874441,-0.0950342457098101,24.0254988647167,-25.6536635623838,152.390765218677,-12.803522127025,3.83012080774382,2.47283493820609,68.381431152722,-83.2499570193018,-87.3882537730189,-10.222058879346,21.372984089597,0.0604018496850007,-28.7639534113625,-41.5687811663536,-298.600057357189,399.381454242172,0.295490884811314,0.0303580795239648,-11.8527888463452,-29.1354536325554,-18.5411710299503,0.088790977876387,-0.563597134776843,0.270223974378279,0.385838146242219,-17.5906619028836,-60.8665760447234,-41.7906976060787,0.0992620557241277,-0.0639591759074007,0.12270687409796,0.247246211211678,1.77324740313896,12.3056787221674,-1.42222508656205,-10.8941810531098,-9.41423907627227,15.3611735930335,3.20593651275055,13.124862638057,3.65964793893902,-4.58932543549354,59.3416452231205,-72.1809832174025,-3.55141089978306,10.4288473597348,-1.55291315548269,-29.2498969065699,-15.452741186737,128.899442382098,950.715621603862,0.200530457955951,0.113485035483624
72.055,-24.5968107954534,-94.2562608597288,-97.2031463788904,-0.248911199392549,-3.03194961317654,-2.6454857108365,-2.65514876759444,-83.5198164293966,-116.588645041036,-130.551877143803,0.231664110373771,6.61328666063271,8.46131043560002,8.10124338815256,0.00434362549803497,11.33,-0.432150398406374,19.1564851704294,-25.2492320840097,155.677722443559,-13.5405224103585,1.939218625498,2.86293177290838,73.6021611086518,-83.8673718705425,-82.6820729427967,-9.15003481688965,19.7486336730866,1.05110181960689,-44.2386228291637,-54.4982317894103,-272.661271420513,355.508217131474,0.294067888438286,0.0300002976126813,-12.1310858574521,-31.3611299603109,-21.6707667810149,0.0914743019457528,-0.642366237879027,0.146436675823483,0.232517925715632,-18.2168306056342,-61.1051176063568,-47.8848236109236,0.120881697866752,-0.0948807850102192,0.025246267644336,0.109464788440543,1.82408466135456,12.2380612549801,-1.41455527888448,-12.1736762825242,-4.77779991146527,19.4958204220157,2.67336404382472,12.8037694223108,2.84467231075697,-5.88230596133982,72.4446866853573,-78.2779597658748,-3.42965686261891,10.3236252431851,-1.23623142253711,-27.617222191993,-13.0733629092515,108.912480298076,1009.47061752988,0.195284529479287,0.106872613319897
72.06,-25.3386808461497,-89.1982946443368,-97.7299403475936,-0.257763966737016,-2.95250629565925,-2.72352672890719,-2.77018469774364,-84.5013677879159,-112.092674850468,-127.868224010022,0.223261595070159,6.27160438338711,8.1858716727906,7.77165999083574,0.218439990039866,11.33,-0.00917953187250853,19.2854200482022,-26.1872333198072,155.361831993016,-13.6684580428287,1.49797124003983,2.88120829183268,73.353961468939,-75.8830795644582,-80.1613960823373,-5.60320188569654,17.8182612201607,-0.53346714367014,-54.9212483794566,-61.9367744338465,-240.439771584781,315.038782370518,0.292496688914415,0.0286714872439249,-12.4107143819095,-32.2977904996786,-23.9486298324492,0.0880595853819785,-0.699485826695376,0.0454424093625846,0.100447789148565,-18.7247266273076,-59.6064615401614,-51.5312207156334,0.145653206731202,-0.139356626782657,-0.00918359570082304,0.0318139312355852,1.72486927290834,12.4129936503984,-1.38061317231077,-12.5637042877871,-2.31514374600366,20.66268106586,1.19818787350599,12.8272678037849,1.43999128486055,-4.76379589666027,81.4507878977915,-76.0087059170725,-3.29521236265917,10.315496211686,-1.23873269891151,-25.0128181456807,-8.82407223445129,89.228669575961,1074.74389940239,0.177215057991972,0.101369551629704
72.065,-26.0805862728438,-84.1400872403407,-98.2567594364135,-0.266617156224794,-2.87305918989545,-2.80157146835588,-2.88199973918031,-85.4829659516118,-107.596490270018,-125.184442906515,0.214858679093461,5.92990581305691,7.91041977571182,7.44814538355258,0.432546563745043,11.33,0.413811503984066,19.4143610742216,-27.1252792840982,155.045926479268,-13.7963997758964,1.05670281374501,2.89948568227093,73.1057499938517,-67.8984065282082,-77.6405990236585,-2.05619982413621,15.8877967176209,-2.11811166695686,-65.6043833296612,-69.3756717844313,-208.216735270109,274.567417828685,0.290925414468054,0.0273426135109814,-12.6903562404245,-33.2344957036089,-26.2266015035512,0.0846447059877925,-0.756608139253501,-0.0555566729996279,-0.0326869164581207,-19.2326468679511,-58.107734010704,-55.177791698418,0.170425896822529,-0.183834589381082,-0.0436151008305105,-0.0478562535604896,1.62564915338643,12.5879343874502,-1.34666944721117,-12.9537508914957,0.147629850966482,21.8295973513354,-0.277058640438241,12.8507673057769,0.0352432768924262,-3.64523249594215,90.4573185652452,-73.7393438591314,-3.16076145172713,10.3073667925549,-1.24123409455902,-22.4082899086266,-4.5745789326579,69.5439202333352,1140.0202938247,0.159144724863748,0.0958662275265739
72.07,-26.8224563235401,-79.0821210249487,-98.7835534051166,-0.275469923569261,-2.79361587237817,-2.87961248642657,-2.98999658043343,-86.4645173101311,-103.100520079449,-122.500789772734,0.206456163789849,5.58822353581131,7.63498101290241,7.13131615840005,0.646642928286874,11.33,0.836782370517932,19.5432959519945,-28.0632805198957,154.730036028725,-13.9243354083665,0.615455428286845,2.91776220119523,72.857550354139,-59.9141142221238,-75.1199221631991,1.49063310705689,13.9574242646951,-3.7026806302339,-76.2870088799541,-76.8142144288675,-175.995235434376,234.097983067729,0.289354214944183,0.026013803142225,-12.9699847648818,-34.1711562429766,-28.5044645549856,0.0812299894240182,-0.813727728069849,-0.156550939460526,-0.166351312921735,-19.7405428896245,-56.6090779445086,-58.8241888031279,0.195197405686979,-0.22831043115352,-0.0780449641756695,-0.128603251858326,1.52643376494022,12.7628667828685,-1.31272734063747,-13.3437788967587,2.61028601642809,22.9964579951798,-1.75223481075698,12.874265687251,-1.36943774900399,-2.5267224312626,99.4634197776794,-71.4700900103291,-3.02631695176738,10.2992377610558,-1.24373537093342,-19.8038858623144,-0.325288257857718,49.8601095112196,1205.29357569721,0.141075253376433,0.0903631658363805
72.075,-27.5747071815233,-75.4468393680431,-97.9841951894643,-0.277921010013511,-2.68600113567881,-2.94861522262118,-3.08466691939473,-87.4018609459903,-96.4245146875713,-118.853766598899,0.196746294982955,5.23819827474592,7.32570723920572,6.7877438209071,1.06795506797283,11.5066443422631,1.05332541983207,18.8652825906674,-26.1278556478643,153.07106972026,-13.9744979508197,0.282766143542576,2.93692722910836,72.4946589265528,-51.9755354031227,-72.6046797330451,3.86556172370911,12.6648635864258,-4.76369428634644,-83.4400024414062,-81.7949981689453,-154.419998168945,207,0.288302153348923,0.0251240432262421,-13.2783478288448,-34.6119525698555,-30.3991209285484,0.0763505759504528,-0.848704958598068,-0.265282461405179,-0.307729914884306,-20.2547448953624,-54.6115450439621,-61.0912273746966,0.218357974561997,-0.244945231133076,-0.113278645929917,-0.21026045322999,1.47472036185524,12.8661455417833,-1.38351759296283,-13.012702943514,4.76276618982035,23.6398746057133,-3.14610880647742,12.7116238504598,-2.52128048780488,-1.90926684881602,102.147804458464,-69.0440910055731,-2.95247015000724,10.2465107188803,-1.27071125528327,-18.2842685215381,1.90174479456674,35.0010132028884,1245.96933726509,0.127464507552298,0.0860628852768183
72.08,-28.3479206002802,-74.6947789724137,-94.4976534659622,-0.267399754331179,-2.52131138114437,-2.9992964855555,-3.15638117283317,-88.2495332860508,-85.3316198535463,-113.254962017916,0.184388196501948,4.87130095144338,6.94790146096808,6.38297125165144,1.90912010195923,12.0412165133946,0.851550629748112,16.5521677131616,-18.3700242125372,148.690709518662,-13.8670594262295,0.170086715313865,2.95789084366254,71.8993957972367,-44.1303555738198,-70.1006924390738,3.86556172370911,12.6648635864258,-4.76369428634644,-83.4400024414062,-81.7949981689453,-154.419998168945,207,0.288302153348923,0.0251240432262421,-13.6449075979883,-34.0479072731335,-31.5170798406329,0.0685036318069529,-0.838810437053566,-0.389681936685563,-0.464174735265854,-20.7816754069381,-51.6033014621986,-60.5629709797006,0.238251962467403,-0.205162471301064,-0.150137748198173,-0.292668952636879,1.51926804278287,12.8242183126749,-1.66652638944424,-11.2204433041598,6.28651039584165,23.2225433900514,-4.37510070971612,12.1718107756897,-3.16067073170732,-2.30718731026108,92.0218610086829,-66.3007044095942,-3.00142318966006,10.1034171799096,-1.34727888138758,-18.9629655827145,0.0307422305931335,29.9199572852591,1236.79775589764,0.122890056810993,0.0842002868873537
72.085,-29.1210971501921,-73.9427544369978,-91.0112779899197,-0.25687900032993,-2.35662947944965,-3.04997533187419,-3.22324639013274,-89.0971652068695,-74.2392539578598,-107.65642440263,0.172030687287509,4.50442112276812,6.57011369750148,5.9856035420165,2.75024502698921,12.5757631947221,0.649785460815689,14.2391631310439,-10.612562690973,144.310558184134,-13.7596260245902,0.0574126599360146,2.97885345861655,71.3041610516287,-36.2855498232806,-67.5968245417882,3.86556172370911,12.6648635864258,-4.76369428634644,-83.4400024414062,-81.7949981689453,-154.419998168945,207,0.288302153348923,0.0251240432262421,-14.0114498886,-33.4838888715716,-32.6349854455024,0.0606570618263438,-0.828916387305819,-0.514075480272486,-0.619424458862728,-21.3085807930841,-48.5952013213841,-60.0347397733558,0.258145001775255,-0.165381608415449,-0.186995092927698,-0.37323685402842,1.56381359956017,12.7822930827669,-1.94952169132348,-9.42826912444898,7.81018194574022,22.8052320738371,-5.60403401139545,11.6320234406237,-3.80003048780488,-2.70508879781421,81.8964003904611,-63.5574486254881,-3.05037389510348,9.96033046401438,-1.42384285654654,-19.6416302818339,-1.84017111906787,24.839143645711,1227.62661185526,0.118315824191505,0.0823377773114687
72.09,-29.8943105689491,-73.1906940413684,-87.5247362664175,-0.246357744647598,-2.19193972491521,-3.10065659480851,-3.28519253188885,-89.9448375469301,-63.1463591238347,-102.057619821647,0.159672588806502,4.13752379946558,6.19230791926384,5.59547427785686,3.59141006097561,13.1103353658537,0.448010670731728,11.9260482535381,-2.8547312556459,139.930197982535,-13.6521875,-0.0552667682926957,2.99981707317072,70.7088979223125,-28.4403699939777,-65.0928372478169,3.86556172370911,12.6648635864258,-4.76369428634644,-83.4400024414062,-81.7949981689453,-154.419998168945,207,0.288302153348923,0.0251240432262421,-14.3780096577435,-32.9198435748496,-33.7529443575869,0.052810117682844,-0.819021865761318,-0.638474955552871,-0.772908047923541,-21.8355113046598,-45.5869577396207,-59.5064833783598,0.278038989680661,-0.125598848583437,-0.223854195195954,-0.451042135601949,1.6083612804878,12.7403658536586,-2.23253048780488,-7.63600948509484,9.33392615176152,22.3879008581752,-6.83302591463415,11.0922103658536,-4.43942073170732,-3.10300925925927,71.7704569406805,-60.8140620295092,-3.0993269347563,9.81723692504371,-1.50041048265085,-20.3203273430103,-3.71117368304148,19.7580877280817,1218.4550304878,0.1137413734502,0.0804751789220041
72.095,-30.6058124310065,-71.3216877331583,-83.9384536937221,-0.230927633721871,-2.05237077032412,-3.07245815778846,-3.26339824271247,-90.5214941110184,-51.0415468298974,-94.4136648569596,0.148625051995287,3.78468472904712,5.82454777396536,5.22233523917117,3.95529021558872,13.322495854063,0.327645107794381,9.29144401449543,0.644493581475328,135.784319145016,-12.8455223880597,-0.0722761194029933,2.68585406301823,69.2847593309174,-15.8584392850562,-56.5059834571996,7.26705052712268,14.3918763638333,-4.58868406325035,-61.3121521097313,-79.8976275031246,-139.553995171985,192.32960199005,0.286391312358391,0.0226922820466625,-14.6904314626311,-30.9416715651998,-34.0117257733262,0.0455305373319915,-0.762169852386125,-0.740663000896795,-0.901843562172072,-22.2716388147709,-41.7198081293312,-57.5425552008545,0.290116690095179,-0.0101952261570389,-0.278606969714906,-0.543112294481538,1.27930762852404,12.398648424544,-2.61869817578773,-6.15826218700734,11.3487859058616,21.184734762402,-7.3685240464345,10.6832960199005,-4.65359452736318,-3.68095223471122,64.3369264787175,-59.331413918064,-3.12310552597046,9.74773025512695,-1.53760266304016,-20.6499996185303,-4.61999988555908,17.2900009155273,1214,0.111519366502762,0.079570434987545
72.1,-31.2590850528714,-68.3973960931819,-80.2576193486505,-0.210858989925652,-1.93651899118448,-2.96974416977879,-3.16241847539795,-90.8421917495443,-37.979714137553,-84.8370697852847,0.138814499994288,3.44509293079667,5.46624303506579,4.86511163714661,3.8683416252073,13.2301129767827,0.284170812603661,6.35290369141945,0.121191880105634,131.859556384743,-11.3782649253731,0.00108675373134555,2.0554767827529,67.0774995905247,1.19918348074444,-42.17221313699,13.8820378402894,17.7504549958615,-4.24833591796371,-18.2793927295489,-76.207748274305,-110.643589492066,163.799595771144,0.282675236945425,0.0179631559841492,-14.9517413405834,-27.6274751678826,-33.458917577247,0.0387862365968055,-0.660954632288694,-0.821878712346305,-1.00693773482669,-22.6220306008082,-37.0409427491784,-54.2222516175072,0.294811931035546,0.1766536049926,-0.350267903728698,-0.647678433546507,0.597304622719734,11.7737054311775,-3.1023497097844,-4.97747886083982,13.8277599911963,19.2391258726941,-7.24896973466004,10.3979959577114,-4.46611162935324,-4.42900530782302,59.4460682697623,-59.0395725846078,-3.12310552597046,9.74773025512695,-1.53760266304016,-20.6499996185303,-4.61999988555908,17.2900009155273,1214,0.111519366502762,0.079570434987545
72.105,-31.9123265249832,-65.4732438911055,-76.5769605154207,-0.190791303055039,-1.8206727361617,-2.86703507944163,-3.05708513458866,-91.1628740963651,-24.9185042676715,-75.2609313507962,0.129004415786155,3.10551732517441,5.10795538107653,4.5137215733929,3.78139718076286,13.1377345045605,0.240698590381432,3.41450348565813,-0.402084868865559,127.934980767459,-9.91107742537313,0.074446128731356,1.42512956053068,64.8703450980693,18.2559928943247,-27.8391262885674,20.4967097335002,21.108873482046,-3.90800400136987,24.7513147357289,-72.5180449886109,-81.734562336163,135.270949937811,0.278959338724687,0.0132342554187779,-15.213038758595,-24.3134368001476,-32.9061357405134,0.0320422574475786,-0.559744238398591,-0.903090551217545,-1.10867242981256,-22.9724056792457,-32.3623004696065,-50.9021063549488,0.299506948094502,0.363493526699594,-0.421925420761085,-0.747144012517719,-0.0846658633913747,11.148792236733,-3.58597818200662,-3.79675183752021,16.3066158725406,17.2936097547243,-7.12942112354893,10.1127094993781,-4.2786376710199,-5.17702271180107,54.5554432697623,-58.7477451669123,-3.12310552597046,9.74773025512695,-1.53760266304016,-20.6499996185303,-4.61999988555908,17.2900009155273,1214,0.111519366502762,0.079570434987545
72.11,-32.5655991468481,-62.5489522511291,-72.8961261703491,-0.17072265925882,-1.70482095702206,-2.76432109143196,-2.94780777358596,-91.483571734891,-11.8566715753271,-65.6843362791214,0.119193863785155,2.76592552692395,4.74965064217696,4.16734678626421,3.69444859038143,13.0453516272802,0.197224295190712,0.475963162582142,-0.925386570235253,124.010218007186,-8.44381996268656,0.147809001865695,0.794752280265337,62.6630853576766,35.3136156601253,-13.5053559683578,27.1116970466669,24.4674521140742,-3.56765585608323,67.7840741159113,-68.8281657597912,-52.8241566562435,106.740943718905,0.275243263311721,0.00850512935626458,-15.4743486365473,-20.9992404028304,-32.3533275444342,0.0252979567123926,-0.458529018301159,-0.984306262667055,-1.20662732464239,-23.3227974652831,-27.6834350894537,-47.5818027716015,0.304202189034868,0.550342357849232,-0.493586354774877,-0.840943768349585,-0.766668869195684,10.5238492433665,-4.0696297160033,-2.61596851135269,18.7855899578752,15.3480008650165,-7.00986681177447,9.82740943718903,-4.09115477300995,-5.92507578491287,49.6645850608071,-58.4559038334562,-3.12310552597046,9.74773025512695,-1.53760266304016,-20.6499996185303,-4.61999988555908,17.2900009155273,1214,0.111519366502762,0.079570434987545
72.115,-32.674156036377,-62.0630111694336,-70.4181360059221,-0.14966637034092,-1.73306769806414,-2.74725270271301,-2.92074857986505,-91.5368633270264,-9.68613529205322,-55.5900610565073,0.10898619200352,2.52535449311606,4.69010972976685,4.12386665448338,3.99706051799079,12.5870147372753,-0.0506062086880489,-0.00124120416809739,-2.05339019566192,119.993368813547,-7.92116663666057,-0.0108978678531788,0.393177387412874,61.1108936066713,40.3662669982895,8.76743377466096,25.1896279148535,21.5405544351794,-2.80235709263042,89.5343983374194,-31.1222959348551,-11.5647870974728,84.9102132146807,0.212871860424275,0.00598347300738276,-15.5177715301514,-20.44850730896,-30.7599868783648,0.0272816850592132,-0.300773717110666,-0.997802197933197,-1.23272079819129,-23.3810234510899,-26.9059295654297,-43.902413804143,0.306603139834353,0.808430251889492,-0.50549453496933,-0.868873496113431,-0.333576554100969,10.3345510660734,-3.74973920423856,0.608992427352725,15.1638303770193,12.4567815502891,-7.03272446696331,9.28079833337618,-3.48884133638538,-7.08209887656574,51.7251347178047,-56.0643632152681,-3.22058446023884,9.71864802780773,-1.48913246288193,-21.2245313350024,-5.19453160203119,17.4788876380429,1198.03454129266,0.106298728505519,0.0757859975453304
72.12,-32.674156036377,-62.0630111694336,-68.1797337392065,-0.128412037299837,-1.79003522085016,-2.74725270271301,-2.90791675672107,-91.5368633270264,-9.68613529205322,-45.3920337121247,0.0986987895740924,2.30450476738597,4.69010972976685,4.1430665081251,4.37733005838326,12.0557161595638,-0.339179547851134,0.0120770530910689,-3.3019768137092,115.957936864018,-7.58674519688278,-0.215865847071833,0.0371803708752357,59.6891696442548,43.0265888858089,32.623762090151,21.565993886558,17.3607794921164,-1.95232092765224,107.044328174634,13.3651953642483,32.1581189183124,64.4134152928165,0.138806748989908,0.00390162623734442,-15.5177715301514,-20.44850730896,-28.9591745779262,0.0310050431143227,-0.131740825967611,-0.997802197933197,-1.24089881847902,-23.3810234510899,-26.9059295654297,-40.1512478749669,0.308546970641263,1.08073101462859,-0.50549453496933,-0.878461553288417,0.32178158997969,10.2320670764641,-3.26968262133175,4.24154709479161,10.3259734276255,9.37693455910582,-7.08396646176797,8.68207607829016,-2.80381677425991,-8.32069680166865,55.1712337836152,-53.254210933583,-3.33749674489378,9.68376798255218,-1.43099926845677,-21.9136014000746,-5.88360166710341,17.7054307207717,1178.88621691829,0.100037306792254,0.0712470965938191
72.125,-32.674156036377,-62.0630111694336,-65.9414382053856,-0.107158717721134,-1.84700002727518,-2.74725270271301,-2.89288621154871,-91.5368633270264,-9.68613529205322,-35.19449263645,0.0884118776750113,2.08366557235041,4.69010972976685,4.16435420041414,4.75758146652605,11.5244429155629,-0.627739127080062,0.0253946753007759,-4.55050389586967,111.922697334475,-7.25233970319692,-0.42082405287931,-0.318799670790357,58.2675134733681,45.6867839221988,56.4789528732971,17.9425326426429,13.1812038516922,-1.10232529462929,124.55342309244,57.8505653830112,75.8789401111901,43.9175947120702,0.0647451691744348,0.00181987873522377,-15.5177715301514,-20.44850730896,-27.1584481449441,0.0347282236299483,0.0372840052435758,-0.997802197933197,-1.2444676948063,-23.3810234510899,-26.9059295654297,-36.400260811227,0.310490708761218,1.35301879335268,-0.50549453496933,-0.881435967920147,0.977108484864082,10.1295879735604,-2.78964892878269,7.87392855249048,5.48834715994766,6.29723442310998,-7.13520601321983,8.08338237185257,-2.11882487590338,-9.55923566717184,58.6171685303781,-50.4441926473338,-3.45440345486417,9.64888960046872,-1.37286884597488,-22.6026386084777,-6.57263887550651,17.9319630013318,1159.73880558628,0.0937761836400078,0.0667084120690174
72.13,-32.7879489326477,-61.1954243732025,-63.7239200600554,-0.0871347310254308,-1.92114179719521,-2.71359014489867,-2.84267340619021,-91.4818021613873,-7.5412679560594,-25.2258520015867,0.0776615558491418,1.87806168741081,4.60802033439502,4.10456309842918,5.04364754098358,10.987784212402,-0.867908054169632,0.138217928072974,-5.72656916836057,107.624594123703,-6.9408544191019,-0.619481468282274,-0.645114932287949,57.0238620064588,48.0857432925917,79.082850461533,14.6107673788614,9.42079802466051,-0.17004469948066,138.034284620904,97.1385284296037,116.91675035459,25.6977013542409,0,0,-15.5185055918976,-19.2435256368504,-25.1984617749841,0.0393406503769251,0.20919743213955,-0.985990774138689,-1.2315206931211,-23.3839600394233,-25.2671545272373,-32.579639422331,0.3097635109973,1.62434395594255,-0.481576399282896,-0.853835300418745,1.60978795438347,10.0682145402709,-2.31961689237349,11.3044083225539,1.14937017678166,2.72084950238909,-7.20821454027085,7.52170883820385,-1.47599875267283,-10.8298234383112,61.4343173358676,-47.3225143651611,-3.54976626697474,9.61204347139754,-1.30523766147096,-23.1709073747131,-7.09858580763138,18.6272805073562,1139.87624732716,0.087111357947996,0.0621585018557104
72.135,-33.6922122246879,-54.3010845839789,-61.6515816727187,-0.0756584456297389,-2.11458297218682,-2.44608825027014,-2.55779869210311,-91.0442547174253,9.50307190870998,-16.8511486240291,0.0636960222513947,1.77837464365121,3.95569115275704,3.47447481148793,4.67530444964869,10.4139163527136,-0.771818552082264,0.942259029215527,-6.39880025292238,101.502018853528,-6.78871270746358,-0.774292332756356,-0.765226809897151,57.0172715056298,48.6690026159615,92.9855119603872,13.3066618987298,8.57376870189176,1.33351211016396,123.526103486113,100.305479735443,139.300268234589,23.2954638020568,0,0,-15.5243388654404,-9.66805362252303,-22.1328473496057,0.0501288780835887,0.401112644280809,-0.892130460233944,-1.13182318915618,-23.4072958461456,-12.2445128728484,-28.2767196394604,0.290481731815691,1.88887905913446,-0.291509243739048,-0.65351967644448,2.08489715914877,10.2924233784747,-1.91924396700947,13.3309873274829,0.276128816934216,-4.30462438136468,-7.4324233784747,7.2174254149272,-1.12633973118825,-12.3225718760882,59.8822543906293,-42.0369327002732,-3.4954285704547,9.56154146532871,-1.17163078959854,-22.8999885247956,-6.49135351204093,22.5789618712556,1115.05312595459,0.0776445565698009,0.0575323314540162
72.14,-34.596518636431,-47.4064160388643,-59.5791444661369,-0.0641816129885462,-2.30803337140117,-2.178573599841,-2.27278652651955,-90.6066864090579,26.5482245310906,-8.47604589959354,0.0497298227085998,1.67868284632508,3.30333086486844,2.84327514604355,4.30694379391098,9.8400211281947,-0.675724467976772,1.74633847097613,-7.07106339275501,95.3791516289734,-6.63656374096323,-0.92911057937075,-0.885344415029008,57.0106806905334,49.2522897519928,106.88883640624,12.0024942324611,7.72669898861599,2.83714061676197,109.017230530181,103.472582057032,161.684853470358,20.8931116994196,0,0,-15.5301724171422,-0.0921250027875136,-19.0670867407155,0.0609176202257922,0.593037007879421,-0.798265670609685,-1.02752209895293,-23.4306327656336,0.778749764882042,-23.9735946722981,0.271199033184404,2.15342677665585,-0.101433024862238,-0.446848735144551,2.56002901944812,10.5166429080542,-1.51885194990327,15.3576629696254,-0.597154183338565,-11.3304332741254,-7.65664290805416,6.91312748192649,-0.776664036248835,-13.8153914954224,58.3301174354275,-36.7510989929617,-3.44108828284714,9.51103705107686,-1.03801754669604,-22.6290567561403,-5.88409226064029,26.5308316706786,1090.228820894,0.0681773037681459,0.0529059404538573
72.145,-35.5007819284712,-40.5120762496407,-57.5068060788002,-0.0527053275928543,-2.50147454639279,-1.91107170521248,-1.98834536682099,-90.1691389650959,43.59256439586,-0.101342522035909,0.0357642891108527,1.57899580256548,2.65100168323046,2.21008385599128,3.93860070257609,9.26615326850628,-0.579634965889405,2.55037957211868,-7.74329447731682,89.2565763587978,-6.4844220293249,-1.08392144384483,-1.00545629263821,57.0040901897044,49.8355490753626,120.791497905094,10.6983887523294,6.87966966584724,4.34069742640658,94.5090493953904,106.639533362871,184.068371350357,18.4908741472355,0,0,-15.5360056906851,9.48334701153984,-16.0014723153372,0.0717058479324559,0.78495222002068,-0.70440535670494,-0.918827660636958,-23.4539685723559,13.801391419271,-19.6706748894276,0.251917254002795,2.41796187984776,0.0886341306816101,-0.234180470377514,3.03513822421341,10.740851746258,-1.11847902453926,17.3842419745544,-1.470395543186,-18.3559071578791,-7.880851746258,6.60884405864985,-0.427005014764261,-15.3081399331993,56.7780544901892,-31.4655173280737,-3.3867505863271,9.46053504500803,-0.904410674823616,-22.3581379062228,-5.27685996504984,30.482513034578,1065.40569952143,0.0587105023899508,0.0482797700521631
72.15,-36.198489221839,-36.7312074713581,-55.1877871541715,-0.0439861787538526,-2.6945602536319,-1.75289844064903,-1.81444525835583,-89.6484132907447,57.2290653926627,8.65098190550568,0.0224054578155155,1.49391183751773,2.16597603185615,1.74134467099829,3.55237871577005,8.85547691426011,-0.497199436872385,3.20726101145787,-7.44331025266915,83.7360390897796,-6.26905788254054,-1.21866182443376,-1.1602976353624,56.2497721311208,51.2659630494039,133.80974878898,9.88903617858887,6.35398721694946,5.27383327484131,85.504997253418,108.605003356934,197.960006713867,17,0,0,-15.4551229985311,16.4218444000004,-12.2246096293221,0.0805068661807679,0.953961160362417,-0.574691039191756,-0.770178197485496,-23.3232795455735,24.5863156530273,-14.2901087623527,0.234542733398869,2.65030648952707,0.329474612425735,0.0348184945878371,3.33991328831633,10.9226271397603,-0.887843918969432,18.9687466642549,-1.70760385299128,-24.9544943618026,-7.6274337826726,6.92756036179704,-0.12474572047939,-16.075465743071,51.6047269372546,-26.9258304101824,-3.31314014812834,9.37316019408587,-0.821729144901709,-21.8013996244935,-4.45241511748486,33.6670975490621,1049.50433558418,0.046646340596906,0.0436064989853669
72.155,-36.5582520600084,-38.0434147363299,-52.4655725309215,-0.0397778821750193,-2.88704026795835,-1.77357025508036,-1.82121591744889,-88.9917011965317,65.28976403084,18.0198685601572,0.0100406681561166,1.43272433513176,1.95466415100254,1.54278293077772,3.1369613534996,8.71177908454391,-0.437107617172896,3.62335573723541,-5.55314351386579,79.2009291328555,-5.9503099693519,-1.32055664914161,-1.37192534821716,54.2725157985501,54.0818599145495,145.379762598004,9.88903617858887,6.35398721694946,5.27383327484131,85.504997253418,108.605003356934,197.960006713867,17,0,0,-15.2324120531597,19.0462581824482,-7.28485650099185,0.0860563660027014,1.08548183422041,-0.386347823520181,-0.559185501733974,-22.9406736507456,31.7097245978848,-7.14754859183264,0.22029003570674,2.82996898060937,0.653333065769064,0.391847896626266,3.36604016644656,11.0349727157202,-0.934872299603824,19.8299659803991,-0.904444266025351,-30.8540079544158,-6.59280940871601,8.26525652206415,0.0999454314404653,-15.6561454767835,40.5088675831871,-23.6067492254919,-3.2080151790121,9.22548463926585,-0.822354892473314,-20.7772259818558,-3.27278654249737,35.5965670604476,1048.19799167767,0.0303352790127999,0.0388567742444177
72.16,-36.9180320534321,-39.3556845737716,-49.7432280991443,-0.0355693849239922,-3.07952946067468,-1.79424305524506,-1.83037491837669,-88.3349577870693,73.3508470426112,27.389201969215,-0.00232471111701843,1.37153391502598,1.74334219376339,1.34015903448204,2.72152418209453,8.56807440261134,-0.377012932001102,4.03947030444758,-3.66288664265392,74.6656029196748,-5.63154685670147,-1.42245633269379,-1.58356315251786,52.2951651807124,56.8978910554505,156.950328121957,9.88903617858887,6.35398721694946,5.27383327484131,85.504997253418,108.605003356934,197.960006713867,17,0,0,-15.0096904878396,21.6707971097999,-2.34486782103663,0.091606130451969,1.21700877962835,-0.197995626721542,-0.344938154665706,-22.5580495113946,38.8334732217727,-0.00464782905805539,0.206036658376172,3.00964003887928,0.977206962269769,0.75327946599211,3.3921682904343,11.1473236488675,-0.98190292278176,20.6912263636987,-0.101246380476283,-36.753802864734,-5.55813569880148,9.60301647023648,0.324647297735025,-15.2368052152519,29.412479124196,-20.287509770753,-3.10288519702242,9.07780204255204,-0.822980669883628,-19.7530035016022,-2.09310171704139,37.5261285783904,1046.89158547828,0.0140234396373826,0.0341068230133277
72.165,-37.2777948916015,-40.6678918387435,-47.0210134758943,-0.031361088345159,-3.27200947500112,-1.81491486967639,-1.8424207553545,-87.6782456928563,81.4115456807885,36.7580886238665,-0.0146895007764174,1.31034641264001,1.53203031290977,1.13316594073343,2.30610681982409,8.42437657289514,-0.316921112301613,4.45556503022512,-1.77271990385056,70.1304929627507,-5.31279894351283,-1.52435115740163,-1.79519086537262,50.3179088481417,59.7137879205961,168.520341930981,9.88903617858887,6.35398721694946,5.27383327484131,85.504997253418,108.605003356934,197.960006713867,17,0,0,-14.7869795424682,24.2952108922477,2.59488530729358,0.0971556302739025,1.34852945348635,-0.00965241104996709,-0.127994732689332,-22.1754436165667,45.9568821666302,7.13791234146197,0.191783960684042,3.18930252996158,1.3010654156131,1.11839215094514,3.41829516856453,11.2596692248274,-1.02893130341615,21.5524456798429,0.701913206489649,-42.6533164573472,-4.52351132484489,10.9407126305036,0.54933844965488,-14.8174849489644,18.3166197701285,-16.9684285860624,-2.99776022790618,8.93012648773203,-0.823606417455232,-18.7288298589644,-0.913473142053902,39.4555980897759,1045.58524157177,-0.00228762194672353,0.0293570982723785
72.17,-37.6672199577183,-41.4668234641815,-44.8991262394552,-0.0263542108180202,-3.42529550429397,-1.947015406761,-1.96921358727396,-86.8760994064628,88.821876723617,46.5809504909373,-0.0240087945672338,1.23576640313881,1.39857122707573,0.999520112186019,1.99644924406048,8.32322894168468,-0.269408207343427,4.93795962989628,-0.0924486041116661,66.2284350585287,-5.1905917926566,-1.67590064794816,-1.87234989200863,48.6894141801989,58.8580220249047,180.613030957523,9.11439525262326,6.0633647875446,5.60461443433494,83.0597218754482,101.454503110058,199.535277595273,15.8233261339093,0,0,-14.5103908481145,27.4760494652371,7.66802280149147,0.0961538454039361,1.41013236675097,0.165238654312575,0.0776009548807467,-21.7404218112315,49.1481666564941,14.5591516452905,0.188073535760006,3.3010456013956,1.64269719453404,1.5042373517005,3.62268034557236,11.6041684665227,-0.808781857451417,21.6241287363678,1.73359464576166,-45.8029197664187,-3.80995680345573,11.6797300215983,0.655883369330434,-14.7894248460123,7.62392075300642,-12.6669066474682,-2.81644954727741,9.06123879372945,-0.851011516414502,-17.8684604280196,-0.632101512161238,38.2144888171367,1046.76501079914,-0.0168314586411639,0.0262921797715079
72.175,-38.080682961686,-41.8491511710701,-43.2646016778304,-0.0206996990910194,-3.54676147870041,-2.16953148749168,-2.19009242808472,-85.9559992382993,95.7037795130686,56.7713751340997,-0.0308557938966937,1.15032451021892,1.32830299105552,0.924638776742103,1.77264489899631,8.25662050565368,-0.232107483166055,5.47411642362729,1.417342612591,62.840450411026,-5.22789251683396,-1.86773294371745,-1.84037784271374,47.3440882376469,55.0226918317123,193.128838320385,7.71118242905716,5.53692072025174,6.20380348985372,78.6302608793867,88.5018261922692,202.388780718185,13.6918561809173,0,0,-14.1901030207389,31.1081647134073,12.8489665477264,0.08983562986147,1.41499009873477,0.329197885588677,0.273722089600278,-21.2629008733567,49.1481666564941,22.205904399765,0.192918726546532,3.35766085986709,1.99872292370312,1.90666857810076,3.9717085503748,12.1370359547707,-0.371830517088062,21.0550788878066,2.95063767447623,-46.7206359961791,-3.35701943844493,11.9328420785161,0.666540719095399,-15.0788837285174,-2.74068082396545,-7.56848314879906,-2.57332808242306,9.41858249301302,-0.900146303651233,-17.1410961744337,-1.07971022007593,34.4004896277107,1049.96221572862,-0.029939895691905,0.0245947847693019
72.18,-38.494165681595,-42.2314971092165,-41.6299991740683,-0.0150449177292026,-3.66823324519948,-2.39205817887902,-2.41491850472098,-85.035855195253,102.586010465354,66.9622857066237,-0.0377031197246197,1.06487854301106,1.25803140430162,0.845608405895929,1.54882988184473,8.19000889340619,-0.194804980307449,6.01029878394043,2.92720582353413,59.4523042078203,-5.26519501969255,-2.05957438699023,-1.80840426883495,45.9986981433642,51.1871787511901,205.645242498247,6.30790269343042,5.01045154952712,6.80302111764161,74.2005886649286,75.5485316274006,205.242419910104,11.5602845889976,0,0,-13.8697999204709,34.7404531586232,18.0301573467364,0.083517113035539,1.41984806235903,0.493164935244029,0.470629495625657,-20.7853571649446,49.1481666564941,29.8530217888661,0.197764148375488,3.41427881803141,2.35476562992285,2.31052910709031,4.32075339855165,12.6699288527506,0.0651416592554742,20.4860019041614,4.16773873776371,-47.6383959871446,-2.904060475162,12.1859662050566,0.677198577055003,-15.3683564138398,-13.1057766359083,-2.46981653232446,-2.33019502434641,9.77594323219452,-0.949283433875291,-16.4136972365575,-1.52734027216629,30.5863085681216,1053.1595731165,-0.0430489578171325,0.022897308826988
72.185,-38.9076286855627,-42.6138248161051,-39.9954746124436,-0.00939040600220177,-3.78969921960592,-2.61457425960969,-2.64384343562173,-84.1157550270896,109.467913254806,77.1527103497861,-0.0445501190540796,0.979436650091173,1.18776316828141,0.762905384956846,1.32502553678056,8.12340045737519,-0.157504256130077,6.54645557767144,4.4369970402368,56.0643195603175,-5.3024957438699,-2.25140668275952,-1.77643221954007,44.6533722008122,47.3518485579977,218.161049861109,4.90468986986432,4.48400748223426,7.40221017316039,69.7711276688671,62.5958547096122,208.095923033016,9.42881463600559,0,0,-13.5495120930953,38.3725684067934,23.2111010929713,0.0771988974930729,1.42470579434283,0.657124166520131,0.667612719163951,-20.3078362270699,49.1481666564941,37.4997745433407,0.202609339162013,3.4708940765029,2.71079135909194,2.71500882722586,4.66978160335409,13.2027963409986,0.50209299961883,19.9169520556003,5.38478176647828,-48.556112216905,-2.4511231101512,12.4390782619743,0.687855926819969,-15.6578152963449,-23.4703782128802,2.62860696634466,-2.08707355949207,10.1332869314781,-0.998418221112022,-15.6863329829717,-1.97494898008098,26.7723093786956,1056.35677804599,-0.0561573948678736,0.0211999138247819
72.19,-38.9908102416992,-42.6907424926758,-39.7773300036485,-0.00408819860566944,-3.78422367211603,-2.65934062004089,-2.69920098743964,-83.9306468963623,110.852432250977,84.3472722804181,-0.0499623403018913,0.873148863918313,1.17362642288208,0.733295844753654,1.18585667958367,8.13941978763011,-0.0695859138110516,6.48240288709985,5.06278450656816,53.9444153208002,-5.61596579135301,-2.20566327546041,-1.55033225236192,42.760390311756,43.6770102577377,227.802717301049,4.3269215574847,4.60404090464784,8.07939828259302,60.6081341551511,48.8967801066372,209.706556071369,8.21547232986408,0,0,-13.4850757598877,39.1032867431641,26.6782495750965,0.0685005330327047,1.3386238145615,0.69010990858078,0.733011525600279,-20.2117673301697,49.1481666564941,41.6712812351487,0.215276748309064,3.41343944505726,2.78241753578186,2.83496749695378,4.50856433730991,12.9275427608087,0.0722117377102695,18.4731305836277,7.4892507736555,-49.9925950785811,-2.11679642225788,12.3899727220577,0.664502850720581,-16.6894448252921,-33.2773417903193,4.33957200817428,-2.0301761775286,10.117806655507,-0.966026698043271,-14.4073382129127,-2.19542777489872,21.7352075068387,1049.74311905124,-0.0638318892508556,0.019748872262806
72.195,-38.9908102416992,-42.6907424926758,-39.9158931585732,0.00112496956340255,-3.74678007082484,-2.65934062004089,-2.71394172856103,-83.9306468963623,110.852432250977,90.7869402012551,-0.0550129104455591,0.761617686361934,1.17362642288208,0.715563292506767,1.0680103492279,8.17624676586628,0.0310744933678394,6.26719996901187,5.46591109960621,52.1439852736979,-5.99896636500931,-2.10009260451668,-1.27535748153176,40.7296022114891,40.0428088663647,236.719998780131,3.95706395727652,4.88687313895476,8.77618890025422,50.2536160966687,35.010553784018,211.00409417032,7.23341957689921,0,0,-13.4850757598877,39.1032867431641,29.7135966265669,0.0592032818105524,1.22964512601413,0.69010990858078,0.764135786821464,-20.2117673301697,49.1481666564941,44.967348623842,0.229913313538841,3.32726139625778,2.78241753578186,2.88245257915189,4.21885877518527,12.4487920437384,-0.575943079246539,16.809096752215,9.81707952142407,-51.5596360455034,-1.81236006883877,12.2647609960547,0.632586136249224,-17.9079176854522,-42.9432869421865,5.19735265351088,-2.02018002538061,10.0084369942723,-0.91310588997149,-12.9894996444755,-2.35869403571354,16.3903856376499,1040.65913108632,-0.0701374659110621,0.0183599578545274
72.2,-38.9908102416992,-42.6907424926758,-40.0544629208678,0.00633838632186794,-3.70933468403934,-2.65934062004089,-2.73268922283375,-83.9306468963623,110.852432250977,97.2269151970013,-0.0600637214251501,0.650081190452708,1.17362642288208,0.696455541493443,0.950158399381855,8.21307550019317,0.131739700527999,6.05198678899464,5.8690569156948,50.3434693732722,-6.38198520200897,-1.99451689944626,-1.00036959855764,38.6987172732984,36.4084341784682,245.637705478873,3.58718872044633,5.16971886008798,9.47301274430508,39.8986042840469,21.1236652981104,212.301694142243,6.2513199948488,0,0,-13.4850757598877,39.1032867431641,32.7490884182524,0.0499055872499222,1.1206612408291,0.69010990858078,0.793326380801731,-20.2117673301697,49.1481666564941,48.2635731851731,0.244550576711741,3.24107923806682,2.78241753578186,2.92840757127685,3.9291393984804,11.9700184974888,-1.22412880339981,15.1449835715185,12.1450192714695,-53.1267517366147,-1.50790919840314,12.1395432993432,0.600667899832587,-19.1264486483666,-52.6096930136641,6.05517420203022,-2.01018339656713,9.89906211775632,-0.860182558376363,-11.5715934665505,-2.52196808186339,11.0453089011743,1031.57470995235,-0.0764433432520497,0.0169709772160067
72.205,-38.9908102416992,-42.6907424926758,-40.1930326831625,0.0115518030803333,-3.67188929725384,-2.65934062004089,-2.75518822779293,-83.9306468963623,110.852432250977,103.666890192748,-0.065114532404741,0.538544694543481,1.17362642288208,0.67692551702771,0.832306449535815,8.24990423452005,0.232404907688158,5.83677360897742,6.2722027317834,48.5429534728464,-6.76500403900863,-1.88894119437584,-0.725381715583526,36.6678323351078,32.7740594905718,254.555412177615,3.21731348361614,5.4525645812212,10.1698365883559,29.5435924714251,7.2367768122027,213.599294114166,5.26922041279839,0,0,-13.4850757598877,39.1032867431641,35.7845802099379,0.0406078926892919,1.01167735564406,0.69010990858078,0.819987391780689,-20.2117673301697,49.1481666564941,51.5597977465042,0.25918783988464,3.15489707987586,2.78241753578186,2.97220273878971,3.63942002177553,11.4912449512392,-1.87231452755308,13.480870390822,14.4729590215149,-54.693867427726,-1.20345832796751,12.0143256026318,0.56874966341595,-20.344979611281,-62.2760990851418,6.91299575054956,-2.00018676775364,9.78968724124038,-0.807259226781237,-10.1536872886256,-2.68524212801324,5.70023216469875,1022.49028881839,-0.0827492205930372,0.0155819965774859
72.21,-39.2817124942163,-39.8749047110354,-40.0496804611799,0.014791168989157,-3.48788308337243,-2.8333487759472,-2.95507923585276,-82.9945385827975,115.259831083903,107.846099939072,-0.0762262913636023,0.415866964017964,1.14962529792949,0.633953727503422,1.12249638489391,7.93920994518489,0.167858175744597,4.43167293783263,10.2904225878776,42.3384434029174,-6.8682936699212,-1.83611137889676,-0.307027654160433,32.1696992871089,35.0240180881932,259.687996519202,1.81022180482675,5.06462588015883,9.09520591801307,5.25301829015023,3.23291894753722,210.586705318181,5,0,0,-13.212820870689,36.4098763091025,36.8975413090243,0.0353824985761401,0.88556942377534,0.870118355895758,1.0235955825947,-19.9432422553642,44.2510574568824,51.6871970732718,0.246583996245115,3.00553214055186,2.92642428549743,3.15727610858556,3.44226322456255,10.9231794998263,-1.76845553699739,11.537445635018,14.9046662373793,-55.8080954019891,-0.232708359022078,11.6865112264458,0.488334136690244,-20.4283292847189,-67.0367194308164,2.45047398057745,-2.07713693598105,9.70003895053539,-0.79724686083097,-9.19167341406274,-2.34778207979417,3.45264777061799,1008.39695546413,-0.0860771613586216,0.0136299583604835
72.215,-39.6825009608954,-35.9954046481947,-39.7998433594292,0.0172851940118499,-3.24851212102246,-3.07308724958189,-3.22360733883305,-81.7048221492093,121.332092831646,111.171745094069,-0.0896278612337621,0.288973385670901,1.11655792225574,0.583446387427566,1.56681343810603,7.4972437758522,0.0409104462554283,2.57708676628293,15.6742369043482,34.4702382212723,-6.86594278604177,-1.80319900458476,0.165500005604835,26.7394477582052,39.4965021106629,263.391364210747,0.0113048457521019,4.42332181436755,7.351466941671,-24.3022936806114,2.96139186618908,205.946059248809,5,0,0,-12.8377236734565,32.6990496356601,37.2844798098547,0.0316947755888877,0.752985847949425,1.11812368746124,1.29168625688443,-19.5732837828362,37.5041008063596,50.6178122143753,0.223690983842728,2.8322947026289,3.12482853953992,3.39351731484227,3.28005223688193,10.3213532266924,-1.38055969689157,9.48840363640442,14.6202383112261,-56.7513512795379,0.989751258281106,11.2821591991839,0.389597013754213,-20.0829525172472,-69.9448498594437,-4.02171250229556,-2.18692996890142,9.6178350491049,-0.803440323886507,-8.40177639918685,-1.82118408856005,2.37476748191325,992.410945084016,-0.0882806224611376,0.0114651379823388
72.22,-40.0832703169286,-32.1160895700986,-39.5500181705672,0.0197791001128843,-3.0091525725082,-3.31281429185696,-3.49445070750719,-80.4151672126854,127.404065038013,114.497231673578,-0.103028792081899,0.162085857942679,1.08349212332124,0.535396263745126,2.01110930511496,7.05529868062639,-0.08603123003283,0.722589026269162,21.0577945064226,26.6024082162999,-6.86359201425866,-1.77028819962114,0.638005134011159,21.3094551579458,43.9687728733565,267.094555316002,-1.78752633624077,3.7820483276372,5.60781111137968,-53.8561963765317,2.68987773196479,201.30563445762,5,0,0,-12.4626443618427,28.9883999041724,37.6713998604419,0.0280072284419455,0.620408594056365,1.36611719348163,1.55588908851401,-19.2033429508992,30.757465868437,49.5484783465555,0.200799063039254,2.65906552512164,3.32322333314688,3.62609112312715,3.11784898384693,9.71955565021468,-0.99268235267741,7.43945934149092,14.3358239473429,-57.6945621801709,2.21215258550145,10.877826452488,0.290864598863335,-19.7375922182462,-72.8528416207798,-10.4935903743311,-2.29671776660184,9.53563506737218,-0.809633491621472,-7.61191704867366,-1.29461120690019,1.29693858936952,976.425696958827,-0.0904839784968454,0.0093004208285111
72.225,-40.4840587836077,-28.2365895072579,-39.3001810688165,0.0222731251355772,-2.76978161015824,-3.55255276549164,-3.76695908739007,-79.1254507790971,133.476326785756,117.822876828575,-0.116430361952058,0.0351922795956161,1.05042474764749,0.490647408189065,2.45542635832707,6.6133325112937,-0.212978959521999,-1.13199714528054,26.4416088228932,18.7342030346548,-6.86124113037923,-1.73737582530913,1.11053279377643,15.879203629042,48.4412568958261,270.797923007547,-3.58644329531542,3.14074426184592,3.86407213503761,-83.4115083472933,2.41835065061665,196.664988388248,5,0,0,-12.0875471646101,25.27757323073,38.0583383612724,0.0243195054546931,0.48782501823045,1.61412252504711,1.81596874868884,-18.8333844783712,24.0105092179142,48.479093487659,0.177906050636868,2.48582808719868,3.52162758718938,3.85466498738311,2.95563799616631,9.1177293770808,-0.604786512571583,5.39041734287732,14.0513960211898,-58.6378180577196,3.43461220280464,10.4734744252261,0.192127475927305,-19.3922154507746,-75.7609720494071,-16.9657768572041,-2.40651079952222,9.45343116594169,-0.815826954677009,-6.82202003379776,-0.768013215666067,0.219058300664779,960.439686578708,-0.0926874395993614,0.00713560045036635
72.23,-40.7944522500642,-23.6658783926377,-37.8995443320077,0.0291960772747136,-2.46092466162206,-3.71665213275484,-3.96472930434123,-77.6074965436005,139.835328545682,121.476335438175,-0.127613416426399,-0.0894386448959268,0.992124139371211,0.424712464393258,2.74901529757979,6.36995484296514,-0.233541148713765,-2.14521503931585,29.7086995412887,12.7882405042755,-6.81730808260187,-1.59317989243495,1.46045157034859,10.9599092725076,51.8240368033906,273.368507305994,-4.90425990146676,2.59497038797553,2.73778019057446,-99.5028175963883,9.22310971657891,182.696341211825,4.62330661119286,0,0,-11.8593287435875,19.7148147757796,36.6839078772598,0.0195429360523571,0.400499716815096,1.72960087342606,1.93923878227756,-18.6133677571861,16.7547586056503,45.3206257802225,0.16394198977723,2.33697224206573,3.63189284615735,3.99081838405503,2.56487835506622,8.43084047896901,-0.589602339032912,2.91193109746817,15.6870402629869,-56.1238055372334,4.34870795068242,10.0741645948551,0.165112892587128,-18.9742494028861,-74.713698824063,-21.8073301412089,-2.46808389858832,9.38386885797701,-0.845560926980875,-6.25997322877313,-0.48121049802935,-0.459868902850398,940.322504946979,-0.0950980471763048,0.00415135331643294
72.235,-41.0037705524639,-18.3215881815009,-35.211600372641,0.0410734696588645,-2.07431665782755,-3.79616597760388,-4.07799959790478,-75.8341057087541,146.515690485088,125.496821427103,-0.136316198205715,-0.211551388504165,0.905594351179427,0.335218706136029,2.87404497945102,6.34867319498706,-0.135113526815154,-2.21746754788342,30.6085716934483,8.99169959954374,-6.72686107869501,-1.32449908671166,1.6732680501294,6.61162193871448,53.9883278554825,274.672336665145,-5.68410042003746,2.15599159553501,2.30198700810938,-100.536308194605,23.9433597394143,158.292943363169,3.82524481201482,0,0,-11.7953707116725,12.0801145647618,33.3392529432356,0.0135480128691131,0.363786829681217,1.69685987848822,1.90997618201255,-18.5610381815862,8.92919058809179,39.825206485076,0.159963522151299,2.21537209341987,3.64358605863515,4.02392668908917,1.918448297732,7.64873991577453,-0.991293444619205,-0.0471375488668753,19.4704443479791,-49.742595348744,4.9179920340961,9.68045410726063,0.218317012532328,-18.4750502527829,-69.2422134025378,-24.825514476372,-2.47572937521423,9.32843910487095,-0.901627887704763,-5.95271938027624,-0.462589057951257,-0.692636935538692,915.582589172459,-0.0977405909460392,0.000250278494124329
72.24,-41.2130788740177,-12.9775528001473,-32.5237845814966,0.0529502956977749,-1.68772708851729,-3.87567603102412,-4.19049331291321,-74.0607994338368,153.195733887304,129.517115708708,-0.145018565013556,-0.33365830945631,0.819068688955038,0.250890695553279,2.99906869957889,6.32739256177381,-0.0366905982038734,-2.28971661126176,31.508400937342,5.19533972384617,-6.63641838753868,-1.05583109239433,1.88607438226193,2.26354194267332,56.1525157084969,275.97610385429,-6.46390375376558,1.71703373475539,1.86621460540695,-101.569749513278,38.6629078620959,133.890709132569,3.02722106651783,0,0,-11.7314157294443,4.44577839628699,29.9947574911365,0.00755337553953994,0.327075693114147,1.66412044472694,1.87649027003866,-18.5087111011977,1.10399571415424,34.330049225944,0.155985244229145,2.09377774298822,3.65527871354989,4.05244972983708,1.27204906387945,6.86667664518749,-1.39296539651937,-3.00606509904293,23.2536680303352,-43.3616894331035,5.48724897255062,9.28676239281544,0.271518595565457,-17.9758749058054,-63.7709888757972,-27.8435548965848,-2.48337448728376,9.273011994801,-0.957692175008819,-5.64548018244922,-0.443968505792297,-0.925393869236298,890.843853062053,-0.100383008712351,-0.00365061031469857
72.245,-41.4223971764175,-7.6332625890106,-29.8358406221299,0.0648276880819259,-1.30111908472278,-3.95518987587316,-4.30133854438587,-72.2874085989903,159.87609582671,133.537601697636,-0.153721346792873,-0.455771053064548,0.732538900763255,0.172075650399389,3.12409838145012,6.30611091379574,0.0617370236947377,-2.36196911982934,32.4082730895016,1.39879881911443,-6.54597138363183,-0.787150286671047,2.09889086204275,-2.08474539111979,58.3168067605888,277.279933213441,-7.24374427233628,1.27805494231487,1.43042142294187,-102.603240111495,53.3831578849313,109.487311283913,2.22915926733979,0,0,-11.6674576975293,-3.18892181473082,26.6501025571123,0.00155845235629599,0.290362805980268,1.6313794497891,1.83898341777885,-18.4563815255978,-6.72157230340423,28.8346299307975,0.152006776603214,1.97217759434236,3.66697192602769,4.07635444276239,0.625619006545231,6.08457608199301,-1.79465650210566,-5.96513374537799,27.0370721153274,-36.9804792446141,6.0565330559643,8.89305190522094,0.324722715510656,-17.4766757557022,-58.299503454272,-30.8617392317479,-2.49101996390967,9.21758224169494,-1.01375913573271,-5.33822633395233,-0.425347065714204,-1.15816190192459,866.103937287534,-0.103025552482086,-0.00755168513700718
72.25,-41.4825018310547,-4.63497043668853,-26.029083320678,0.0805208098253858,-0.995600046709444,-3.92421876247789,-4.29916948731871,-70.4932175197989,163.790291624176,138.403590783798,-0.159920505083879,-0.546581067667114,0.639215649858399,0.0922064946015396,3.16000000000003,6.30000000000001,0.089999999999975,-2.38271604938274,32.6666666666667,0.30864197530866,-6.53112745949431,-0.231519241743773,2.00050641391462,-4.46897528995635,53.461546685095,281.54893181067,-7.46767139434814,1.15200448036194,1.30528569221497,-102.900001525879,57.6100006103516,102.480003356934,2,0,0,-11.8031266767707,-9.37311454272177,21.3200999167791,-0.00542659019942025,0.361686087237353,1.53393661200023,1.73307159599668,-18.6359251228652,-14.1581502211223,21.6919639011733,0.158397915132732,1.9591496178485,3.60511369483718,4.02212776590998,0.439999999999998,5.86000000000001,-1.91000000000003,-6.06153617826448,28.2860184411723,-29.7836136635358,5.83053891769846,8.92465697342627,0.199052179738458,-16.6075299054109,-37.5529890401199,-35.1078457229695,-2.4696740768176,9.12526781338987,-0.957457979249028,-5.50314974948123,-0.491401213342592,-1.24447308149426,851.210778353969,-0.103283182261361,-0.0102006571835528
72.255,-41.4825018310547,-2.58153091785562,-21.7713727311575,0.0977520956817297,-0.722726151039828,-3.84873822439463,-4.2491114441067,-68.6905273261166,166.590437096473,143.610504723839,-0.165111527614077,-0.624787281075113,0.543149502725766,0.0154307945047344,3.16000000000003,6.30000000000001,0.089999999999975,-2.38271604938274,32.6666666666667,0.30864197530866,-6.54673820807382,0.439742947175162,1.77675235094164,-6.06217102975822,45.7782317463731,287.012693813499,-7.46767139434814,1.15200448036194,1.30528569221497,-102.900001525879,57.6100006103516,102.480003356934,2,0,0,-12.0192217400419,-14.9734038744949,15.1899705863643,-0.0128109560479042,0.476535031035855,1.41042300422763,1.59780219409257,-18.9088876639151,-21.4385262655833,13.8852492729102,0.168966735072822,1.98985758307133,3.51362213352414,3.933793586783,0.439999999999998,5.86000000000001,-1.91000000000003,-5.00475916537169,28.5140767023133,-22.257691045883,5.28416271741559,9.12759670495991,0.00131603106466407,-15.5892979507392,-10.651750490038,-39.8488878841541,-2.43664798782596,9.01808872333642,-0.855887098838634,-5.85829434417789,-0.591570180913188,-1.27179189647093,840.283254348312,-0.102580099322677,-0.0123454139686363
72.26,-41.4825018310547,-0.528189312408122,-17.5138651604521,0.114982559905141,-0.449865266713703,-3.77326128542153,-4.19487852498261,-66.8879230894339,169.390449050484,148.817170384558,-0.170302302622697,-0.702989765405609,0.44708793627915,-0.0555202223758391,3.16000000000003,6.30000000000001,0.089999999999975,-2.38271604938274,32.6666666666667,0.30864197530866,-6.56234821229187,1.11097312855123,1.55300895714961,-7.65529080180596,38.0952831682719,292.476195289815,-7.46767139434814,1.15200448036194,1.30528569221497,-102.900001525879,57.6100006103516,102.480003356934,2,0,0,-12.2353064993335,-20.5734261697751,9.06013355660407,-0.0201949697904445,0.591378498535301,1.286915285908,1.45975338707494,-19.1818371893947,-28.7185551626074,6.07890688928894,0.17953505106384,2.02056408405779,3.42213493476886,3.84115416598309,0.439999999999998,5.86000000000001,-1.91000000000003,-3.94803254238035,28.7421240890379,-14.7321272839721,4.7378125697839,9.33052675979455,-0.196410689030612,-14.5711145480393,16.2482053383889,-44.5897039800058,-2.40362347360492,8.91091474386326,-0.754321061594387,-6.21342200464822,-0.691734372164521,-1.2991094088148,829.356251395678,-0.101877049908833,-0.0144900684860875
72.265,-41.4825018310547,1.52525020642479,-13.2561545709316,0.132213845761485,-0.176991371044088,-3.69778074733827,-4.13573979124149,-65.0852328957516,172.190594522781,154.024084324599,-0.175493325152895,-0.781195978813609,0.351021789146517,-0.120770650284933,3.16000000000003,6.30000000000001,0.089999999999975,-2.38271604938274,32.6666666666667,0.30864197530866,-6.57795896087138,1.78223531747017,1.32925489417662,-9.24848654160784,30.41196822955,297.939957292644,-7.46767139434814,1.15200448036194,1.30528569221497,-102.900001525879,57.6100006103516,102.480003356934,2,0,0,-12.4514015626047,-26.1737155015482,2.93000422618918,-0.0275793356389284,0.706227442333803,1.1634016781354,1.31948154693158,-19.4547997304446,-35.9989312070684,-1.72780773897417,0.19010387100393,2.05127204928063,3.33064337345583,3.74441466458935,0.439999999999998,5.86000000000001,-1.91000000000003,-2.89125552948756,28.9701823501789,-7.2062046663193,4.19143636950103,9.53346649132819,-0.394146837704406,-13.5528825933676,43.1494438884708,-49.3307461411904,-2.37059738461328,8.8037356538098,-0.652750181183994,-6.56856659934488,-0.791903339735116,-1.32642822379146,818.428727390021,-0.101173966970149,-0.016634825271171
72.27,-40.9642159965008,16.2392675926825,-7.34221443283209,0.144563571002667,-0.0676472820743159,-3.20215390234337,-3.65092649282847,-62.0820852728348,179.618965698611,159.346394511271,-0.180525650327473,-0.855546992422768,0.128031912336778,-0.307437778933089,3.58951243756674,5.93312479291177,0.38752684477277,-2.7666038375886,33.4731072001639,-15.7373152151665,-6.65382245020677,1.93263723047848,1.01365837495552,-9.10328194438954,25.9386084003098,298.913928556657,-8.04577402983283,3.20831429628162,2.71652082337345,-108.216336326202,67.3814086332638,88.0342910537964,1.55259121086799,0,0,-12.9979417629917,-28.8320014983387,-3.12341772418476,-0.0367160700994557,0.828037585517089,0.950589585787683,1.08830733084671,-20.3803761822736,-45.2971217569417,-10.0210791303767,0.199600904710728,2.07287700654924,3.02171981972082,3.42640023673535,0.880697657295032,5.99198559279395,-1.75340692380381,-1.78370070996705,30.9056300277845,1.06336040574221,4.06854798924982,9.60250383496754,-0.567644900413572,-13.3700409987384,51.4114092575851,-54.8030693981786,-2.41610657256074,8.89044825966684,-0.641613324655617,-6.95167528070753,-0.624917967926865,-1.42395587903271,809.841459373888,-0.0999676277703621,-0.019651127758075
72.275,-40.3679413504827,32.8584919858997,-1.17882038270553,0.1561796910279,0.0171047071707316,-2.64330160337971,-3.09685171243047,-58.8982005047875,187.743920518648,164.68635453164,-0.185534380361126,-0.929322186906642,-0.114062021560647,-0.507968607656375,4.08365555241941,5.51104421564178,0.729823898290519,-3.20825695593043,34.4008964847381,-34.1977800897424,-6.73875329807209,2.00469976806115,0.684229631720394,-8.69657979224742,21.9478435324153,299.212600449636,-8.71086638110744,5.57404634189396,4.34011088155852,-114.332644046448,78.6231645747041,71.4148671456614,1.03785879956312,0,0,-13.5942173907839,-31.0478981781877,-9.16563345292713,-0.0461168964722482,0.950901512169368,0.724333571294086,0.842720107407347,-21.4041693722566,-54.8993413574701,-18.387993174471,0.20893724168057,2.09311387764455,2.68007327258109,3.0721008436231,1.38770908243034,6.14383165412888,-1.5732505798471,-0.668447152139831,33.0980088166756,9.44523757254621,4.00935376194975,9.6514034140415,-0.737506596144171,-13.3128485085934,56.8701147058677,-60.385691908442,-2.47343150676719,9.00633074553884,-0.644078912398893,-7.3390113269459,-0.417738170535828,-1.53204967436178,801.60574079301,-0.0986855227574672,-0.0227986933212244
