time,hip_angle_l,hip_angle_l_velocity,hip_angle_l_velocity_filt,hip_angle_l_torque_estimated,hip_angle_l_torque_desired,hip_angle_l_torque_measured,hip_angle_l_torque_interaction,knee_angle_l,knee_angle_l_velocity,knee_angle_l_velocity_filt,knee_angle_l_torque_estimated,knee_angle_l_torque_desired,knee_angle_l_torque_measured,knee_angle_l_torque_interaction,thigh_imu_l_accel_x,thigh_imu_l_accel_y,thigh_imu_l_accel_z,thigh_imu_l_gyro_x,thigh_imu_l_gyro_y,thigh_imu_l_gyro_z,shank_imu_l_accel_x,shank_imu_l_accel_y,shank_imu_l_accel_z,shank_imu_l_gyro_x,shank_imu_l_gyro_y,shank_imu_l_gyro_z,foot_imu_l_accel_x,foot_imu_l_accel_y,foot_imu_l_accel_z,foot_imu_l_gyro_x,foot_imu_l_gyro_y,foot_imu_l_gyro_z,insole_l_force_y,insole_l_cop_x,insole_l_cop_z,hip_angle_r,hip_angle_r_velocity,hip_angle_r_velocity_filt,hip_angle_r_torque_estimated,hip_angle_r_torque_desired,hip_angle_r_torque_measured,hip_angle_r_torque_interaction,knee_angle_r,knee_angle_r_velocity,knee_angle_r_velocity_filt,knee_angle_r_torque_estimated,knee_angle_r_torque_desired,knee_angle_r_torque_measured,knee_angle_r_torque_interaction,thigh_imu_r_accel_x,thigh_imu_r_accel_y,thigh_imu_r_accel_z,thigh_imu_r_gyro_x,thigh_imu_r_gyro_y,thigh_imu_r_gyro_z,shank_imu_r_accel_x,shank_imu_r_accel_y,shank_imu_r_accel_z,shank_imu_r_gyro_x,shank_imu_r_gyro_y,shank_imu_r_gyro_z,foot_imu_r_accel_x,foot_imu_r_accel_y,foot_imu_r_accel_z,foot_imu_r_gyro_x,foot_imu_r_gyro_y,foot_imu_r_gyro_z,insole_r_force_y,insole_r_cop_x,insole_r_cop_z
49.24,-47.0499000549316,-36.9508094787598,-49.3220837662576,0.0916790554020766,-1.75843903553582,-2.84395599365234,-2.82422376859087,-55.7535507965088,74.260368347168,72.0692363439726,-0.116386832823346,-0.0975400979233507,0.584615409374237,0.54582928883556,5.47276750266292,5.02156119879927,-0.119670765953349,-1.62925813551198,-0.905972238660006,102.993461643755,-5.86997167618862,5.03936985571804,-0.3690689454827,-69.521617191899,47.3902158670727,235.023265454215,-11.7830516658979,10.9675669347696,0.848552784957428,-65.0726893696398,2.06266749044858,326.386925656047,0.189043284593783,0,0,-0.355831871032713,23.3184719085693,28.9139547340411,0.140448981881032,4.88028647602768,7.01098918914795,7.00374469284537,2.24274060726166,16.1435585021973,19.5153161192406,-0.1874429230438,-1.20940837433171,0.250549465417862,0.256593371853917,1.87084874600563,7.37432870146218,-1.52936985571799,-7.53390608580887,-2.92683388982736,-77.0778939182557,0.888904328459384,10.4023559601046,0.122520577127923,0.206967950488152,29.3006624729374,-34.8029105652569,-1.31247079372406,9.75251960754395,-0.287402361631393,-5.67000007629395,-0.769999980926514,3.74500012397766,849,-0.230450332164764,0.0823267251253128
49.245,-47.0499000549316,-36.9508094787598,-46.7772701253552,0.121802533766518,-1.72284906343618,-2.84395599365234,-2.82050695424196,-55.7535507965088,74.260368347168,72.4779498945344,-0.130067285864142,-0.177554423235255,0.584615409374237,0.546312573485884,5.6047627578193,4.86672061101966,0.0427849327006762,-1.82668693595956,-1.72075776431671,99.3864687974828,-5.54759864917207,5.03683148542656,-0.526447903553777,-64.9588182482214,44.2376226408779,233.177462859554,-12.0803365864273,10.0927344827681,1.05403807595873,-71.0251669284853,-8.80282710380495,305.286722608212,0.950554372034473,0,0,-0.355831871032713,23.3184719085693,28.2767127459255,0.137409689374809,4.71062332876657,7.01098918914795,7.00255328053197,2.24274060726166,16.1435585021973,18.8634004605447,-0.191600071473581,-1.27765095515,0.250549465417862,0.260720860808695,1.67285586327104,7.35148336883897,-1.52683148542653,-6.75045846498512,-1.09043266661647,-76.2975800879153,0.965055437203455,10.3312815919435,0.132674058293804,0.294714084020425,30.3128767990417,-35.4014645475662,-1.31247079372406,9.75251960754395,-0.287402361631393,-5.67000007629395,-0.769999980926514,3.74500012397766,849,-0.230450332164764,0.0823267251253128
49.25,-47.0499000549316,-36.9508094787598,-44.2323351352734,0.151927448565958,-1.68725739423235,-2.84395599365234,-2.81870933698903,-55.7535507965088,74.260368347168,72.8866829345602,-0.143748391255949,-0.257572564022115,0.584615409374237,0.559314835243891,5.73676430715599,4.71187263968238,0.205248378038152,-2.02412515077939,-2.53558214293825,95.7793039521236,-5.22521024983054,5.03429299409315,-0.683834366224447,-60.3958017279408,41.084879083596,231.331572247985,-12.3776356829578,9.21786031447018,1.25953316550521,-76.9779283306173,-19.668839818062,284.185513399342,1.71210177205384,0,0,-0.355831871032713,23.3184719085693,27.6394403709905,0.134370251940232,4.54095209113556,7.01098918914795,7.00067996253505,2.24274060726166,16.1435585021973,18.2114537153169,-0.195757418136561,-1.34589679010882,0.250549465417862,0.266030810427117,1.474853539266,7.32863694683839,-1.52429299409313,-5.96697348554132,0.746056125199782,-75.5172290483893,1.04121017720539,10.2602038346083,0.142828023627401,0.382464401718142,31.3251393924831,-36.0000470718613,-1.31247079372406,9.75251960754395,-0.287402361631393,-5.67000007629395,-0.769999980926514,3.74500012397766,849,-0.230450332164764,0.0823267251253128
49.255,-47.0499000549316,-36.9508094787598,-41.687521494371,0.182050926930399,-1.65166742213272,-2.84395599365234,-2.82263532715658,-55.7535507965088,74.260368347168,73.2953964851221,-0.157428844296745,-0.33758688933402,0.584615409374237,0.584826390321332,5.86875956231237,4.55703205190277,0.367704076692177,-2.22155395122698,-3.35036766859496,92.172311105851,-4.90283722281399,5.03175462380167,-0.841213324295524,-55.8330027842632,37.9322858574012,229.485769653324,-12.6749206034872,8.34302786246867,1.46501845650651,-82.9304058894629,-30.5343344123155,263.085310351506,2.47361285949453,0,0,-0.355831871032713,23.3184719085693,27.0021983828749,0.131330959434009,4.37128894387446,7.01098918914795,6.99897458246688,2.24274060726166,16.1435585021973,17.5595380566209,-0.199914566566341,-1.41413937092711,0.250549465417862,0.268243913507148,1.27686065653141,7.30579161421518,-1.52175462380167,-5.18352586471756,2.58245734841067,-74.7369152180488,1.11736128594947,10.1891294664472,0.152981504793282,0.470210535250415,32.3373537185874,-36.5986010541706,-1.31247079372406,9.75251960754395,-0.287402361631393,-5.67000007629395,-0.769999980926514,3.74500012397766,849,-0.230450332164764,0.0823267251253128
49.26,-47.2270560102392,-35.9181629375097,-39.4193763752543,0.210158823089943,-1.62586743448224,-2.76670787324737,-2.74956520478858,-55.3230799372791,73.5538204323229,73.5155009856519,-0.170525071005567,-0.413898655587613,0.544659480793989,0.571256054142773,5.99560239554576,4.41061011556636,0.489847471108426,-3.0425782384952,-4.01177440326521,88.6577931196219,-4.68378748888786,5.06257240443548,-0.914397604454209,-50.8853324229889,33.5507317701519,227.460795407613,-12.8804159164429,7.73830842971802,1.60705816745758,-87.0449981689453,-38.0450019836426,248.5,3,0,0,-0.258147819059271,22.5032246923913,26.200602769155,0.128682655255073,4.20922260594938,6.85116545563804,6.83679989221857,2.25929714542867,14.9478624423104,16.8019466840307,-0.202723791063953,-1.48101599473844,0.139338798030004,0.158919101280298,1.10591260000934,7.4036246666355,-1.5396949422168,-4.94590960211135,3.61712105904934,-73.183793097672,1.13439760445423,10.0968226266785,0.153940017779463,0.436410770945019,33.3924063647858,-37.2470764718149,-1.31247079372406,9.75251960754395,-0.287402361631393,-5.67000007629395,-0.769999980926514,3.74500012397766,849,-0.230450332164764,0.0823267251253128
49.265,-47.8007338266003,-32.5741804457623,-37.7708815089052,0.233750661877907,-1.62198551578832,-2.51655803800761,-2.5040043598314,-53.9291014955085,71.2658315005414,73.3133854593498,-0.182311532251908,-0.48191076034097,0.415271621273239,0.468962033633672,6.11089236419781,4.28305525663219,0.521736185841967,-5.25934359319159,-4.32975304020937,85.3508152954027,-4.69605237916999,5.16805046086181,-0.799107635802178,-45.0769226548091,26.4189251986901,225.035072662925,-12.8804159164429,7.73830842971802,1.60705816745758,-87.0449981689453,-38.0450019836426,248.5,3,0,0,0.0581789650567026,19.8632386870686,25.0312386932445,0.126909955630881,4.06418613437281,6.33361395541626,6.31633770198785,2.31291159291174,11.0758825053297,15.8079257936457,-0.20251536353173,-1.54482470789554,-0.220790742703592,-0.199691284881303,0.995528587470163,7.77157137509944,-1.60347237168388,-5.93012919265278,2.85700069835426,-69.90104221722,1.01910763580219,9.95700287746221,0.134316193328043,0.130545605884445,34.5431861937266,-38.0071968325099,-1.31247079372406,9.75251960754395,-0.287402361631393,-5.67000007629395,-0.769999980926514,3.74500012397766,849,-0.230450332164764,0.0823267251253128
49.27,-48.3744389987296,-29.2300384965503,-36.1223080342463,0.257343625640303,-1.61810341198549,-2.26639627439843,-2.25900890259759,-52.5350565820179,68.9777334662407,73.1112602951895,-0.194098555534454,-0.549926108244618,0.285877591905579,0.367163568218757,6.22618783044027,4.15549431525757,0.553626421185624,-7.47621465411823,-4.64774683993246,82.0436797782826,-4.70831785430217,5.27353354699853,-0.68381216955973,-39.2682359132007,19.2867785477581,222.609234247894,-12.8804159164429,7.73830842971802,1.60705816745758,-87.0449981689453,-38.0450019836426,248.5,3,0,0,0.374520833183172,17.223126794282,23.8618188563271,0.125137171475688,3.91914274674686,5.81603777580389,5.79539695555621,2.36652859699429,7.20371793337989,14.8138575034757,-0.202306926060662,-1.60863646376462,-0.580937456177674,-0.558707761734613,0.885139311280581,8.13953562906473,-1.66725284237119,-6.91439571560519,2.09684409139717,-66.6181347991264,0.903812169559725,9.8171764609554,0.114691433116551,-0.175334144325385,35.6940208974863,-38.767353439467,-1.31247079372406,9.75251960754395,-0.287402361631393,-5.67000007629395,-0.769999980926514,3.74500012397766,849,-0.230450332164764,0.0823267251253128
49.275,-48.9481168150907,-25.886056004803,-34.4738131678973,0.280935464428268,-1.61422149329157,-2.01624643915867,-2.01476962060975,-51.1410781402474,66.6897445344593,72.9091447688874,-0.205885016780795,-0.617938212997975,0.156489732384829,0.265623726225557,6.34147779909232,4.0279394563234,0.585515135919165,-9.69298000881461,-4.96572547687661,78.7367019540634,-4.7205827445843,5.37901160342486,-0.5685222009077,-33.4598261450209,12.1549719762964,220.183511503206,-12.8804159164429,7.73830842971802,1.60705816745758,-87.0449981689453,-38.0450019836426,248.5,3,0,0,0.690847617299146,14.5831407889593,22.6924547804167,0.123364471851496,3.7741062751703,5.29848627558211,5.27414983075665,2.42014304447736,3.33173799639917,13.8198366130907,-0.20209849852844,-1.67244517692172,-0.94106699691127,-0.918097714951082,0.774755298741398,8.50748233752868,-1.73103027183828,-7.89861530614662,1.33672373070209,-63.3353839186744,0.788522200907681,9.6773567117391,0.09506760866513,-0.481199309385959,36.8448007264271,-39.5274738001621,-1.31247079372406,9.75251960754395,-0.287402361631393,-5.67000007629395,-0.769999980926514,3.74500012397766,849,-0.230450332164764,0.0823267251253128
49.28,-49.388599395752,-23.3184719085693,-32.8621553229715,0.302231308137637,-1.59984091949861,-1.82417583465576,-1.82951462467244,-50.07075050354,64.932975769043,72.5212293278268,-0.218705909259199,-0.692969380049228,0.0571428574621677,0.194086360963658,6.45507019842756,3.8906853706477,0.628802648820679,-11.8164155122925,-5.49054458957897,75.4575238847983,-4.78412883751406,5.45430222763008,-0.46347646012731,-27.8604455260202,5.29677497446277,216.915537136413,-13.0812890507987,7.59120157759362,1.51521872569009,-88.5486402625852,-41.0861877687234,244.445750139751,2.94302227630101,0,0,0.933730354309084,12.5561008453369,21.4701578092051,0.120059078386585,3.63731929498713,4.90109872817993,4.8728719459585,2.46130940914154,0.358745723962784,12.6516737698455,-0.203918812612405,-1.73887512011075,-1.21758246421814,-1.19424260970772,0.686581336578058,8.78601155934109,-1.81361685698238,-8.83158501694007,0.269830911343116,-60.3927576022297,0.772931486334696,9.55803467802321,0.0646160146012581,-0.744186530221724,37.4969670234942,-40.9207575305868,-1.31247079372406,9.75251960754395,-0.287402361631393,-5.67000007629395,-0.769999980926514,3.74500012397766,849,-0.230450332164764,0.0823267251253128
49.285,-49.388599395752,-23.3184719085693,-31.3726250708183,0.315931380060711,-1.55075090754739,-1.82417583465576,-1.8373832409636,-50.07075050354,64.932975769043,71.5190711122282,-0.234944376851812,-0.791192725735734,0.0571428574621677,0.221528505890123,6.56302648820667,3.72139027985774,0.709769866155007,-13.6308323915766,-6.69914615023734,72.2709353088269,-5.01721628135531,5.42976670722575,-0.392323450954711,-22.9533414451516,-0.655360531035237,210.863442103341,-13.9462809400338,6.95773591108422,1.11974338004205,-95.0235639475384,-54.1820208485856,226.987500895547,2.69766707225758,0,0,0.933730354309084,12.5561008453369,20.073096323996,0.111686717605493,3.52783623624067,4.90109872817993,4.86893292515365,2.46130940914154,0.358745723962784,10.9079738501911,-0.212446514209671,-1.81395816720761,-1.21758246421814,-1.19419373863467,0.671860024335452,8.76883669505805,-1.95837642736801,-9.59491231840851,-1.81114470813634,-58.5753116463525,1.08698614751029,9.50651008517409,-0.00162989049046341,-0.865349593946873,36.5004008243549,-44.4072246892781,-1.31247079372406,9.75251960754395,-0.287402361631393,-5.67000007629395,-0.769999980926514,3.74500012397766,849,-0.230450332164764,0.0823267251253128
49.29,-49.388599395752,-23.3184719085693,-29.8830237905666,0.329632105270319,-1.50165855474395,-1.82417583465576,-1.84643321612291,-50.07075050354,64.932975769043,70.5168651088171,-0.251183618774098,-0.889420755192478,0.0571428574621677,0.248242579490431,6.67098792587047,3.5520871162486,0.79074094440285,-15.4453357911449,-7.90780534293809,69.0841947807036,-5.2503148399476,5.40523001684762,-0.321167048858113,-18.0460033695245,-6.60777986350885,204.811058476735,-14.8113140763191,6.32424003782901,0.724249176192417,-101.498796388568,-67.278478401915,209.528419156505,2.45230016847623,0,0,0.933730354309084,12.5561008453369,18.6759682200523,0.103313957589229,3.4183479568057,4.90109872817993,4.86509669021426,2.46130940914154,0.358745723962784,9.16419078238349,-0.220974622449519,-1.88904479463192,-1.21758246421814,-1.19439202436726,0.65713801010857,8.75166101179336,-2.10314290059902,-10.3582760190616,-3.89221955872635,-56.7577790257498,1.40105578435044,9.45498303538001,-0.0678789545114249,-0.986518435320381,35.5037871040578,-47.8938580998008,-1.31247079372406,9.75251960754395,-0.287402361631393,-5.67000007629395,-0.769999980926514,3.74500012397766,849,-0.230450332164764,0.0823267251253128
49.295,-49.388599395752,-23.3184719085693,-28.3934935384133,0.343332177193393,-1.45256854279273,-1.82417583465576,-1.85676660295032,-50.07075050354,64.932975769043,69.5147068932186,-0.26742208636671,-0.987644100878984,0.0571428574621677,0.273843861821471,6.77894421564957,3.38279202545864,0.871708161737178,-17.2597526704291,-9.11640690359646,65.8976062047321,-5.48340228378885,5.38069449644329,-0.250014039685513,-13.1388992886559,-12.5599153690069,198.758963443663,-15.6763059655543,5.69077437131961,0.328773830544375,-107.973720073521,-80.3743114817772,192.0701699123,2.2069449644328,0,0,0.933730354309084,12.5561008453369,17.2789067348432,0.0949415968081363,3.30886489805923,4.90109872817993,4.86151556235518,2.46130940914154,0.358745723962784,7.42049086272907,-0.229502324046785,-1.96412784172877,-1.21758246421814,-1.19473508909513,0.642416697865964,8.73448614751032,-2.24790247098465,-11.1216033205301,-5.9731951782058,-54.9403330698726,1.71511044552603,9.4034584425309,-0.134124859603146,-1.10768149904553,34.5072209049184,-51.380325258492,-1.31247079372406,9.75251960754395,-0.287402361631393,-5.67000007629395,-0.769999980926514,3.74500012397766,849,-0.230450332164764,0.0823267251253128
49.3,-49.4317081930345,-23.2569448316872,-26.9531868153618,0.356772358156753,-1.38649414998394,-1.81588322948956,-1.86016006036901,-49.965789797185,64.0100692886885,68.3532540709052,-0.283457765407132,-1.09441108435324,0.0503579982106403,0.291148037313917,6.89615468978484,3.2442876540631,0.925421976185501,-19.0997873613465,-10.5280434149071,62.6715377552889,-5.68986160434511,5.38744098600377,-0.189999999999998,-8.21393008843395,-17.9756638993983,191.677765398572,-16.7335680746848,5.11078032130908,-0.189735020622842,-109.879889316491,-92.2378683777525,173.294668639904,1.91424691873825,0,0,0.960907653775126,12.6791550399915,15.9613005298875,0.0859215301448901,3.20322033015858,4.86943605390899,4.82667524530643,2.46224657290909,0.297218620246391,5.70209067339044,-0.238743587986358,-2.03752488744408,-1.22851362557358,-1.20602439753647,0.640719135157714,8.72686024650097,-2.37128629621893,-11.7347303783137,-7.98089024544356,-53.2628975852811,1.92083037392941,9.37757938165867,-0.185712345936909,-1.27180932412114,33.4544013235435,-54.3093421741497,-1.30261253645083,9.7602213689622,-0.282883994779346,-5.83057271604974,-0.821023066730671,3.76901097405497,848.52835805306,-0.229751651868121,0.0822653712135517
49.305,-49.7069927812843,-22.8640446096117,-25.7784422389221,0.368808644029866,-1.22896005735304,-1.7629282285942,-1.82027423542667,-49.2955306702146,58.1165638686173,66.3341759286316,-0.298396319115584,-1.24716256789033,0.00703117623628517,0.269994276095463,7.06317356904116,3.27166779820347,0.832329486108215,-21.0772422159295,-13.0328195640456,59.2338085465523,-5.75283593586799,5.5626739085022,-0.189999999999998,-3.19423699603092,-20.5007216367889,179.055856976327,-18.8260976586632,4.81896713204216,-1.37075852975961,-87.1776435962918,-97.4606321258935,147.430014391445,1.36664403593065,0,0,1.13445672414735,13.4649557452598,15.0720507814866,0.073415592112316,3.11828248291827,4.66724423230852,4.62184890305806,2.46823112265611,-0.0956817731873704,4.12048099258259,-0.2518253663738,-2.10181858678835,-1.29831794493565,-1.27604669787846,0.709169495508665,8.77066847712556,-2.37950033946104,-11.5386750252097,-9.59327651148816,-52.340085319809,1.54298438479216,9.48983797263422,-0.158332201796523,-1.66730029503774,32.0989151753592,-54.2349763505585,-1.23965957869293,9.80940335395069,-0.25403056260691,-6.85595908277289,-1.14684679766824,3.92233970029471,845.516542197619,-0.225290012251526,0.081873576791036
49.31,-49.9822904964516,-22.4711256521292,-24.603641644907,0.380845503852046,-1.07141845272497,-1.70997070254502,-1.78175531510774,-48.625239582006,52.2227774173401,64.3150015068224,-0.313335585167449,-1.39992133536636,-0.0362977117731648,0.246525901190514,7.23020041257574,3.29904924796322,0.739232556925018,-23.0547913652459,-15.5377151531798,55.7959154100483,-5.81581327031546,5.7379151869647,-0.189999999999998,1.82569545992618,-23.0258997813007,166.433346679665,-20.9187270247017,4.52714002769303,-2.55183835588218,-64.4743153218165,-102.683644920992,121.564126789582,0.819015040735325,0,0,1.30801407018932,14.2507939213548,14.182758629302,0.06090905773536,3.03334058542536,4.46504276921163,4.41768238366676,2.47421595777578,-0.488600902036393,2.53879589287813,-0.264907768564513,-2.16611535197113,-1.36812559290958,-1.34575447999519,0.77762311990808,8.81447879674118,-2.38771477438896,-11.3426103232262,-11.2057396640077,-51.417229050128,1.1651203781074,9.60210191664925,-0.130950752036751,-2.06281012490103,30.743364390956,-54.1606069808406,-1.17670361902966,9.85858768417712,-0.225175754561497,-7.88139434494055,-1.47268606547725,4.07567573799914,842.504582724044,-0.220828159882099,0.0814817636858431
49.315,-50.257588211619,-22.0782066946466,-23.4288410508918,0.392882363674225,-0.913876848096906,-1.65701317649583,-1.74454375236436,-47.9549484937973,46.3289909660629,62.2958270850132,-0.328274851219314,-1.55268010284238,-0.0796265997826148,0.220367630947268,7.39722725611032,3.32643069772298,0.64613562774182,-25.0323405145623,-18.0426107423139,52.3580222735443,-5.87879060476292,5.9131564654272,-0.189999999999998,6.84562791588328,-25.5510779258125,153.810836383002,-23.0113563907403,4.23531292334389,-3.73291818200475,-41.7709870473413,-107.906657716091,95.6982391877191,0.271386045540004,0,0,1.4815714162313,15.0366320974498,13.2934664771174,0.048402523358404,2.94839868793245,4.26284130611474,4.21429432146656,2.48020079289544,-0.881520030885415,0.957110793173674,-0.277990170755226,-2.2304121171539,-1.43793324088351,-1.41494883171788,0.846076744307495,8.8582891163568,-2.39592920931688,-11.1465456212427,-12.8182028165273,-50.494372780447,0.787256371422625,9.71436586066429,-0.103569302276978,-2.45831995476433,29.3878136065527,-54.0862376111227,-1.11374765936638,9.90777201440356,-0.196320946516085,-8.9068296071082,-1.79852533328625,4.22901177570358,839.49262325047,-0.216366307512673,0.0810899505806503
49.32,-50.4553549111422,-21.063150948214,-22.5591981616218,0.401041091167926,-0.731740787744483,-1.63351053412869,-1.73798097041619,-47.5228151605873,40.4251837605869,59.6732754268227,-0.335539802959172,-1.69424408227868,-0.124856676560576,0.189272446477698,7.51118207723299,3.32960597425565,0.57193613049034,-26.1342509192236,-19.9319732099857,49.3711079327993,-5.88609374078807,6.01455163604205,-0.223260882381838,10.6717245495471,-27.9971404898725,141.878621000877,-24.0483913421631,4.09069347381592,-4.31822061538696,-30.5200004577637,-110.495002746582,82.879997253418,0,0,0,1.62437599318194,15.6497951422481,12.956509045922,0.0387729901657252,2.86285688457123,4.09867400219694,4.04980720112601,2.47862307111699,-1.07623720169067,-0.02296336123826,-0.285957056113759,-2.27523624127501,-1.49719903613163,-1.472880361233,0.900788051488645,8.98186145229439,-2.34906927385279,-10.5912756554661,-14.7516442911091,-49.5288846673144,0.552187481576122,9.77727581802101,-0.0640149356391614,-2.50546827329115,26.1534729121706,-54.6730242607089,-1.10694487053413,9.90650536881175,-0.194468446013102,-9.22946661817684,-1.93817258011888,4.18131094081493,842.261550555173,-0.209376425756632,0.0795931918082589
49.325,-50.5769652409463,-19.4367430838665,-21.9892938224111,0.405390282779381,-0.525423188877827,-1.6389454133597,-1.76138320754821,-47.3246335587413,34.5109729338597,56.4576511491039,-0.335265344253487,-1.82482244362863,-0.171958967835411,0.152966968397733,7.57300383217058,3.30899872260979,0.516296551046488,-26.3759409076628,-21.2167463064257,46.8270027913341,-5.83869706200257,6.04340178834627,-0.289204087648615,13.3252262120953,-30.3657023765766,130.623499855035,-24.0483913421631,4.09069347381592,-4.31822061538696,-30.5200004577637,-110.495002746582,82.879997253418,0,0,0,1.73697914031701,16.0933609591658,13.1621946283218,0.0319692315783592,2.77671758040715,3.97186015347337,3.92360559786935,2.46961490581766,-1.07623720169067,-0.412040873537243,-0.28889864372683,-2.30093252133961,-1.54611294921072,-1.51952686007878,0.942002554780379,9.1838125184239,-2.24809374078804,-9.68303011996306,-17.0006332361643,-48.5214190312942,0.457394124005121,9.79170089417311,-0.0124968065244911,-2.21035207688119,21.0728949446646,-55.909459359461,-1.15531253941204,9.85566997125128,-0.219145831101721,-8.86162720774227,-1.89489734380152,3.93608468356905,850.710523729979,-0.199902066850201,0.0770106704079637
49.33,-50.6985697720507,-17.8104127709144,-21.419416657735,0.409739267009967,-0.319115427775755,-1.64438003344141,-1.78559336586615,-47.1264614067141,28.5970441122262,53.24218020079,-0.334990898634713,-1.95539457865962,-0.21905901314938,0.113077790179765,7.63482263928466,3.28839245357177,0.460659624643807,-26.617619371689,-22.5014581415125,44.283018959479,-5.79130264321511,6.0722505649995,-0.3551441485703,15.9786013487202,-32.7341513240337,119.368915382908,-24.0483913421631,4.09069347381592,-4.31822061538696,-30.5200004577637,-110.495002746582,82.879997253418,0,0,0,1.8495769182385,16.5369056257012,13.3678704030931,0.0251657974120589,2.69058238359117,3.84505235156692,3.79838305506003,2.46060717005129,-1.07623720169067,-0.801099833599324,-0.291840091077284,-2.32662757613813,-1.59502452994606,-1.56502962660355,0.98321509285643,9.38575395499657,-2.14712302250172,-8.77482789199077,-19.2495149435243,-47.5140014338796,0.36260528643019,9.80612528249973,0.0390188660705763,-1.91524995238599,15.9925592324498,-57.1458355017426,-1.20367790199256,9.80483699765599,-0.243822039507854,-8.49380533685616,-1.85162417096099,3.6908701193547,859.15909403557,-0.190428159706067,0.0744282721490666
49.335,-50.8201801018548,-16.1840049065669,-20.8495123185243,0.414088458621423,-0.112797828909099,-1.64981491267242,-1.8103413994307,-46.9282798048681,22.682833285499,50.0265559230712,-0.334716439929029,-2.08597294000956,-0.266161304424214,0.0694164915722347,7.69664439422225,3.26778520192591,0.405020045199955,-26.8593093601282,-23.7862312379524,41.7389138180138,-5.74390596442961,6.10110071730371,-0.421087353837076,18.6321030112684,-35.1027132107378,108.113794237066,-24.0483913421631,4.09069347381592,-4.31822061538696,-30.5200004577637,-110.495002746582,82.879997253418,0,0,0,1.96218006537356,16.9804714426189,13.5735559854929,0.018362038824693,2.60444307942709,3.71823850284335,3.67414402747844,2.45159900475195,-1.07623720169067,-1.19017734589831,-0.294781678690355,-2.35232385620273,-1.64393844302516,-1.60919862756709,1.02442959614816,9.58770502112608,-2.04614748943698,-7.86658235648769,-21.4985038885796,-46.5065357978594,0.267811928859189,9.82055035865184,0.0905369951852466,-1.62013375597602,10.9119812649438,-58.3822706004947,-1.25204557087047,9.75400160009552,-0.268499424596473,-8.12596592642158,-1.80834893464363,3.44564386210882,867.608067210376,-0.180953800799635,0.0718457507487715
49.34,-50.9417846329591,-14.5576745936148,-20.2796351538482,0.418437442852008,0.0935099321929725,-1.65524953275412,-1.83530833409098,-46.7301076528409,16.7689044638656,46.8110849747573,-0.334441994310255,-2.21654507504055,-0.313261349738183,0.0218749286842309,7.75846320133632,3.24717893288789,0.349383118797275,-27.1009878241544,-25.0709430730393,39.1949299861586,-5.69651154564214,6.12994949395695,-0.487027414758761,21.2854781478934,-37.471162158195,96.8592097649384,-24.0483913421631,4.09069347381592,-4.31822061538696,-30.5200004577637,-110.495002746582,82.879997253418,0,0,0,2.07477784329505,17.4240161091543,13.7792317602643,0.0115586046583926,2.5183078826111,3.59143070093691,3.55089392845509,2.44259126898558,-1.07623720169067,-1.57923630596039,-0.297723126040808,-2.37801891100125,-1.6928500237605,-1.65185845812946,1.06564213422422,9.78964645769874,-1.94517677115066,-6.9583801285154,-23.7473855959395,-45.4991182004447,0.173023091284257,9.83497474697845,0.142052667780314,-1.32503163148082,5.83164555272904,-59.6186467427763,-1.30041093345099,9.70316862650022,-0.293175633002607,-7.75814405553547,-1.7650757618031,3.20042929789448,876.056637515967,-0.171479893655501,0.0692633524898744
49.345,-51.0029468013286,-10.9058517551395,-18.9251792996494,0.419536084596492,0.424668895014337,-1.52105412686156,-1.7205030951271,-46.7625708906299,7.18060838755923,40.8554298778763,-0.334302529392778,-2.38265171781781,-0.496001037991556,-0.165225299980213,7.93136093036133,3.27096019030119,0.283559714548211,-27.287111737617,-25.4335797248253,35.6436873231834,-5.68688004228916,5.90091853045195,-0.437759555963891,24.2144320743702,-41.2606601961902,81.9896610978802,-24.0483913421631,4.09069347381592,-4.31822061538696,-30.5200004577637,-110.495002746582,82.879997253418,0,0,0,2.38844235306475,17.9487688390745,14.3443598772548,0.00487600671219258,2.40125849777835,3.43384537130837,3.39782166575589,2.26276053636308,-4.03806010399039,-2.23399342920966,-0.300088442677952,-2.42000805551142,-1.80515224550759,-1.75626611526988,1.1350403383132,9.85483996828314,-1.97880042289154,-6.62923448958799,-26.3039615158772,-44.9421715734421,0.246640655481844,10.0378012158131,0.242560507469843,-1.20735793332591,2.15485247664858,-62.5253485522072,-1.31808463889141,9.74642724700252,-0.3227817181675,-7.41929883573893,-1.94264120542055,2.95847903269556,883.30002643072,-0.160793158788274,0.0666116168690276
49.35,-51.0317913153508,-6.17144465143396,-17.1513778103125,0.418896975657146,0.822550506803821,-1.31222073074786,-1.53052024335793,-46.9183320718376,-4.37134485738194,33.4352767761415,-0.334235236908244,-2.567743360372,-0.751241859833911,-0.428704046739689,8.16363007060778,3.31846978716979,0.212295319245332,-27.4435219330692,-25.3032378952818,31.5542124212575,-5.69743773048219,5.53403886574452,-0.32690382993718,27.2904992515957,-45.8095900472568,65.188599269729,-24.0483913421631,4.09069347381592,-4.31822061538696,-30.5200004577637,-110.495002746582,82.879997253418,0,0,0,2.80957648659951,18.5168979306483,15.1016139772789,-0.00174150181340167,2.26769059924257,3.25981755432377,3.22921740260842,1.99161903363241,-8.58309069700424,-3.03074791987606,-0.302145580161864,-2.47070513433219,-1.95133561177465,-1.89282161949338,1.21950184385736,9.84692170213837,-2.08437730482173,-6.60968321515647,-29.0248472075968,-44.6260926367992,0.410284822473652,10.3413347513624,0.36925276578607,-1.1845481131558,-0.771321596601964,-66.3248128833989,-1.31934893991421,9.83998514511763,-0.355021205462814,-7.09596965999919,-2.23825650754804,2.71829160365002,889.898581551357,-0.149458814334477,0.0639230067398547
49.355,-51.0606372048208,-1.43681178800774,-15.3774917374321,0.418257836241957,1.22045109153746,-1.10337737643492,-1.33956242216704,-47.0741006805014,-15.9238489560375,26.0147698451614,-0.334167941214874,-2.75284382900232,-1.00649485280887,-0.69595344966801,8.39591028658453,3.36598164952867,0.141027525707019,-27.5999395869256,-25.1728898504015,27.4645425131373,-5.7079959221175,5.16714170641763,-0.216042817766458,30.3667131107714,-50.3587368135802,48.386736284655,-24.0483913421631,4.09069347381592,-4.31822061538696,-30.5200004577637,-110.495002746582,82.879997253418,0,0,0,3.23073070187255,19.0850541134,15.8589041868876,-0.00835932589421626,2.13411633153515,3.08578143884043,3.06145741945237,1.72046460154679,-13.1283380193392,-3.82754040369924,-0.304202815740167,-2.52140463063802,-2.09752594878066,-2.02761588391176,1.30396737693981,9.83900305841189,-2.18995922117479,-6.59013100842442,-31.7458626444736,-44.3099986279644,0.573936792820902,10.6448827608775,0.495951065409737,-1.16173720530174,-3.69763520416529,-70.1244583916604,-1.32061330122508,9.93354750453159,-0.387262230094797,-6.77262506634063,-2.53388590606111,2.47809272129138,896.497451323424,-0.138123929403618,0.0612342684045816
49.36,-51.089481718843,3.29759531569775,-13.6036902480951,0.417618727302611,1.61833270332694,-0.894543980321216,-1.14720595221173,-47.229861861709,-27.4758022009787,18.5946167434266,-0.334100648730339,-2.93793547155651,-1.26173567465122,-0.966756752874876,8.62817942683098,3.41349124639726,0.0697631304041399,-27.7563497823777,-25.0425480208581,23.3750676112114,-5.71855361031052,4.80026204171019,-0.105187091739746,33.442780287997,-54.9076666646467,31.5856744565038,-24.0483913421631,4.09069347381592,-4.31822061538696,-30.5200004577637,-110.495002746582,82.879997253418,0,0,0,3.6518648354073,19.6531832049738,16.6161582869117,-0.0149768344198105,2.00054843299937,2.91175362185583,2.89449221673082,1.44932309881612,-17.6733686123531,-4.62429489436564,-0.306259953224079,-2.57210170945879,-2.24370931504772,-2.16066439094475,1.38842888248396,9.83108479226711,-2.29553610310498,-6.5705797339929,-34.4667483361932,-43.9939196913215,0.73758095981271,10.9484162964268,0.622643323725964,-1.13892738513164,-6.62380927741583,-73.9239227228521,-1.32187760224788,10.0271054026467,-0.419501717390112,-6.44929589060089,-2.82950120818861,2.23790529224584,903.096006444061,-0.126789584949821,0.0585456582754087
49.365,-50.9736327075212,8.22091068638023,-10.0782953398547,0.415686499731414,2.08877073701234,-0.66899761402433,-0.936277110883275,-47.5689390905302,-32.8201474059489,9.40165448419208,-0.327181839870055,-3.11472271212642,-1.4936397852069,-1.21752986161184,8.27393121428386,3.52724132936562,0.0075709056434793,-28.4809513777333,-27.3166253930262,18.4780872569301,-5.99882745635058,4.61892726410871,-0.05901917151658,35.6206604562761,-59.596914051667,16.6562473076224,-25.4227981495053,2.85783706346323,-3.33593078936548,-12.837096633883,-98.0168781442758,44.1777945102522,0,0,0,3.86061506303057,19.0470627736333,17.1660314876751,-0.028333034171417,1.91296693970886,2.78106353737376,2.77158189817051,1.27153899971273,-18.2960319519043,-6.459418831149,-0.309975067169418,-2.66525083652925,-2.30144748246858,-2.20362943338387,1.50247504806044,9.94677389197586,-2.21944065520238,-6.80621529982479,-36.1870103936748,-43.4416255149452,0.457341137123741,10.9661685934743,0.77107273589128,-0.918083446555428,-7.20416244420582,-75.3535684711652,-1.36599986342481,9.94175079942324,-0.349718789937358,-6.64688895422574,-2.97843300548763,2.05486209213983,916.630645458615,-0.116895513501579,0.0570762923526274
49.37,-50.834821728726,13.1739409659336,-6.27505068866694,0.413549111786618,2.57070024326934,-0.440810725214046,-0.720402479029689,-47.9370968170343,-37.1788137201494,-0.0722121204337398,-0.319175816923983,-3.29018196031325,-1.72182665858719,-1.46757417037229,7.82659995259792,3.65150001316726,-0.053177784215112,-29.2957065335246,-29.9722499384716,13.4531956266522,-6.32190003423486,4.46705553946224,-0.0231222184183272,37.6558438370603,-64.3081760822261,2.02474467726094,-27.0152996775883,1.4293475457271,-2.19776846318742,7.65177988363738,-83.5586897893962,-0.665782136354295,0,0,0,4.03564034939126,18.2545777498346,17.6829550670905,-0.0427581826877387,1.83269007782136,2.6572600209653,2.65620737820844,1.10858409585328,-18.2960319519043,-8.45927011722002,-0.313953159801964,-2.76513357238993,-2.34514284120098,-2.23108908807091,1.62121112369313,10.0820777921154,-2.1145110999921,-7.0823457082729,-37.7483403574925,-42.8518655067782,0.106655518394649,10.9385555526295,0.922944460537743,-0.665816159825061,-7.41211250488896,-76.4069548441339,-1.41692287587317,9.82800069027446,-0.26374487874828,-6.92716128193318,-3.10407232026444,1.88089996905153,931.265557106365,-0.107230614848321,0.0558005480647921
49.375,-50.6960041307434,18.1272074302316,-2.47162468014524,0.411411621920696,3.05265273028578,-0.2126129553352,-0.501783786154523,-48.3052720991021,-41.5376878769093,-9.54653048542409,-0.311169412211521,-3.46564957525647,-1.95002441303532,-1.72025154548592,7.37924735996631,3.77576462223159,-0.113929370868794,-30.1105005408326,-32.628001117103,8.42806438492846,-6.64498801780212,4.31517657282805,0.0127764464224795,39.6911242653568,-69.0196627688354,-12.6074556548139,-28.6078771439444,0.000789910613748002,-1.05955186385472,28.1416334111486,-69.0998119972769,-45.5114971443477,0,0,0,4.21067398181492,17.4620549364682,18.1999032959542,-0.0571840190657988,1.75240938793987,2.53345060099877,2.54141361809906,0.945621421505834,-18.2960319519043,-10.459216765996,-0.317931442129452,-2.8650210711487,-2.38884028354211,-2.25733986921287,1.7399528612435,10.2173881442077,-2.00957654122667,-7.35848928397142,-39.3097447731705,-42.2620773759653,-0.24404682274247,10.9109411950596,1.07482342717193,-0.413536843754809,-7.62007248164957,-77.4603914477245,-1.46784831658019,9.7142451569633,-0.177766867901999,-7.20744697439803,-3.22971762613918,1.70692955059709,945.901166618387,-0.0975652553253544,0.0545247429432202
49.38,-50.4975896835619,24.0608417525909,1.77346073092902,0.411810941634649,3.50568737612458,0.0495569176587497,-0.246063536192124,-48.6917309955885,-44.9358691779339,-18.3390083880834,-0.301577459422213,-3.61848775825135,-2.17983955946639,-1.97676557361736,7.03031487333709,3.90938618176258,-0.174850527549847,-30.7347720998604,-33.7778866417601,3.07802637151311,-6.95327616086446,4.08636118048829,0.0632443039910468,41.2696416109604,-72.3909187616691,-27.3362240496269,-29.3354407699655,-1.19296215106311,0.0576826658313886,44.8664283213846,-58.8491186512082,-86.3696409975317,0,0,0,4.38010239128697,16.7683963549721,18.5551363444789,-0.0720778992221596,1.68271716660076,2.4072057064371,2.4247167770623,0.779702126576974,-18.5276651639349,-12.4089584531697,-0.319899302960248,-2.96273838432511,-2.43333052557126,-2.28349704690325,1.81902352311533,10.3400159284367,-1.94807890310414,-7.7767492333899,-40.135915895337,-41.6808970140435,-0.502251898669648,10.8932283755543,1.20485052754982,-0.23258490918668,-8.11655792853866,-78.4744842962132,-1.50646734237671,9.62797927856445,-0.112565919756889,-7.42000007629395,-3.32500004768372,1.57500004768372,957,-0.0902355834841728,0.0535572431981564
49.385,-50.1120770117687,33.0727677759431,7.40563835112248,0.42017272807014,3.86804582077069,0.41840815986833,0.119818113940126,-49.1356536897083,-45.3193551964811,-24.9931010065491,-0.287006989055054,-3.7003281817192,-2.41477663548959,-2.24019321595192,6.9902287323513,4.07240315510475,-0.236315943728031,-30.7611662667646,-30.2014770262387,-3.29286566499219,-7.21517228197155,3.61601712625515,0.159451042356905,41.4148095289336,-71.5562032333232,-42.3710013724413,-27.3480936888495,-1.64995595580838,1.10928040824106,49.7769805921425,-61.804802794116,-114.719895862708,0,0,0,4.53197089600025,16.3849100815642,18.4028574539737,-0.0884437869037326,1.64624565011201,2.27329157310388,2.30083886788747,0.604470020710337,-19.4863807200243,-14.2015045674922,-0.315557360036838,-3.05366333235671,-2.4803179407759,-2.31165541499623,1.77359256333146,10.4228606198073,-2.02290636627759,-8.641158199503,-38.6545432778379,-41.1266195090549,-0.470182985881023,10.9065904225496,1.26631594372802,-0.275475430406036,-9.51874804532518,-79.3652874292305,-1.50646734237671,9.62797927856445,-0.112565919756889,-7.42000007629395,-3.32500004768372,1.57500004768372,957,-0.0902355834841728,0.0535572431981564
49.39,-49.7265827222315,42.0842640870111,13.0375474143056,0.428534115793709,4.23038698721516,0.78724181428265,0.489452973143531,-49.5795552164291,-45.7028229294084,-31.6468763404153,-0.272437213446161,-3.78216470282087,-2.64970250909643,-2.5049610385247,6.95014450277792,4.23541235536981,-0.297778429073859,-30.7875591751256,-26.6252379433139,-9.66345392064509,-7.47705591518426,3.14569549926091,0.255653193332988,41.5599705249195,-70.7215275064044,-57.4050617976149,-25.3608413696581,-2.10692796988968,2.1608280077105,54.6872987148807,-64.7603460022467,-143.068798913328,0,0,0,4.68383215922465,16.0014420937882,18.2505858245257,-0.104808894216829,1.60977587268088,2.13938382514798,2.17742182159257,0.429246270370396,-20.4450505620399,-15.9939652085115,-0.311215624148662,-3.14458394484816,-2.52730311549726,-2.33976064683764,1.72816376981498,10.5057013609256,-2.09773026148121,-9.505525948328,-37.1732412960729,-40.5723684334725,-0.438115602222324,10.9199518324074,1.32777842907387,-0.318363906492776,-10.9208713020069,-80.2560480864166,-1.50646734237671,9.62797927856445,-0.112565919756889,-7.42000007629395,-3.32500004768372,1.57500004768372,957,-0.0902355834841728,0.0535572431981564
49.395,-49.3410700504383,51.0961901103632,18.6697250344991,0.436895902229201,4.59274543186127,1.15609305649223,0.863093380195476,-50.023477910549,-46.0863089479555,-38.300968958881,-0.257866743079002,-3.86400512628872,-2.88463958511963,-2.7706497034589,6.91005836179213,4.39842932871198,-0.359243845252043,-30.8139533420298,-23.0488283277926,-16.0343459571504,-7.73895203629135,2.67535144502778,0.351859931698846,41.7051384428927,-69.8868119780585,-72.4398391204294,-23.3734942885421,-2.56392177463495,3.21242575012016,59.5978509856386,-67.7160301451545,-171.419053778504,0,0,0,4.83570066393792,15.6179558203802,18.0983069340205,-0.121174781898402,1.57330435619212,2.00546969181476,2.05442896533758,0.254014164503758,-21.4037661181294,-17.786511322834,-0.306873681225253,-3.23550889287975,-2.5742905307019,-2.36830181516893,1.68273281003111,10.5885460522962,-2.17255772465465,-10.3699349144411,-35.6918686785738,-40.0180909284839,-0.406046689433699,10.9333138794026,1.38924384525207,-0.361254427712132,-12.3230614187935,-81.1468512194339,-1.50646734237671,9.62797927856445,-0.112565919756889,-7.42000007629395,-3.32500004768372,1.57500004768372,957,-0.0902355834841728,0.0535572431981564
49.4,-49.1481666564941,55.6055908203125,24.4840607250785,0.449879537098599,4.87494328388598,1.34065937995911,1.0565673739364,-50.2456085968018,-46.2781982421875,-42.7394326699227,-0.243652141570513,-3.89980345718633,-3.00219774246216,-2.91943611567778,6.95030758064919,4.51277585904849,-0.40311034361938,-30.8740987611064,-20.6781958815603,-20.9637937943783,-7.99192619566034,2.20008071176515,0.354113797332114,41.8020561918878,-69.5047441431637,-82.793826048187,-20.8966909571059,-0.594939795480069,3.53013286583237,92.6932177865016,-62.6470386141291,-175.725696853281,0.393310308581725,0,0,4.91169284820557,15.4260663986206,17.7971881691599,-0.138178806152998,1.51126417554363,1.93846154212952,1.99875674481269,0.166331267356872,-21.8834896087646,-19.0892558504037,-0.302545423973939,-3.30406846851646,-2.59780216217041,-2.37430629800288,1.64688965638063,10.6876855119253,-2.23490965287682,-10.9287168891744,-34.7288744350794,-39.5141422090476,-0.244475185824746,11.0278393022499,1.40033448457093,-0.305025124230788,-13.7222911234516,-82.1445218733596,-1.50646734237671,9.62797927856445,-0.112565919756889,-7.42000007629395,-3.32500004768372,1.57500004768372,957,-0.0902355834841728,0.0535572431981564
49.405,-49.1481666564941,55.6055908203125,30.4814050179603,0.467493759073111,5.07687740954655,1.34065937995911,1.06962579161997,-50.2456085968018,-46.2781982421875,-44.9590960286885,-0.22979262961069,-3.88948840437666,-3.00219774246216,-2.9507256879676,7.07102635332983,4.57838388767927,-0.429353555071697,-30.968055937911,-19.5150708307727,-24.4499290440928,-8.23598806216684,1.71982994218786,0.262262557249033,41.8506547316143,-69.5760220014293,-88.4604157802972,-17.9294007788443,3.80414229422434,3.11278886677437,154.022290709892,-49.5398667343601,-155.950125984623,1.18060665215106,0,0,4.91169284820557,15.4260663986206,17.3469592811484,-0.15582362540822,1.42360792141293,1.93846154212952,2.01049673249788,0.166331267356872,-21.8834896087646,-19.9015283815188,-0.298230461481212,-3.35023292548022,-2.59780216217041,-2.358242925294,1.62064644492831,10.8031556423155,-2.28477175463621,-11.1814292957522,-34.2850077722441,-39.0605558382669,0.0468244612959121,11.2036688189804,1.36096966739245,-0.149509797105977,-15.1186891649264,-83.2493286764754,-1.50646734237671,9.62797927856445,-0.112565919756889,-7.42000007629395,-3.32500004768372,1.57500004768372,957,-0.0902355834841728,0.0535572431981564
49.41,-49.1481666564941,55.6055908203125,36.4784633417264,0.485107141155292,5.27880190645805,1.34065937995911,1.08675920051768,-50.2456085968018,-46.2781982421875,-47.17865354808,-0.215933778508772,-3.87917384341578,-3.00219774246216,-2.981686259288,7.19173936982257,4.64398878794706,-0.455595515178819,-31.0620086345908,-18.3520012408401,-27.9358980657293,-8.48003829116301,1.23960207222765,0.170415696874139,41.8992509540349,-69.6472964609795,-94.1267353145372,-14.9622520887658,8.20301462414954,2.69546476777354,215.348439302131,-36.4333198389456,-136.175498067084,1.96786545536452,0,0,4.91169284820557,15.4260663986206,16.8967518612319,-0.173467603312153,1.33595584696249,1.93846154212952,2.02263233252775,0.166331267356872,-21.8834896087646,-20.7137621813477,-0.293915704737222,-3.39639518120152,-2.59780216217041,-2.34410384911296,1.59440448482119,10.9186202667868,-2.33463147883973,-11.4341296523392,-33.841162274136,-38.6069910956748,0.338110218484894,11.3794899516981,1.32160672723177,0.00599811463989527,-16.5150206224778,-84.3540827995033,-1.50646734237671,9.62797927856445,-0.112565919756889,-7.42000007629395,-3.32500004768372,1.57500004768372,957,-0.0902355834841728,0.0535572431981564
49.415,-49.1481666564941,55.6055908203125,42.4758076346082,0.502721363129805,5.48073603211863,1.34065937995911,1.10777689224392,-50.2456085968018,-46.2781982421875,-49.3983169068458,-0.202074266548949,-3.86885879060611,-3.00219774246216,-3.01195856434098,7.31245814250321,4.70959681657784,-0.481838726631136,-31.1559658113954,-17.1888761900524,-31.4220333154437,-8.72410015766951,0.759351302650361,0.078564456791059,41.9478494937614,-69.7185743192451,-99.7933250466474,-11.9949619105041,12.6020967138539,2.27812076871554,276.677512225522,-23.3261479591767,-116.399927198426,2.75516179893385,0,0,4.91169284820557,15.4260663986206,16.4465229732204,-0.191112422567375,1.24829959283179,1.93846154212952,2.03515387063503,0.166331267356872,-21.8834896087646,-21.5260347124628,-0.289600742244495,-3.44255963816528,-2.59780216217041,-2.33232126607086,1.56816127336888,11.034090397177,-2.38449358059912,-11.686842058917,-33.3972956113006,-38.1534047248941,0.629409865605552,11.5553194684286,1.28224191005329,0.161513441764707,-17.9114186639526,-85.4588896026191,-1.50646734237671,9.62797927856445,-0.112565919756889,-7.42000007629395,-3.32500004768372,1.57500004768372,957,-0.0902355834841728,0.0535572431981564
49.42,-48.6909222128566,58.0021266102525,47.0485435535112,0.517557462952254,5.61579438808634,1.72084632731617,1.51255671843491,-50.6413750326045,-48.2963338560156,-50.2938237058351,-0.186782605075259,-3.81804151777967,-3.11192649556115,-3.15094797689763,7.58732707960727,5.00248664695649,-0.48648404326509,-31.4477967684726,-12.4712807611178,-38.9911597061407,-8.63475003345866,1.36768867637577,0.369952062877941,38.8051129325235,-71.401053643343,-109.277638310403,-11.0721759796143,13.9701499938965,2.1483325958252,295.75,-19.25,-110.25,3,0,0,5.05001937175731,16.1828672538061,16.2655119784309,-0.201785899305485,1.11761083090326,1.88746085406942,1.9970465270736,-0.0181040973787835,-23.6493577679026,-22.2240133729469,-0.285877882571691,-3.4675637995443,-2.62252976850258,-2.34798308095343,1.39475003345865,11.3055691012398,-2.4808670049032,-11.3053192420966,-34.1925070345781,-36.6103036723705,1.06104780328749,11.8965504738962,1.29812765387936,-0.321857654355542,-17.8530110007238,-87.2739621396774,-1.50646734237671,9.62797927856445,-0.112565919756889,-7.42000007629395,-3.32500004768372,1.57500004768372,957,-0.0902355834841728,0.0535572431981564
49.425,-48.0272547983665,61.4805783084062,50.9785551953589,0.531140598792702,5.72067565833316,2.27266864442963,2.09212041252712,-51.2158101970902,-51.2255566460497,-50.591693742691,-0.17084344060545,-3.74893880677604,-3.27119228627276,-3.33817916558426,7.9317954520568,5.39798737088002,-0.481380808117694,-31.8289643319513,-6.14893943961601,-48.4037934224573,-8.39489798153084,2.4674358506406,0.834346461291391,34.2216517353211,-73.810914685171,-120.485854763768,-11.0721759796143,13.9701499938965,2.1483325958252,295.75,-19.25,-110.25,3,0,0,5.25079339431438,17.2813258000689,16.2060082221077,-0.209313385150116,0.96748897985995,1.81343590909079,1.93626535476561,-0.285802794121546,-26.2124269791588,-22.8704502903627,-0.282422029039925,-3.48301834201252,-2.65842065091646,-2.37779179459108,1.15489798153083,11.6474858561156,-2.59824141329342,-10.6374884697207,-35.5470694502462,-34.5753099037157,1.55606161258535,12.3124641384093,1.33895353505858,-1.09364321677107,-17.1379280510572,-89.4097605532191,-1.50646734237671,9.62797927856445,-0.112565919756889,-7.42000007629395,-3.32500004768372,1.57500004768372,957,-0.0902355834841728,0.0535572431981564
49.43,-47.3636190292804,64.9588641448539,54.9083794439375,0.544723086953585,5.82555192756577,2.82446464920677,2.67426756758441,-51.7902179709997,-54.1546397630536,-50.8895495763218,-0.154905036156834,-3.67983939077103,-3.43045048277348,-3.52386675929196,8.27624739935029,5.79346923629106,-0.476277816305943,-32.2101137203602,0.173100416058911,-57.8159783196953,-8.15505736637833,3.56713058607392,1.29871871616114,29.6384090895777,-76.2206608185,-131.693536779957,-11.0721759796143,13.9701499938965,2.1483325958252,295.75,-19.25,-110.25,3,0,0,5.45155784343914,18.3797319689454,16.1465073030798,-0.216840512064468,0.817374287020484,1.7394144938158,1.8758073745436,-0.553488726287885,-28.7753739765483,-23.5168563839698,-0.278966340292326,-3.49847214756758,-2.69430982195888,-2.41073762349737,0.915057366378318,11.9893863075033,-2.71561022496381,-9.96968954126875,-36.9015672768233,-32.5404131689045,2.05105181832563,12.7283579710674,1.37977746955263,-1.86539197842546,-16.4228791984223,-91.5454571262872,-1.50646734237671,9.62797927856445,-0.112565919756889,-7.42000007629395,-3.32500004768372,1.57500004768372,957,-0.0902355834841728,0.0535572431981564
49.435,-46.6999516147904,68.4373158430076,58.8383910857852,0.558306222794033,5.9304331978126,3.37628696632023,3.25841063486663,-52.3646531354855,-57.0838625530877,-51.1874196131777,-0.138965871687025,-3.6107366797674,-3.58971627348508,-3.70783051637112,8.62071577179982,6.1889699602146,-0.471174581158547,-32.5912812838388,6.49544173756072,-67.2286120360119,-7.9152053144505,4.66687776033874,1.76311311457459,25.0549478923753,-78.630521860328,-142.901753233322,-11.0721759796143,13.9701499938965,2.1483325958252,295.75,-19.25,-110.25,3,0,0,5.65233186599621,19.4781905152082,16.0870035467566,-0.224367997909099,0.667252435977173,1.66538954883717,1.81562397456508,-0.821187423030647,-31.3384431878045,-24.1632933013856,-0.27551048676056,-3.5139266900358,-2.73020070437276,-2.44685411883478,0.675205314450492,12.3313030623791,-2.83298463335403,-9.30185876889288,-38.2561296924913,-30.5054194002497,2.54606562762349,13.1442716355805,1.42060335073184,-2.63717754084098,-15.7077962487557,-93.6812555398289,-1.50646734237671,9.62797927856445,-0.112565919756889,-7.42000007629395,-3.32500004768372,1.57500004768372,957,-0.0902355834841728,0.0535572431981564
49.44,-45.9769970903459,67.666204375912,60.9918340713286,0.571738430935434,5.99040290513915,3.79391553748906,3.70960349883085,-52.7841442325841,-47.1846406237953,-49.9403142743248,-0.0942588282351999,-3.49758617615866,-3.81895235037637,-3.95988471557883,8.29772917900137,7.1681821097296,-0.330599220446042,-33.3797040947598,5.62235382296975,-73.5205380615797,-7.39400310834814,5.06338365896981,0.938006216696273,23.8082317318305,-72.3159474766523,-143.755567067956,-9.42763953421427,13.1040020298859,1.20014858029405,238.972062556036,-8.92737245634977,-69.3498118258285,47.6082494572725,0.0382933571729945,-0.0560547866130136,5.81171221341234,17.5877544705581,16.0477621839542,-0.227288445853545,0.517185830655751,1.65010238543391,1.81440344272367,-1.24842693842749,-36.2148925192567,-25.9074704228453,-0.275357729126057,-3.51117418047294,-2.8049887070965,-2.5249341159553,0.635931517663313,12.5454179001382,-2.83411128379713,-9.36941922680525,-39.5095326026309,-26.0123619730183,2.88104980757847,13.5805361900533,1.34237665285179,-2.94757746200909,-13.9623509479152,-96.7322083159734,-1.50646734237671,9.62797927856445,-0.112565919756889,-7.42000007629395,-3.32500004768372,1.57500004768372,957,-0.0902355834841728,0.0535572431981564
49.445,-45.2363523412132,65.6246643134163,62.6140447372896,0.585124876682151,6.03694282342713,4.17140512875088,4.12110914547767,-53.1572926669349,-33.4506507021496,-48.2313767599227,-0.0409533633882036,-3.37127237435485,-4.06909607623441,-4.23086615674692,7.77521314387211,8.32185612788631,-0.149529307282422,-34.2898438699208,2.598134991119,-78.879185579896,-6.78871225577265,5.2496269982238,-0.272575488454706,23.559140845997,-63.3933842071793,-141.513749095454,-7.29152471250581,11.9789485177604,-0.031462877724141,165.222287013306,4.48085437659472,-16.2239000140879,105.550621669627,0.0880332142974831,-0.128865249918155,5.95870975257237,14.8038374145332,16.0145804135496,-0.22883141719002,0.367142897372417,1.65237641874469,1.83090459631915,-1.72334300425718,-41.7827261379303,-27.9797489115594,-0.276192484730363,-3.50297855350131,-2.8914019729062,-2.61746951783545,0.656625222024864,12.7213143872114,-2.80048401420961,-9.6568317873824,-40.7326327215315,-20.7846468434094,3.16817495559503,14.0228641207815,1.22856127886324,-3.12002499835538,-11.9089478762362,-100.056613599982,-1.50646734237671,9.62797927856445,-0.112565919756889,-7.42000007629395,-3.32500004768372,1.57500004768372,957,-0.0902355834841728,0.0535572431981564
49.45,-44.4956722745111,63.5830269002905,64.2363327582011,0.598511960760171,6.08348496096638,4.54891272056543,4.5322511228142,-53.5304588948309,-19.7160058765927,-46.5223577550093,0.012354643324457,-3.24495254929025,-4.31925173017055,-4.49982616351336,7.25267219261891,9.47558515887113,0.0315492401815723,-35.2000270450043,-0.426228050298846,-84.2380886247737,-6.18339253996447,5.43587921847246,-1.48321492007105,23.3100380822899,-54.4703954661852,-139.271824222091,-5.15530803037955,10.8538413575727,-1.26313306500932,91.4689947200381,17.8897205794707,36.9045451013487,163.495756858101,0.137775443261995,-0.201679185182827,6.10571430129508,12.0197876077068,15.9813970608757,-0.230374462102926,0.217092809307084,1.65465056049252,1.84749044227277,-2.19828171641111,-47.3508252581831,-30.0521262166622,-0.277027280139904,-3.49478253572204,-2.97781935932369,-2.71247547300807,0.677319913163601,12.8972192618907,-2.76685514110915,-9.94425805319824,-41.9557911638367,-15.5566824307367,3.45531379514505,14.4652131438721,1.11474047760017,-3.29248075784487,-9.8554468882408,-103.381177407919,-1.50646734237671,9.62797927856445,-0.112565919756889,-7.42000007629395,-3.32500004768372,1.57500004768372,957,-0.0902355834841728,0.0535572431981564
49.455,-43.7550275253784,61.5414868377947,65.8585434241621,0.611898406506888,6.13002487925436,4.92640231182725,4.9421453721665,-53.9036073291817,-5.98201595494703,-44.8134202406073,0.0656601081714533,-3.11863874748644,-4.56939545602859,-4.76673401952174,6.73015615748964,10.6292591770278,0.212619153345192,-36.1101668201653,-3.45044688214959,-89.59673614309,-5.57810168738897,5.62212255772645,-2.69379662522203,23.0609471964563,-45.5478321967122,-137.030006249589,-3.0191932086711,9.72878784544726,-2.49474452302751,17.7192191773085,31.2979474124152,90.0304569130893,221.438129070456,0.187515300386483,-0.274489648487968,6.25271184045511,9.23587055168186,15.9482152904711,-0.231917433439402,0.0670498760237499,1.6569245938033,1.86407394597882,-2.6731977822408,-52.9186588768567,-32.1244047053763,-0.277862035744209,-3.48658690875042,-3.0642326251334,-2.80946601494302,0.698013617525152,13.0731157489639,-2.73322787152163,-10.2316706137754,-43.1788912827373,-10.3289673011278,3.74243894316162,14.9075410746003,1.00092510361161,-3.46492829419116,-7.8020438165618,-106.705582691928,-1.50646734237671,9.62797927856445,-0.112565919756889,-7.42000007629395,-3.32500004768372,1.57500004768372,957,-0.0902355834841728,0.0535572431981564
49.46,-42.8482080016163,55.3662913457909,64.8143302482815,0.633319445100535,6.12284608348257,5.25352951878991,5.29961364452634,-53.9233550309223,-3.60853644448871,-39.4516223032183,0.124552951783024,-2.95193888640304,-4.35422872263783,-4.5663275183812,6.9741241871469,11.1811862807204,0.465299349717535,-38.2915014146672,-1.2806279408392,-88.4316983141303,-5.58372690721514,8.51751496425385,-3.0771628033251,19.2454978755651,-44.2404886431596,-122.250826000637,-2.81414818763733,9.62079429626465,-2.61296653747559,10.6400003433228,32.5849990844727,95.129997253418,227,0.192289814352989,-0.281478703022003,6.10074816983213,-0.176059406509003,13.5641275424955,-0.235865403153193,-0.0626200383905708,1.46752435068969,1.68888349631729,-3.97772959965288,-62.0702378652663,-37.0289706198831,-0.276459311191984,-3.4498349108669,-3.15009861816884,-2.90732659658807,0.680391720856866,13.2934358961099,-2.82313932592987,-9.62380576850977,-40.1160028735453,-3.37882054722172,3.84353104678671,15.2686345360758,1.69589804915257,-3.99589621208819,-6.43691423622734,-109.875154159387,-1.41958725807349,9.44482649467943,-0.236428765648422,-6.79376070323514,-3.89118915235379,-0.724070651460543,982.490762886065,-0.0678697949126193,0.0470955661467175
49.465,-41.9237924547621,48.7525245586709,63.4870606358562,0.655592438668722,6.10996400206246,5.57529217030128,5.64886338145591,-53.9055788430883,-2.44140119993211,-33.702259292063,0.184035937311863,-2.78095976810837,-4.0896683087927,-4.31459861923216,7.29946193326525,11.6691928998979,0.725569546612204,-40.607691952876,1.44056123194078,-86.5740599489484,-5.65421675220745,11.700402580445,-3.37267792271592,15.0515863952536,-43.7417713162909,-106.141252213934,-2.81414818763733,9.62079429626465,-2.61296653747559,10.6400003433228,32.5849990844727,95.129997253418,227,0.192289814352989,-0.281478703022003,5.91704986385799,-10.2912320484966,10.9305546083233,-0.240068518906534,-0.190119977758859,1.25778279642046,1.4931439951803,-5.37027829433264,-71.6018436404415,-42.2340001676093,-0.274819092846282,-3.4100528363629,-3.23590197466819,-3.00590318008387,0.658702537782314,13.5184611705085,-2.92616294553401,-8.92091557627879,-36.5982048162369,3.75384135584608,3.9248654833163,15.6210837610373,2.4767086398366,-4.56490255817995,-5.1449351209837,-113.028118735966,-1.32348713423137,9.24223685224826,-0.373436400080161,-6.10106246533143,-4.51746436275709,-3.26712733334009,1010.68670088299,-0.0431304651940662,0.0399481517553612
49.47,-40.9993328272466,42.138442394755,62.1597277327145,0.677866494322339,6.09708130636161,5.89707016503192,5.99455592031971,-53.8878018075985,-1.27421030065019,-27.9526221231179,0.24352175928081,-2.60997249669184,-3.82509527941117,-4.06103678578091,7.62481519308089,12.1572227896214,0.985852154464715,-42.9239929383948,4.16188016434943,-84.7163330024702,-5.72470995850083,14.883441972308,-3.66820713371513,10.8574749287,-43.2430302081373,-90.0309102438443,-2.81414818763733,9.62079429626465,-2.61296653747559,10.6400003433228,32.5849990844727,95.129997253418,227,0.192289814352989,-0.281478703022003,5.73334279824884,-20.4068870314618,8.29685609249376,-0.244271835085022,-0.317625996948775,1.04803124064658,1.29706771132825,-6.76289339255514,-81.1339039292678,-47.4392779166396,-0.273178796286935,-3.37026886485473,-3.32170942269186,-3.10458764214405,0.637012320461275,13.7434971752143,-3.02919147780896,-8.21799186680055,-33.0802390130863,10.8868433791706,4.00620379827021,15.9735497925043,3.25755646339414,-5.1339360372814,-3.85289439784749,-116.181233661339,-1.22738242786463,9.0396375493506,-0.510450567707,-5.40833119618278,-5.14376943703004,-5.8103052806186,1038.88398340034,-0.0183899557830941,0.0328003965402773
49.475,-40.2085407423293,36.7019221682459,60.2696402261179,0.696625888132748,6.07880878952035,6.14640123586634,6.26360826536498,-53.8713312858729,-0.151339540548963,-22.2345783704841,0.298148679080729,-2.43170687944978,-3.59064469049591,-3.83591199192943,7.95631482049708,12.5827825508847,1.08535619310627,-44.6079820743317,6.29130000239919,-82.6282987156806,-5.82393883604375,17.3094666052981,-3.89190600388665,8.27095116151916,-44.2094162793252,-76.9268376146082,-2.81414818763733,9.62079429626465,-2.61296653747559,10.6400003433228,32.5849990844727,95.129997253418,227,0.192289814352989,-0.281478703022003,5.50964605377656,-29.5853508765119,4.84940102103127,-0.246739526077495,-0.44989566481776,0.853021057788044,1.11527532059638,-8.03712981547194,-89.3153796877319,-53.0524874011735,-0.270029479734729,-3.32784160004033,-3.38545310594217,-3.18063516299022,0.616531144522864,13.9489071289762,-3.04698245883196,-7.46039110434292,-29.5729710822957,18.1523849119311,3.99773217755957,16.263297279329,3.98215966042754,-5.30330948042585,-3.64533700281713,-119.363080964774,-1.19534442202438,8.99925971572551,-0.606422391462066,-4.01108365910202,-5.92031356100047,-8.85114881385625,1067.82208243838,0.00706559801218986,0.0264115592081064
49.48,-39.9037961178522,35.547639842705,56.332086872609,0.702604673083114,6.04092648929662,6.13225815364941,6.26449265568948,-53.8596096306631,0.810562820918229,-16.6301927472514,0.335113180734128,-2.226926495268,-3.46571413091298,-3.71877585877063,8.3102454740718,12.781198220313,0.600042190856088,-43.9922777948246,6.26812833596612,-79.7020482689911,-6.02771709113224,16.9823488800246,-3.85436790426509,11.5315356524572,-50.5054890729944,-74.7553214460241,-2.81414818763733,9.62079429626465,-2.61296653747559,10.6400003433228,32.5849990844727,95.129997253418,227,0.192289814352989,-0.281478703022003,5.14043539414197,-35.3567650612968,-1.55889638538886,-0.242894339804652,-0.599522592038774,0.711590227627817,0.986461606858433,-8.88103970285573,-92.5858462767646,-60.1508101822098,-0.261390331431288,-3.27578984189133,-3.36895284335574,-3.17522147979582,0.600443387542195,14.0829717704818,-2.7547215403498,-6.50373230446363,-26.1038415934601,25.9016522147595,3.66257057379564,16.3249670144216,4.50233046946917,-4.01893711242183,-7.38259577466388,-122.650147360207,-1.39634514218022,9.5489616189935,-0.553121870563655,-0.0508141541415181,-7.24353142946401,-13.7029481336872,1099.46133783369,0.0351277906025514,0.0227819106018759
49.485,-39.5990660243987,34.3934125563746,52.3947212719778,0.708583172949322,6.0030459954004,6.11811574581175,6.26032120964101,-53.8478885343727,1.77241931635636,-11.0260743558338,0.372075919823076,-2.02215587555238,-3.34078952834701,-3.6002797772516,8.66415925130407,12.9796044287614,0.114751329651219,-43.3766028737135,6.24495777441893,-76.7759373536026,-6.23148562953871,16.6552467525826,-3.81683159455864,14.7919646701695,-56.8012616533891,-72.58390882103,-2.81414818763733,9.62079429626465,-2.61296653747559,10.6400003433228,32.5849990844727,95.129997253418,227,0.192289814352989,-0.281478703022003,4.7712423394406,-41.1279040499066,-7.96688822737039,-0.239049336880381,-0.749142384655209,0.570166141260749,0.856897542455685,-9.72490935040128,-95.8561569213672,-67.2487944965867,-0.252751595065112,-3.22374056570676,-3.35245336754514,-3.16801390364217,0.584356397668,14.2170300194334,-2.46247455763526,-5.54711912058663,-22.6348775218231,33.6505500121853,3.32742495141658,16.3866338089394,5.02247647540146,-2.73462598666308,-11.1196763442041,-125.937057019687,-1.59733627809421,10.0986373110321,-0.499823891173965,3.90926651477546,-8.56668620342685,-18.5545161069933,1131.09908458627,0.0631886451139224,0.0191524350668168
49.49,-39.2943213999217,33.2391302308337,48.4571679184688,0.714561957899687,5.96516369517667,6.10397266359481,6.25087977329282,-53.8361668791629,2.73432167782355,-5.42168873260113,0.409040421476475,-1.8173754913706,-3.21585896876408,-3.48058121535266,9.01808990487879,13.1780200981896,-0.370562672598961,-42.7608985942064,6.22178610798586,-73.849686906913,-6.4352638846272,16.328129027309,-3.77929349493709,18.0525491611075,-63.0973344470583,-70.4123926524458,-2.81414818763733,9.62079429626465,-2.61296653747559,10.6400003433228,32.5849990844727,95.129997253418,227,0.192289814352989,-0.281478703022003,4.402031679806,-46.8993182346915,-14.3751856337905,-0.235204150607538,-0.898769311876222,0.428735311100521,0.72639974293967,-10.5688192377851,-99.1266235103999,-74.347117277623,-0.244112446761671,-3.17168880755776,-3.33595310495872,-3.15853059219829,0.56826864068733,14.351094660939,-2.1702136391531,-4.59046032070735,-19.1657480329875,41.3998173150137,2.99226334765265,16.4483035440319,5.54264728444308,-1.45025361865906,-14.8569351160509,-129.22412341512,-1.79833699825005,10.6483392143001,-0.446523370275553,7.86953601973596,-9.88990407189038,-23.4063154268243,1162.73833998159,0.0912508377042839,0.0155227864605862
49.495,-38.9591523994163,33.6080909688483,45.113121455742,0.713577706890326,5.96744837912185,6.08276998676027,6.22905259318856,-53.7368758310324,6.99014972282035,-0.896073109054191,0.447809075318506,-1.55200558008216,-3.10984774241458,-3.37877185142773,9.09027357441056,13.2007531370743,-0.544410684593949,-41.7174504312799,5.34591264350705,-72.7069182735455,-7.01060444752804,15.2517090326208,-3.6636845819826,21.4999726051957,-66.4206328214566,-68.2983728372319,-2.81414818763733,9.62079429626465,-2.61296653747559,10.6400003433228,32.5849990844727,95.129997253418,227,0.192289814352989,-0.281478703022003,3.90582097451291,-52.1400161139088,-21.0322879644417,-0.228229795906858,-1.07379249155723,0.288520008990093,0.59600772172437,-11.5461754489325,-102.994431099524,-80.7996259661023,-0.234536250172745,-3.12985543560977,-3.3156825522851,-3.14264428825207,0.36127325143247,14.5638635357728,-1.9883012548297,-5.12829732651817,-16.35619448214,49.5490088618869,2.75172577963323,16.4617122624018,5.93801416318768,-0.0465726441538978,-20.4699440599573,-131.681213676963,-1.91828935911694,11.3732448458188,-0.398688684183597,11.402765539934,-11.9226828346666,-44.0012017444716,1151.20263885068,0.123742524518822,0.00927831723108338
49.5,-38.5917738700442,35.5880609241709,42.3964363283053,0.705229292923654,6.01221365637948,6.05409904333821,6.19453006378593,-53.5449621595365,14.7300320035717,2.48908566490595,0.488489593867672,-1.22253049977942,-3.02383509158478,-3.29608838232456,8.86449035252461,13.0376874768233,-0.38887113173918,-40.2215204426528,3.5681407729647,-73.4502375225527,-7.97896359917222,13.3827256958982,-3.46549708721605,25.1453340888687,-66.6002683066334,-66.2449534118493,-2.81414818763733,9.62079429626465,-2.61296653747559,10.6400003433228,32.5849990844727,95.129997253418,227,0.192289814352989,-0.281478703022003,3.27524707231456,-56.8199457082129,-27.9531781071628,-0.217945366555634,-1.27569177293034,0.149576484896412,0.465583999204833,-12.6647596114201,-107.494362555168,-86.5697585169262,-0.223968097180185,-3.09882486502449,-3.29142257384593,-3.11991933779521,-0.0476452504276429,14.85989042669,-1.92307499072932,-7.24675718618883,-14.2439289495444,58.1219575337706,2.61123844157086,16.4240817254208,6.20142792205463,1.48342614338603,-28.0672862175189,-133.260767081104,-1.95253721523358,12.2835160476325,-0.3566299398786,14.484706719646,-14.7060885262654,-81.2479061190046,1094.00422263957,0.160922006656087,0.000267816215132088
49.505,-38.2244128582445,37.5679364693296,39.6798807395453,0.69688127703127,6.05697679911121,6.02542946702198,6.15503075821852,-53.3530576389881,22.469545226423,5.87408302561157,0.529168172662948,-0.893071129713188,-2.93782654206391,-3.21268018037985,8.63871789657524,12.874629591971,-0.233338995418498,-38.7256617838935,1.79045367125082,-74.1935213281474,-8.94727657691065,11.5138314772061,-3.26731904254939,28.7905217521392,-66.7798952263187,-64.1916318988941,-2.81414818763733,9.62079429626465,-2.61296653747559,10.6400003433228,32.5849990844727,95.129997253418,227,0.192289814352989,-0.281478703022003,2.64470323753478,-61.4996521511918,-34.8737382436785,-0.207661427592993,-1.47758142721584,0.0106395859946097,0.333662236443089,-13.7832904368791,-111.99407944227,-92.3396159326867,-0.213400448104896,-3.06779577405824,-3.26716375218619,-3.09428201274247,-0.456544253980401,15.155903202268,-1.85785183678839,-9.36511603213358,-12.1317641353129,66.6944974249622,2.47075780231347,16.3864529827625,6.46482912066223,3.01335197656837,-35.6642661138676,-134.840245167992,-1.98678343832255,13.1937438453264,-0.314573201044913,17.5665009443142,-17.489361497776,-118.492834472921,1036.80853379906,0.198099715978067,-0.00874225515648314
49.51,-37.8570343288723,39.5479064246522,36.9631956121087,0.688532863064598,6.10174207636884,5.99675852359992,6.11093923097846,-53.1611439674922,30.2094275071743,9.25924179957171,0.569848691212114,-0.563596049410441,-2.85181389123411,-3.12866606105793,8.41293467468929,12.71156393172,-0.0777994425637289,-37.2297317952664,0.0126818007084701,-74.9368405771546,-9.91563572855483,9.64484814048349,-3.06913154778284,32.4358832358122,-66.9595307114955,-62.1382124735116,-2.81414818763733,9.62079429626465,-2.61296653747559,10.6400003433228,32.5849990844727,95.129997253418,227,0.192289814352989,-0.281478703022003,2.01412933533643,-66.1795817454959,-41.7946283863996,-0.197376998241769,-1.67948070858895,-0.128303938099071,0.200025917359588,-14.9018745993667,-116.494010897914,-98.1097484835106,-0.202832295112336,-3.03676520347296,-3.24290377374702,-3.06582047243831,-0.865462755840514,15.4519300931852,-1.792625572688,-11.4835758918042,-10.0194986027173,75.2674460968459,2.3302704642511,16.3488224457815,6.72824287952918,4.5433507641083,-43.2616082714292,-136.419798572133,-2.02103129443919,14.1040150471401,-0.272514456739916,20.6484421240262,-20.2727671893748,-155.739538847454,979.610117587952,0.235279198115331,-0.0177527561724344
49.515,-37.6732749938965,40.5382690429688,35.5722091337143,0.683370631610614,6.2237770969347,5.98241758346558,6.07709615774677,-53.0651505279541,34.0808448791504,12.7774782662568,0.613950088458108,-0.11900060152471,-2.8087911605835,-3.08714853371402,8.1332326446747,12.5879798789731,0.00131312878208783,-35.7471020514984,-0.589600253790433,-78.3823360133837,-10.4945452723104,7.98121352594057,-2.67848541037626,33.1455315144504,-65.5173991369455,-59.2467924698736,-2.7874159316716,9.95227398221136,-2.11700487847165,7.79051078600579,28.2831893149609,83.3551718300964,298.82814438027,0.197188789234114,-0.274643302947111,1.69872211456299,-68.5204391479492,-47.7808320960878,-0.188937491415837,-1.90357420004681,-0.197802200913429,0.133928881650332,-15.4613800287247,-118.744834899902,-102.89103980265,-0.188249410668351,-3.01336778319798,-3.23076915740967,-3.04690053950385,-1.10545447711639,15.4910103110866,-1.7941413483343,-14.2340658268134,-9.91133375002728,84.4011628761285,2.07616197050753,16.5256561885313,6.49757645614344,6.26998193552939,-51.3269652168842,-137.414141020424,-2.06772445269089,14.351127351494,-0.272862854951792,19.2394000904184,-22.2762622032957,-180.560741321375,933.798012954634,0.256559711157867,-0.0250245252333639
49.52,-37.6732749938965,40.5382690429688,35.5079269623492,0.681396826101353,6.42315985553356,5.98241758346558,6.05412354048531,-53.0651505279541,34.0808448791504,16.4292423765971,0.66147950964523,0.440856486604642,-2.8087911605835,-3.08825010603341,7.79953882005086,12.5038995452097,0.00394063921219432,-34.2776425146597,-0.0154405672110778,-84.5326567238608,-10.6837260232782,6.52294523723016,-2.09517809489208,30.9170134089136,-62.4519703018185,-55.5163764271264,-2.73392591429603,10.6155496213369,-1.12460835975869,2.08881295220639,19.675465387263,59.7942865350006,442.552964907225,0.206991413144708,-0.26096598109131,1.69872211456299,-68.5204391479492,-52.8321179087428,-0.182343686124443,-2.14990234061071,-0.197802200913429,0.135240338866962,-15.4613800287247,-118.744834899902,-106.683096961972,-0.169646955972492,-2.99760783542897,-3.23076915740967,-3.03790555769215,-1.17639725872933,15.2729269453876,-1.86245661951713,-17.6173909855832,-11.8089801717726,94.097000747234,1.70831051029229,16.9171552426175,5.7723835774334,8.19357907757205,-59.8615083546823,-137.822864865107,-2.12687805484632,13.934534883207,-0.315654843794352,13.3353840133263,-23.4993679877704,-192.948140366717,899.377626320207,0.261929633103118,-0.030556763100789
49.525,-37.6732749938965,40.5382690429688,35.4436478561268,0.679423114708318,6.62253310703921,5.98241758346558,6.02837012977245,-53.0651505279541,34.0808448791504,20.0808323612408,0.709006664504812,1.00068687927871,-2.8087911605835,-3.08901990822542,7.46586090682435,12.4198232206172,0.00656802435570772,-32.8082530455083,0.558691741927567,-90.6826841709051,-10.8728977536114,5.06474648257891,-1.51189859303157,28.6886015649687,-59.3866876343834,-51.7861382604065,-2.68043844746488,11.2787936337391,-0.132259161116232,-3.61261300967646,11.0681518984326,36.2345246847501,586.270932257539,0.216793569640468,-0.247289311406111,1.69872211456299,-68.5204391479492,-57.8831628628333,-0.17575019524299,-2.3962187356024,-0.197802200913429,0.134302792441644,-15.4613800287247,-118.744834899902,-110.474973306056,-0.151045388290494,-2.98184863913562,-3.23076915740967,-3.0271886765274,-1.24733665760425,15.0548539784758,-1.93076863324854,-21.0005548185301,-13.7065361087562,103.792376295344,1.34047659020009,17.3086356290013,5.04722527782304,10.1170844974546,-68.3956445430651,-138.231569220765,-2.18602883640275,13.5179622791423,-0.358444792202579,7.43164945521563,-24.7224154513513,-205.334948748362,864.95888094015,0.267299298996398,-0.0360887371765936
49.53,-37.6732749938965,40.5382690429688,35.3793656847618,0.677449309199057,6.82191586563807,5.98241758346558,6.00057939126704,-53.0651505279541,34.0808448791504,23.7325964715811,0.756536085691935,1.56054396740807,-2.8087911605835,-3.08951377182683,7.13216708220051,12.3357428868537,0.00919553478581421,-31.3387935086696,1.13285142850692,-96.8330048813822,-11.0620785045792,3.6064781938685,-0.928591277547392,26.460083459432,-56.3212587992564,-48.0557222176593,-2.62694843008931,11.9420692728646,0.86013735759673,-9.31431084347585,2.46042797073476,12.6736393896542,729.995752784494,0.226596193551063,-0.233611989550311,1.69872211456299,-68.5204391479492,-62.9344486754883,-0.169156389951595,-2.6425468761663,-0.197802200913429,0.130992387008658,-15.4613800287247,-118.744834899902,-114.267030465378,-0.132442933594635,-2.96608869136661,-3.23076915740967,-3.01532474064529,-1.31827943921719,14.8367706127767,-1.99908390443137,-24.3838799772999,-15.6041825305015,113.488214166449,0.972625129984852,17.7001346830876,4.32203239911299,12.0406816394973,-76.9301876808632,-138.640293065449,-2.24518243855818,13.1013698108553,-0.40123678104514,1.52763337812357,-25.9455212358259,-217.722347793704,830.538494305724,0.272669220941649,-0.0416209750440188
49.535,-37.3988993248334,41.4503539855089,36.098982066449,0.680506305715801,7.04881855939689,5.95727268857902,5.94637831109355,-52.7421509543003,37.9572077034326,27.0632845003187,0.77546231932661,2.12174825734771,-2.65093709824009,-2.93191963975264,6.8313727802896,12.114550815805,0.0290682130921874,-30.0649537552755,-0.92382988672003,-102.729790533604,-11.0516722364196,3.52070703099406,-0.751589017757682,22.0327964204731,-53.6308730152952,-43.1313256335644,-2.61057138442993,12.1451444625854,1.16397953033447,-11.0600004196167,-0.174999997019768,5.46000003814697,774,0.229597464203835,-0.229424402117729,1.15344408566827,-72.9668544551569,-66.3919315397704,-0.163483858987764,-2.83026292081669,-0.270443015466956,0.0525902034554449,-16.2740869566791,-121.139060298719,-116.726876141108,-0.11239735974936,-2.93686206058222,-3.18746406066059,-2.95964047992801,-1.51955900661816,14.3203079745757,-1.60367734748704,-26.7812078072,-17.3171151187445,122.302806071476,0.979176331826237,17.6753993840508,3.82033287464781,13.0494441977088,-82.5034911065971,-137.961114468333,-2.46119139767999,13.4141443562019,-0.839818894929525,-6.87045132071825,-30.6135257488231,-245.246187710386,781.863573815609,0.279604657561741,-0.0512509503651475
49.54,-37.0034212126966,42.7650100277737,37.1645869172449,0.68578363465904,7.28788155599804,5.92102947651297,5.88058906272344,-52.2765875825706,43.5444985041781,30.2525086918093,0.781767099968801,2.68358564605806,-2.42341026693659,-2.7044490961392,6.54507655680053,11.8328353318917,0.056552650547139,-28.8773546059875,-4.14165805788606,-108.51509496085,-10.9531863355394,4.0406209728502,-0.753879387545592,16.634875525257,-51.1058110145472,-37.6796800149282,-2.61057138442993,12.1451444625854,1.16397953033447,-11.0600004196167,-0.174999997019768,5.46000003814697,774,0.229597464203835,-0.229424402117729,0.367494200996088,-79.3758044086111,-69.1462974797475,-0.158217501902029,-2.99212600657937,-0.375145638340946,-0.060348235034165,-17.4455020558586,-124.590035904491,-118.598978168007,-0.0917135512901837,-2.90169049520866,-3.12504519543574,-2.88498461954943,-1.77837079265229,13.6721333245965,-1.00360046305395,-28.7435740205473,-18.9486501405045,130.729104797376,1.15095406591968,17.4669757333508,3.41722779197519,13.6545542404413,-86.7703651929675,-136.801791489266,-2.74643638814477,14.0488143221041,-1.45309564627147,-16.3697602604504,-36.8021050206076,-279.451719082378,726.894698905707,0.28723144161577,-0.0626899430172418
49.545,-36.6079619579941,44.0796033837881,38.2301409572048,0.691060711965384,7.52693315344811,5.8847879926184,5.81506800001022,-51.8110464101244,49.1315228882346,33.4415808127205,0.788071579982505,3.24539624488721,-2.19589428470954,-2.47680591145925,6.25879398466677,11.5511332809121,0.0840357774719811,-27.6898120845438,-7.35933279455985,-114.300123529597,-10.8547051307254,4.56051012384511,-0.75616964812266,11.2372120170757,-48.5808694153822,-32.2282943450626,-2.61057138442993,12.1451444625854,1.16397953033447,-11.0600004196167,-0.174999997019768,5.46000003814697,774,0.229597464203835,-0.229424402117729,-0.418418207522901,-85.7844487665115,-71.9005320843278,-0.152951395930021,-3.15398137428532,-0.479843268719091,-0.175718613007485,-18.6168612988918,-128.040846958689,-120.470990928169,-0.0710307290892788,-2.86652060690764,-3.06262930650619,-2.811126273616,-2.03717023786122,13.0239895812856,-0.403552191861587,-30.7058466631234,-20.5801073663927,139.155001735239,1.32272360919994,17.2585620208374,3.01414193041084,14.2596354299388,-91.0370358235832,-135.642523789762,-3.03166777737979,14.6834540252768,-2.06634315496839,-25.8686162482018,-42.9903892046908,-313.655619444865,671.928445056025,0.294857862004719,-0.0741283902281455
49.55,-36.2124838458573,45.3942594260529,39.2957458080006,0.696338040908622,7.76599615004926,5.84854478055235,5.75052822384343,-51.3454830383947,54.7188136889801,36.6308050042111,0.794376360624697,3.80723363359756,-1.96836745340603,-2.24897910545195,5.9724977611777,11.2694177969989,0.111520214926933,-26.5022129352558,-10.5771609657259,-120.085427956843,-10.7562192298451,5.08042406570125,-0.75846001791057,5.83929112185961,-46.0558074146342,-26.7766487264263,-2.61057138442993,12.1451444625854,1.16397953033447,-11.0600004196167,-0.174999997019768,5.46000003814697,774,0.229597464203835,-0.229424402117729,-1.20436809219508,-92.1933987199657,-74.6548980243049,-0.147685038844287,-3.315844460048,-0.584545891593082,-0.293429315491051,-19.7882763980713,-131.491822564461,-122.343092955069,-0.0503469206301028,-2.83134904153407,-3.00021044128134,-2.7386788998479,-2.29598202389535,12.3758149313064,0.196524692571501,-32.6682128764707,-22.2116423881526,147.581300461139,1.49450134329338,17.0501383701374,2.61103684773823,14.8647454726713,-95.3039099099537,-134.483200810695,-3.31691276784457,15.3181239911791,-2.67961990631033,-35.3679251879339,-49.1789684764753,-347.861150816858,616.959570146124,0.302484646058748,-0.0855673828802399
49.555,-35.7778393520033,46.6863384788302,40.4462514794403,0.700790583995899,8.01552364782375,5.84917994709705,5.72450931887818,-50.78556417185,60.1081157465028,40.0977019301585,0.80066043450282,4.36761774240749,-1.70536660962997,-1.98550644247559,5.76781050390345,11.0613094393187,0.205574875798435,-25.3886829815384,-13.1219760096032,-124.6444768639,-10.4364584811923,5.81112491128461,-0.856703335699068,1.43035074345696,-42.823051108833,-21.9122265156095,-2.58643760209053,11.8407475120891,1.33778162879077,-11.4269042025228,-1.49471618237755,5.61358767811333,800.654364797729,0.229521773374825,-0.229193578207848,-2.12712821178016,-98.5433024967537,-77.83372646085,-0.14068021933617,-3.44715180057762,-0.744245412736348,-0.468307262928984,-21.0661260793867,-135.211501198004,-124.367545999218,-0.0296771546389396,-2.77468252742228,-2.95038327187659,-2.68079978603402,-2.40823988644431,11.8343577004968,0.613814762242745,-33.9545470476391,-23.8213030868579,156.382072041287,1.39627750177432,16.7450354861604,2.23191980127748,16.2266996118427,-93.6552015701531,-132.630225446644,-3.84910672365815,16.0905166355915,-2.91038324434847,-40.7936559938386,-53.5846025711937,-375.919874409228,568.704400283889,0.307562390674167,-0.093819658777619
49.56,-35.2627407397958,47.9322652681855,41.7711875697402,0.703550863209547,8.28656635062634,5.92550982280575,5.77641616886077,-50.0318946864911,65.0918210112854,44.1350399224086,0.806902921480471,4.92510049521057,-1.36951539457014,-1.64900126728961,5.7305997161107,11.0042528980364,0.436281760113553,-24.4270214698572,-14.2857701957142,-126.687241922152,-9.66247409510291,6.97458220960493,-1.15190891885497,-0.949302105512192,-38.1372482015964,-18.2524000619182,-2.51276457687628,10.911517112408,1.86834605511182,-12.5469487636739,-5.52340436859639,6.08244357118094,882.021954104566,0.22929071252097,-0.228488943704497,-3.330832127963,-104.772935497211,-81.884246963267,-0.13010610384006,-3.51576114166172,-1.01685191525024,-0.758038811588455,-22.5626237799717,-139.483246945556,-126.705001393769,-0.00903320277811945,-2.67388836575998,-2.92639390095656,-2.65122205835838,-2.21970522829431,11.5118642062929,0.655986988407864,-33.8534807104242,-25.3863000055493,165.95274791391,0.743848355807917,16.241449491365,1.901984149515,19.1423103096788,-79.8642404647373,-129.353226027857,-4.88825257966669,17.1457040226993,-2.35605329597338,-37.8589647423496,-54.3312986298546,-391.366068485315,534.222403595931,0.30740885037267,-0.0955322489861566
49.565,-34.7476421275882,49.1781920575407,43.0961236600402,0.706311142423194,8.55760905342892,6.00183969851445,5.83106144112535,-49.2782252011323,70.0755262760679,48.1723779146588,0.813145408458121,5.48258324801365,-1.03366417951031,-1.31229006525921,5.69338892831794,10.9471963567542,0.666988644428672,-23.465359958176,-15.4495643818253,-128.730006980405,-8.88848970901348,8.13803950792525,-1.44711450201087,-3.32895495448135,-33.4514452943599,-14.5925736082269,-2.43909155166203,9.9822867127268,2.39891048143286,-13.6669933248249,-9.55209255481524,6.55129946424856,963.389543411403,0.229059651667115,-0.227784309201145,-4.53453604414583,-111.002568497668,-85.9347674656841,-0.119531988343949,-3.58437048274582,-1.28945841776414,-1.04944290539117,-24.0591214805566,-143.754992693108,-129.042456788319,0.0116107490827007,-2.57309420409768,-2.90240453003653,-2.62450604515435,-2.03117057014431,11.1893707120889,0.698159214572982,-33.7524143732093,-26.9512969242407,175.523423786534,0.0914192098415113,15.7378634965697,1.57204849775253,22.0579210075149,-66.0732793593215,-126.076226609071,-5.92739843567523,18.200891409807,-1.80172334759828,-34.9242734908606,-55.0779946885155,-406.812262561402,499.740406907973,0.307255310071172,-0.0972448391946941
49.57,-34.2325680766344,50.4240594378368,44.4209965739101,0.709071290019485,8.8286388322041,6.07816593461435,5.88886094163238,-48.5245916527125,75.058993904704,52.2095233960377,0.81938759777761,6.04003941857599,-0.697828978717835,-0.975348375449171,5.65617991483321,10.8901425360776,0.897684528034068,-22.5037443010394,-16.6133030751752,-130.772674634259,-8.11454222853087,9.30144132954815,-1.74230600898982,-5.70849433535738,-28.7658658185036,-10.932921664666,-2.36542203937097,9.05310062118983,2.92944960904962,-14.7869844793117,-13.5805886426083,7.0201330010367,1044.75325289804,0.228828601830848,-0.227079708296616,-5.73818256456688,-117.231904452874,-89.9850948286532,-0.108958377049417,-3.65297655235647,-1.56205192168455,-1.34219374595665,-25.5555478242038,-148.026534752612,-131.379800726862,0.0322537165857171,-2.47230484856555,-2.87841630299266,-2.60095431766492,-1.84264490182161,10.8668925952212,0.740329429855679,-33.6513528551026,-28.5162192197718,185.093643304214,-0.560978826590946,15.2343015140762,1.24212857818783,24.973392681381,-52.2829758431249,-122.799383446217,-6.96649474248216,19.2560284828108,-1.24741983112994,-31.9897221731525,-55.8246551427487,-422.257720122417,465.260054412113,0.307101777090879,-0.0989573477424359
49.575,-33.7078251205622,51.9732498440886,45.7971668317533,0.710558858241906,9.09316313967636,6.18385185962414,5.97950599536448,-47.7437369000622,79.2896644489986,56.3825333167313,0.814911107632426,6.56199438559868,-0.294810895001249,-0.570917017829486,5.59754993388544,10.8651433641868,1.09461340385553,-21.5645330725983,-17.1178361224023,-132.304244362363,-7.39837520588303,10.1942745957733,-1.91538659614447,-6.78267916155809,-26.0878682016355,-6.73952756663221,-2.31358885765076,8.39933395385742,3.30273199081421,-15.5749998092651,-16.4150009155273,7.34999990463257,1102,0.228666037321091,-0.226583957672119,-6.93653449313372,-121.718285507799,-94.2634685158495,-0.0978003340157247,-3.69739961795316,-1.83562508484078,-1.63694652289979,-27.0560407566134,-151.756300556548,-134.003777123412,0.0459307667562574,-2.34971627439066,-2.86344024545009,-2.58977995990533,-1.49222400074232,10.7705213770385,0.809661191917769,-33.302485030789,-30.4906314090089,193.085101328391,-1.68775024937943,14.8468288213051,0.863614146194347,27.7734020741382,-39.5302077775458,-120.260578399945,-7.55925419750002,20.5279354361869,-1.11319739787752,-19.178258265445,-57.7659031796323,-426.540160296724,418.140731203749,0.306055819845555,-0.10165282986106
49.58,-33.1602190549415,54.2420770619169,47.2948613199438,0.709025934871972,9.34220526066285,6.35920105050821,6.14353606219973,-46.8984028143463,81.7330176939526,60.877323323024,0.78499636125255,6.99960928294231,0.267589594934027,-0.00671343426508799,5.48809033335653,10.9162245111003,1.21137031108637,-20.678646044998,-16.0577746961552,-132.622563090925,-6.81945554086343,10.4448154592062,-1.79862968891363,-4.75865252900693,-28.1749579785243,-1.28006107111589,-2.31358885765076,8.39933395385742,3.30273199081421,-15.5749998092651,-16.4150009155273,7.34999990463257,1102,0.228666037321091,-0.226583957672119,-8.12212784767173,-122.06733570625,-99.0823834834518,-0.0852570356710677,-3.68442126046936,-2.11147929976816,-1.93465598868836,-28.5659436977507,-154.199651945701,-137.307605207509,0.0430731881201618,-2.17541065300657,-2.86985545975072,-2.60346656907622,-0.75762845941493,11.2107922147215,0.94344514811978,-32.365546886344,-33.436581151639,197.328350040253,-3.9401855847078,14.7349367852089,0.369829726030575,30.2989308545174,-29.2419062298896,-119.473790599161,-7.09261313657725,22.3141045220934,-1.97598809077667,17.0723296251372,-62.5419909356683,-404.328374319983,341.032523720046,0.302892012499976,-0.106680800246734
49.585,-32.6125868767812,56.51101246854,48.7926272255435,0.707492938404743,9.59125925719752,6.5345586029006,6.31144174102645,-46.0530284189607,84.1764874499573,65.3723276629206,0.755080188391038,7.43724504790776,0.830016902879409,0.558014725408652,5.37862551325771,10.9673080938131,1.32813278585846,-19.792716773965,-14.9976627209869,-132.940896998482,-6.24050827011854,10.6953682696546,-1.68186721414156,-2.73452938095185,-30.2621472780766,4.17966575850447,-2.31358885765076,8.39933395385742,3.30273199081421,-15.5749998092651,-16.4150009155273,7.34999990463257,1102,0.228666037321091,-0.226583957672119,-9.30777773710814,-122.416402549123,-103.901528240524,-0.0727131392005061,-3.6714422841139,-2.3873466687757,-2.23271426950456,-30.0759186384559,-156.643119845816,-140.611590834312,0.0402154732207199,-2.00109671987668,-2.8762709799602,-2.62063554139208,-0.0229978889739383,11.6510840466745,1.07723548379612,-31.4285640640989,-36.3826713715827,201.571801090997,-6.19272832718582,14.6230394135523,-0.123978240193002,32.8245800644792,-18.9531140856216,-118.686965280481,-6.625949823923,24.1003587812909,-2.83881992576217,53.3246461213123,-67.3183064389628,-382.11552917649,263.920639339318,0.299728054288567,-0.111709010390664
49.59,-32.0649808111604,58.7798396863682,50.2903217137339,0.705960015034809,9.84030137818401,6.70990779378467,6.48326508184949,-45.2076943332448,86.6198406949113,69.8671176692133,0.725165442011162,7.87485994525139,1.39241739281469,1.12334753307792,5.2691659127288,11.0183892407266,1.44488969308931,-18.9068297463647,-13.9376012947397,-133.259215727044,-5.66158860509894,10.9459091330874,-1.56511030691073,-0.71050274840069,-32.3492370549654,9.6391322540208,-2.31358885765076,8.39933395385742,3.30273199081421,-15.5749998092651,-16.4150009155273,7.34999990463257,1102,0.228666037321091,-0.226583957672119,-10.4933710916461,-122.765452747574,-108.720443208126,-0.0601698408558491,-3.65846392663009,-2.66320088370308,-2.53077680884004,-31.5858215795932,-159.086471234969,-143.915418918409,0.0373578945846243,-1.82679109849259,-2.88268619426084,-2.64121460940503,0.711597652353452,12.0913548843575,1.21101943999814,-30.4916259196539,-39.3286211142128,205.815049802859,-8.44516366251418,14.5111473774561,-0.617762660356774,35.3501088448583,-8.66481253796539,-117.900177479697,-6.15930876300023,25.8865278671974,-3.70161061866131,89.5752340118945,-72.0943941949988,-359.903743199749,186.812431855615,0.296564246942989,-0.116736980776338
49.595,-31.5204325677647,61.0068231671109,51.7947149852263,0.702577519405297,10.0571174660431,6.8932810323142,6.66701563216008,-44.3775367121915,88.761716586192,74.0115440572176,0.697453666815422,8.26882032832291,1.93842383811116,1.67307640374358,5.1430440291416,11.0582401918639,1.54457550115392,-17.9309906766353,-12.8403020303136,-133.717528920084,-5.34979057875922,11.1623186569528,-1.42213321869771,1.09469899481515,-34.0411268260281,15.0584421729602,-2.29968010565669,8.45159715537416,3.27246990700352,-14.8851550232647,-16.0097170729136,7.01493243618763,1107.34981673379,0.227929521941687,-0.226169022975871,-11.6222441928901,-122.292200833747,-112.914134255831,-0.0480904206115278,-3.63364472665329,-2.91668779708135,-2.80620620031074,-33.0458049726214,-161.026322132402,-147.001019116836,0.0336050210843086,-1.64895266191091,-2.88698378459831,-2.66294064125637,1.39939825331463,12.4003734105616,1.27142929544323,-29.528515619108,-41.6966750632256,209.018713991304,-10.5633291099144,14.41366469071,-1.00134603375717,37.9023262881567,-2.2236502517571,-117.383532130106,-5.80750572246536,27.0830931953297,-4.40840277087284,117.519592003029,-76.5824554188574,-336.038707098436,121.008326168605,0.283639791449398,-0.116579921190337
49.6,-30.9894562773944,63.0494292901487,53.3281468069564,0.691071377487602,10.1323202497102,7.11185391925946,6.88977061576152,-43.6142573897882,89.5787584562097,76.6158814460942,0.679425889694711,8.47092058599111,2.41227665239451,2.15162249364049,4.9437630662021,11.0487506222001,1.56924838227976,-16.5602750585329,-11.5797122823836,-134.790670378359,-6.21144350423096,11.2287456445993,-1.16401692384273,1.93821629826277,-33.996607857235,20.2999649724388,-2.22467870733642,8.73342065730458,3.10928498553423,-11.1652437331606,-13.8242690236845,5.20811837582282,1136.1981085117,0.223957944666942,-0.223931533771703,-12.5016750313098,-118.206988587671,-114.360359653071,-0.0380517586619557,-3.55681928005583,-3.07185789398319,-2.98281525032133,-34.2861340525258,-160.753974842396,-149.127228065302,0.0259203992445813,-1.455641547627,-2.88197829760147,-2.67841896022197,1.88146839223495,12.1327675460428,1.00951717272274,-28.4506879535916,-41.5256284989154,207.655027684064,-12.0911498257839,14.3795022399204,-0.900756595321043,40.5711213121201,-12.6832648145075,-118.053659765623,-5.96023590520818,25.6894303004263,-4.42976682775943,108.970437592449,-79.804164030114,-304.917665123643,104.876057740169,0.227843587985378,-0.0936469012169532
49.605,-30.4584546674738,65.0921328146515,54.8616517502268,0.6795646869007,10.2075266194143,7.33043722883059,7.11617370736351,-42.8509416704883,90.3958392867859,79.220343022534,0.661397252921284,8.67303048078951,2.88615206230107,2.63135990461532,4.74447260057016,11.0392606000271,1.59392243992943,-15.1894940779958,-10.3190624233598,-135.863863009275,-7.07313751753474,11.2951757998099,-0.905888320738517,2.78177382474712,-33.9520867655595,25.5417377133986,-2.1496737325821,9.01525759796,2.94609228260857,-7.44515505946542,-11.6387167615876,3.40121815771349,1165.04777591746,0.219986178007939,-0.221693937873089,-13.3811478052994,-114.121581538666,-115.806654013422,-0.0280126180198106,-3.47999017004477,-3.22703539015529,-3.15874335361459,-35.5265222773961,-160.481614565538,-151.253538401825,0.0182354109644439,-1.26232121532228,-2.8769725719185,-2.69669070254936,2.36356151862076,11.8651489207656,0.74759256074935,-27.3728088919727,-41.3545737782672,206.291276349581,-13.6190433956287,14.3453381600978,-0.800162360287789,43.2400435973026,-23.1433781429136,-118.723819356107,-6.11297337087421,24.2957009488498,-4.45113190338889,100.420875516312,-83.0260262682177,-273.795139145132,88.7430200461559,0.172044723885076,-0.0707127876848467
49.61,-29.9274783771034,67.1347389376893,56.3950835719569,0.668058544983005,10.2827294030814,7.54901011577585,7.34597544110974,-42.087662348085,91.2128811568037,81.8246804114105,0.643369475800573,8.8751307384577,3.36000487658442,3.11245138788835,4.54519163763066,11.0297710303634,1.61859532105527,-13.8187784598934,-9.0584726754297,-136.93700446755,-7.93479044300648,11.3616027874564,-0.647772025883543,3.62529112819474,-33.9075677967664,30.7832605128772,-2.07467233426183,9.29708109989043,2.78290736113928,-3.72524376936134,-9.45326871235849,1.59440409734867,1193.89606769537,0.216014600733194,-0.219456448668921,-14.2605786437191,-110.03636929259,-117.252879410662,-0.0179739560702385,-3.40316472344731,-3.38220548705713,-3.33384733743227,-36.7668513573005,-160.209267275532,-153.37974735029,0.0105507891247166,-1.06901010103837,-2.87196708492167,-2.7174527580735,2.84563165754108,11.5975430562469,0.485680438028866,-26.2949812264563,-41.1835272139569,204.92759004234,-15.1468641114982,14.3111757093081,-0.699572921851666,45.908838621266,-33.602992705664,-119.393946991624,-6.26570355361703,22.9020380539464,-4.47249596027547,91.8717211057322,-86.2477348794743,-242.674097170338,72.6107516177203,0.116248520421056,-0.0477797677114628
49.615,-29.3964767671828,69.1774424621922,57.9285885152273,0.656551854396104,10.3579357727855,7.76759342534698,7.57891395320771,-41.3243466287851,92.0299619873798,84.4291419878503,0.625340839027146,9.07724063325611,3.83388028649098,3.59515120071324,4.34590117199873,11.0202810081904,1.64326937870494,-12.4479974793564,-7.79782281640586,-138.010197098467,-8.79648445631025,11.4280329426671,-0.389643422779328,4.4688486546791,-33.8630467050909,36.025033253837,-1.99966735950751,9.57891804054585,2.61971465821363,-0.00515509566611749,-7.26771645026162,-0.212496120760659,1222.74573510114,0.212042834074191,-0.217218852770308,-15.1400514177087,-105.950962243584,-118.699173771012,-0.00793481542809337,-3.32633561343625,-3.53738298322924,-3.50806987871302,-38.0072395821708,-159.936906998673,-155.506057686813,0.00286580084457921,-0.875689768733652,-2.8669613592387,-2.74036911334707,3.32772478392689,11.3299244309697,0.223755826055475,-25.2171021648373,-41.0124724933087,203.563838707857,-16.674757681343,14.2770116294855,-0.598978686818412,48.5777609064485,-44.06310603407,-120.064106582109,-6.41844101928306,21.5083087023699,-4.49386103590493,83.322159029595,-89.4695971175779,-211.551571191827,56.477713923707,0.0604496563207543,-0.0248456541793563
49.62,-28.8655004768125,71.22004858523,59.4620203369574,0.645045712478408,10.4331385564526,7.98616631229224,7.81463916377143,-40.5610673063818,92.8470038573976,87.0334793767269,0.607313061906435,9.2793408909243,4.30773310077434,4.07961390066553,4.14662020905923,11.0107914385266,1.66794225983078,-11.077281861254,-6.53723306847581,-139.083338556742,-9.658137381782,11.4944599303136,-0.131527127924354,5.31236595812672,-33.8185277362978,41.2665560533156,-1.92466596118724,9.86074154247628,2.45652973674434,3.71475619443796,-5.08226840103248,-2.01931018112547,1251.59402687904,0.208071256799446,-0.214981363566139,-16.0194822561284,-101.865749997509,-120.145399168252,0.00210384652147871,-3.24951016683879,-3.69255308013107,-3.68137649925518,-39.2475686620752,-159.664559708667,-157.632266635278,-0.0048188209951481,-0.682378654449739,-2.86195587224187,-2.7650818942188,3.80979492284721,11.062318566451,-0.0381562966650099,-24.1392744993209,-40.8414259289985,202.200152400617,-18.2025783972125,14.2428491786959,-0.498389248382288,51.2465559304119,-54.5227205968205,-120.734234217626,-6.57117120202588,20.1146458074666,-4.51522509279151,74.7730046190155,-92.6913057288345,-180.430529217034,40.3454454952713,0.0046534528567341,-0.00191263420597245
49.625,-28.1183262432801,71.5432087505452,61.3711612574078,0.633362423800769,10.3719872424409,8.24966353565853,8.09771771801442,-39.571084352586,92.3039258620771,88.4717763993113,0.584850342570231,9.30758689563405,4.83778884567997,4.62224401751567,3.74239228459689,10.9695354582821,1.84463644320361,-11.0444704868912,-4.94129986003553,-139.004565908386,-9.27424147749306,11.5468536798839,0.0305610396516685,5.1776326020795,-21.2889488795251,39.416234483783,-1.80976577789102,9.85058118022244,2.38426190902551,2.85472292822744,-4.40058245596642,-4.65218019690977,1232.70287278005,0.209365316231352,-0.213200299569445,-17.0144971774521,-98.0105229793181,-117.96878543661,7.1262303776663e-05,-3.10379412118486,-3.72234487711866,-3.72842202018457,-40.7754129502465,-156.28013563742,-158.061676906392,-0.0138568033840165,-0.45099181478176,-2.78664741783321,-2.72091503676833,4.15667863196732,11.0101840218921,-0.128150807103844,-18.9696234828462,-36.4152371018422,197.238036716841,-16.8945736253753,13.0452311629608,-0.242953324248572,52.8363587844907,-72.624700576832,-121.097748627745,-6.35845796152289,19.655135995979,-3.8503449221841,60.8813358198311,-82.9492850196777,-133.766989429254,35.1665171004088,0,0
49.63,-27.3515201610063,71.709908730654,63.3143866637731,0.621663625244627,10.2984329650246,8.51723448150191,8.38689971787029,-38.5605263237055,91.6371259416418,89.8039066998614,0.561985279623998,9.32001334385267,5.37293062657965,5.17207109147753,3.31953833881743,10.9253913650414,2.03515305613722,-11.1333897130421,-3.31493853011452,-138.820990731816,-8.77703958520291,11.59796789311,0.183903679329941,4.95390035563533,-7.62407167362797,36.9207594272905,-1.6912413905299,9.81385526534436,2.32026991051113,1.57802925543481,-3.85575140379566,-7.36007174918749,1209.46913949546,0.21113840102561,-0.211460855962486,-18.0199767268815,-94.1764216642221,-115.462661793784,-0.00305951558621091,-2.95181766135499,-3.74072761005033,-3.76323708261567,-42.3293372600049,-152.612736075026,-158.336682022381,-0.0230174507896907,-0.216152701438649,-2.70494638258135,-2.67139909297344,4.49124439126535,10.9776567952936,-0.202498753614517,-13.4279478401524,-31.6021254411589,191.94877694193,-15.3286200019942,11.7418187256955,0.0265579818526295,54.3279070941184,-91.4210776402753,-121.433346997411,-6.11250600520986,19.2806437807409,-3.12306157445988,46.504302301463,-72.0282693273917,-85.6917467264702,30.9844451091834,0,0
49.635,-26.5846775136626,71.8766166598344,65.257704732644,0.609964268832466,10.2248751801801,8.78481818643859,8.67770149309576,-37.5499201064683,90.9702942249202,91.1361005229091,0.539119126359567,9.33244038462521,5.90809792566066,5.72413687859488,2.89666422929061,10.8812451667941,2.22567875383611,-11.2223131792972,-1.68849964731907,-138.637406801483,-8.27981398389115,11.6490845437121,0.337253631136375,4.73015744054177,6.04145714054755,34.4251653743239,-1.57271135134544,9.77712759919477,2.25627486054481,0.301274703634373,-3.31089437141164,-10.0680924269982,1186.23429831267,0.212911570369236,-0.209721329410336,-19.025504222501,-90.3421375203952,-112.956418646707,-0.00619044276702344,-2.7998339545431,-3.75911121956075,-3.79731698410193,-43.8833356684859,-148.945161633057,-158.611700251961,-0.0321785350199039,0.0186976101836742,-2.62324145142394,-2.62254273822075,4.82582610429756,10.9451280176377,-0.27685024539945,-7.88600794321979,-26.788784267736,186.659264949206,-13.762591706274,10.4383441353408,0.296082139573024,55.8195265280754,-110.218351007045,-121.768961370051,-5.86654232070283,18.9061337078797,-2.39574354630327,32.1265832157152,-61.1067328675843,-37.6142115606322,26.8021736962808,0,0
49.64,-25.8178714313888,72.0433166399432,67.2009301390093,0.598265470276324,10.1513209027639,9.05238913228197,8.96965913509485,-36.5393620775878,90.3034943044849,92.4682308234592,0.516254063413335,9.34486683284383,6.44323970656034,6.2784377129036,2.47381028351115,10.8371010735534,2.41619536676971,-11.3112324054481,-0.0621383173980667,-138.453831624913,-7.782612091601,11.7001987569382,0.490596270814647,4.50642519409761,19.7063343464447,31.9296903178314,-1.45418696398432,9.74040168431668,2.19228286203043,-0.975418969158257,-2.76606331924088,-12.7759839792759,1163.00056502809,0.214684655163495,-0.207981885803377,-20.0309837719304,-86.5080362052992,-110.450295003882,-0.00932122065701101,-2.64785749471323,-3.77749395249242,-3.83075626275783,-45.4372599782444,-145.277762070663,-158.88670536795,-0.0413391824255782,0.253536723526786,-2.54154041617208,-2.57397967420986,5.16039186359559,10.9126007910393,-0.351198191910123,-2.34433230052599,-21.9756726070527,181.370005174295,-12.1966380828929,9.13493169807558,0.565593445674225,57.3110748377032,-129.014728070489,-122.104559739718,-5.6205903643898,18.5316414926417,-1.66846019857905,17.749549697347,-50.1857171752982,10.4610311421519,22.6201017050553,0,0
49.645,-25.0116272952557,70.7706931621958,68.4371481577228,0.579960325234584,10.0740865520264,9.33354093983369,9.27591984406611,-35.4451983468963,91.1595150663688,93.1303565191785,0.479432211487282,9.20439459358296,6.91816013543114,6.77476091563292,2.16090262919312,10.6212035055908,2.39836724085827,-11.1539385663492,2.73265086986856,-137.533305873618,-7.33063269870049,11.6159424599577,0.526703535811429,5.451316685881,27.3775815303568,32.4048511168568,-1.39339275837089,9.66814707204128,2.18869514851528,-1.72548458291599,-2.22884955978566,-14.4718649589767,1145.45796313086,0.215631529159977,-0.207325926261317,-20.9806070775746,-84.1312685621394,-106.71041306274,-0.0118452195714826,-2.49950451220991,-3.76140415047259,-3.82917694214996,-46.976146694126,-139.511136246811,-157.023552517475,-0.0530057435206661,0.409341163814791,-2.40475732429829,-2.47026113972819,5.30087168328802,10.7524557268057,-0.206053067391956,-0.465967488592641,-17.2618480836029,177.953878274366,-10.7901547295255,8.52128316711997,0.736783197340603,57.7642575989912,-132.089510911133,-118.221440366527,-6.23614502335863,16.7045180618687,-1.78360828075138,14.8381268335448,-41.3671513413273,40.7883682764906,18.9809731036567,0,0
49.65,-24.1805085867832,68.5880610334408,69.2262176525179,0.55747930428189,9.99453124228279,9.62325826487537,9.5910212896893,-34.2982545292042,92.9783735619387,93.3687758376143,0.433788120160533,8.96725295326012,7.35496465643211,7.23512351324987,1.91754016319131,10.2967202175884,2.24880072529465,-10.8409724320876,6.26603852568192,-136.146865898839,-6.90728340888485,11.4460957388939,0.488678150498637,7.13507448820836,31.2583615952005,34.758356446504,-1.36910702027955,9.57343270859498,2.22330232907293,-2.14249630367767,-1.69649415180776,-15.5277031481579,1131.5153218495,0.216055902892205,-0.207355122424642,-21.8948376568944,-82.6761817656834,-102.190696708961,-0.0139853457901255,-2.35345426030929,-3.72351805454368,-3.80533303275655,-48.5054051177154,-132.417584245946,-153.808552518283,-0.0662559266776859,0.515158564225776,-2.23315559567912,-2.33130359694098,5.31861686310065,10.5116282864914,0.0778698096101605,-0.904120076558871,-12.6111713284756,175.722429737081,-9.48461650045329,8.34383136899365,0.845789301903917,57.5608296117211,-125.223033925433,-111.671059176432,-7.39639645909355,13.959014426272,-2.4314305369895,19.1768232397112,-33.878685228308,59.8910547122627,15.6854397098821,0,0
49.655,-23.3493502464998,66.405324826095,70.0153247740117,0.534997211324,9.91497213895232,9.9129894050582,9.90597137965891,-33.151256019613,94.7973187895908,93.6072065250509,0.388141852299937,8.73010000486231,7.7917900064122,7.69749730552494,1.67416609247508,9.97222145663343,2.09922707766696,-10.5279913740677,9.79959467072593,-134.760359811811,-6.48391393170142,11.2762409187066,0.450650951949218,8.8189125803551,35.1393267146466,37.1119740028132,-1.34482012412526,9.4787138287039,2.25791115987045,-2.5595279096008,-1.16411335851643,-16.5835916848758,1117.57201571472,0.216480296860652,-0.207384319980183,-22.8091118312062,-81.2210255835618,-97.6707648329668,-0.0161255740604693,-2.20739704401727,-3.68563015202015,-3.78106857464603,-50.034736463837,-125.323693989777,-150.593399212144,-0.0795067416683406,0.620981010528726,-2.06154568424899,-2.19159010226277,5.33636288909038,10.2707893623451,0.361806225445762,-1.34229355778665,-7.96027280630079,173.490874793399,-8.17901601692353,8.16637110909641,0.95480060441223,57.3573919240082,-118.356229512478,-105.120365632077,-8.55670322130007,11.213379871614,-3.07928368456596,23.5157265361741,-26.3898620285445,78.9946520576927,12.3897491689332,0,0
49.66,-22.5182315380273,64.22269269734,70.8043942688069,0.512516190371306,9.83541682920869,10.2027067300999,10.220315441676,-32.004312201921,96.6161772851607,93.8456258434866,0.342497760973188,8.49295836453947,8.22859452741317,8.16159702743849,1.43080362647328,9.64773816863102,1.94966056210333,-10.2150252398061,13.3329823265393,-133.373919837033,-6.06056464188578,11.1063941976428,0.412625566636426,10.5026703826825,39.0201067794903,39.4654793324603,-1.32053438603392,9.3839994652576,2.29251834042809,-2.97653963036248,-0.631757950538521,-17.639429874057,1103.62937443336,0.21690467059288,-0.207413516143507,-23.7233424105259,-79.7659387871058,-93.1510484791873,-0.0182657002791122,-2.06134679211665,-3.64774405609124,-3.75639794729695,-51.5639948874263,-118.230141988912,-147.378399212953,-0.0927569248253605,0.726798410939711,-1.88994395562982,-2.05083199351536,5.35410806890301,10.0299619220308,0.645729102447878,-1.78044614575288,-3.30959605117355,171.259426256114,-6.87347778785131,7.98891931097009,1.06380670897554,57.1539639367382,-111.489752526779,-98.569984441982,-9.71695465703499,8.46787623601725,-3.72710594080409,27.8544229423405,-18.9013959155251,98.0973384934648,9.09421577515866,0,0
49.665,-21.9116196029767,62.2574959409773,70.3878990175589,0.494382611525649,9.81705593328392,10.3369001018014,10.3781359083258,-31.0881445826185,97.0133432769964,94.0713670256566,0.305180164278178,8.21917350919401,8.51928795415829,8.48101109737342,1.23329675415503,9.3843956722067,1.9273748354451,-10.2249505827477,15.8313354390263,-131.670239767632,-5.7687180146454,10.904481137897,0.314993932038816,11.2360450860053,41.8828284190339,40.5101673584066,-1.38217490122656,9.33667832555123,2.19738236819151,-3.05952994961409,-0.298675293710971,-18.3732474453653,1092.94872058582,0.217482248205929,-0.20701511081931,-24.4488749806999,-78.5591831589404,-89.843142543628,-0.0208380187985542,-1.94010597837411,-3.59589950470121,-3.71732472832139,-52.638593103522,-112.877001502668,-142.977929604258,-0.0932971109725003,0.717747565704734,-1.68857230652802,-1.87897044782083,5.31389501398718,9.8289744117163,0.722710630245195,-2.69434235947318,1.3953919808954,169.099082606549,-6.62009760161264,7.60150197465855,1.10432234243872,56.9476778970293,-99.1119596606919,-89.972025289647,-9.40549689275331,7.36994909598224,-3.71342103020943,35.1697837859368,-15.7090182347637,94.8033396665332,6.84737534967912,0,0
49.67,-21.4166392815511,60.40051302534,69.3722224663291,0.478411169375699,9.82911227372979,10.3937826390052,10.4572638336106,-30.2867468139124,96.7038462615158,94.2907905831566,0.272003812476985,7.92719514101057,8.73733792007607,8.7288124423509,1.05859593549451,9.15146124732599,1.96835403982226,-10.3953644281108,17.8150591077062,-129.809001050307,-5.54225399045583,10.6866443146289,0.187742718446588,11.4969912867176,44.2393323744457,40.9042493758088,-1.48651959666771,9.31291677882371,2.03776595931177,-2.97649314280146,-0.0646624669153106,-18.9469562737354,1083.89015961823,0.218135932682032,-0.206404199909253,-25.0805657512984,-77.4759436047585,-87.1377880998243,-0.0236249695309981,-1.83120504318882,-3.53712077665156,-3.67078503155254,-53.4871313850758,-108.389293132692,-137.988551121171,-0.0875199119125632,0.651603527266274,-1.47241826148994,-1.69073777716998,5.24487740661512,9.64780319236465,0.696829027480672,-3.84463581567415,6.12703890605543,166.974234972178,-6.88969763040974,7.10975152213263,1.11079274312985,56.739986022993,-83.9957190337175,-80.3569566083005,-8.36256652500591,7.09100782686852,-3.37094314954225,43.9641366430229,-14.6521859984659,80.3775808649156,5.12193516537765,0,0
49.675,-20.9216353570393,58.5434415596615,68.3564974826663,0.462438965629155,9.84116918908104,10.450667888647,10.5346613386141,-29.4853108306352,96.3943344877016,94.5102246038466,0.238825878664834,7.63520284986836,8.95539828368427,8.97719467376102,0.883886786243234,8.91851571499095,2.00933519828861,-10.5657863996408,19.7988773700474,-127.947673580003,-5.31577916735232,10.4687971038341,0.0604854368931955,11.7579499306228,46.5959486995086,41.2983501849719,-1.59086926777504,9.28915409902925,1.87814193913983,-2.89345237638716,0.169361518758172,-19.5206924593525,1074.83116669409,0.218789648329013,-0.205793259867971,-25.712286644007,-76.3926523964088,-84.4323046514694,-0.0264120531589039,-1.72229891507352,-3.47833924574426,-3.62356858332996,-54.3357101290913,-103.9013707668,-132.99893472008,-0.0817424373674771,0.585456334756074,-1.25625390916822,-1.50067707414705,5.17585650814548,9.46662333388185,0.670946190554556,-4.99498412350147,10.8589114593174,164.849286014664,-7.15931051505677,6.61797762053644,1.11726345236137,56.5322842451908,-68.8787575903477,-70.7414294333827,-7.31958642523011,6.81205325646877,-3.02844893785219,52.7589088579297,-13.5953033672306,65.9511341724581,3.39641270363666,0,0
49.68,-20.4266550356137,56.6864586440242,67.3408209314364,0.446467523479205,9.85322552952692,10.5075504258508,10.6100071012811,-28.6839130619291,96.0848374722211,94.7296481613466,0.20564952686364,7.34322448168492,9.17344824960206,9.22562265509466,0.70918596758271,8.68558129011024,2.05031440266576,-10.7362002450039,21.7826010387273,-126.086434862678,-5.08931514316275,10.2509602805661,-0.0667657766990321,12.0188961313351,48.9524526549203,41.6924322023741,-1.69521396321618,9.26539255230172,1.71852553026009,-2.81041556957454,0.403374345553832,-20.0944012877226,1065.77260572651,0.219443332805116,-0.205182348957915,-26.3439774146056,-75.3094128422269,-81.7269502076656,-0.0291990038913478,-1.61339797988823,-3.41956051769462,-3.57548837951716,-55.1842484106452,-99.4136623968238,-128.009556236993,-0.0759652383075399,0.519312296317614,-1.04009986413014,-1.30860674429854,5.10683890077343,9.28545211453021,0.645064587790034,-6.14527757970244,15.5905583844774,162.724438380292,-7.42891054385387,6.12622716801051,1.12373385305249,56.3245923711545,-53.7625169633733,-61.1263607520361,-6.27665605748271,6.53311198735504,-2.68597105718501,61.5532617150158,-12.5384711309328,51.5253753708404,1.6709725193352,0,0
49.685,-19.9177967172593,54.781145631358,66.2748192460389,0.430881522955779,9.86555055293456,10.5565947920635,10.6751899156332,-27.8507978957482,95.6306267986812,94.9235756894549,0.172093764004857,7.04887359230064,9.37762598823973,9.45968107218995,0.543229662382454,8.45776407988906,2.09314685052645,-10.9231132557721,23.791116218328,-124.209726657498,-4.85550792520703,10.0398343762881,-0.191242177839395,12.231834800039,51.2457117188884,42.0426873582967,-1.79741511647947,9.2441661168392,1.56652616557567,-2.72797112757579,0.629130470586099,-20.6453621590192,1056.69359613295,0.220099595416015,-0.204560919524057,-26.9984436384693,-74.147476413847,-79.0432022370143,-0.0319227697401603,-1.50241959911336,-3.35164423569951,-3.51716720524476,-56.0572239516035,-94.8596605523965,-122.964111652342,-0.0701505098114422,0.449547389461431,-0.817810550214254,-1.10820660827157,5.03503128864243,9.10320942781131,0.618840634016567,-7.25138702110009,20.2741562336496,160.529567038466,-7.70747330160752,5.63459699479145,1.12262974481957,56.06180796402,-38.8790084597531,-51.5582002981986,-5.22922228458478,6.28669715620049,-2.34389167201922,69.8694293695806,-11.2877646061464,37.8552761125766,0,0,0
49.69,-18.984550941065,51.3980987155642,63.668742846419,0.427125690242772,9.88608825585554,10.365457406297,10.4976350446621,-26.0472867633629,90.7440029207229,94.3361889523424,0.126964350907687,6.68227417848441,9.15655149380578,9.26741541461812,0.645390264923013,8.38703750889945,2.19268795043778,-11.6151793825109,26.5561467714201,-121.861876152767,-4.39709496508912,10.0345953710296,-0.230534717278067,10.9738267472287,51.5982126899844,41.0498635222741,-1.83380292299377,9.30062985654593,1.64808506378145,-2.6637932806833,0.60162568798272,-20.498670151678,1047.00143640474,0.220833876564181,-0.20361817926993,-28.3496442973687,-70.5764815034293,-77.0252548948443,-0.0327069869078152,-1.32796402487953,-3.00391247882944,-3.17765686526715,-57.6775215877541,-88.2815137161718,-116.208539496195,-0.0631946191869962,0.268964744064397,-0.407901560557722,-0.717846653256519,4.87786113088771,8.8884102122132,0.582167597207138,-7.00237257362865,23.4790045121459,156.192834907827,-8.26018835637826,5.14736950575185,0.889494010816751,54.1117337844708,-31.1466247726849,-43.4409761014017,-4.04536370408953,7.03703883233226,-2.01451924293416,63.5249936817853,-4.09984925160099,47.3535932058059,0,0,0
49.695,-18.0513496644786,48.015213112326,61.0627907113613,0.423370036617725,9.90662497948494,10.1743291344626,10.3173510579716,-24.2438616271217,85.8576120498159,93.7488302233711,0.0818370896993726,6.31569224509036,8.93548754078391,9.07351358742799,0.747545996177927,8.31631431033836,2.29222430396823,-12.3072125097206,29.3210454805988,-119.51413759971,-3.93870386330424,10.0293566155806,-0.269825383145337,9.71587867954387,51.9506968529089,40.0570870266977,-1.87018899444196,9.35709090391336,1.72964007304492,-2.59961849395898,0.57412221687956,-20.3519851389967,1037.30973882415,0.221568122699895,-0.202675483968132,-29.7007805274746,-67.0056568674209,-75.0074037736996,-0.0334911666819375,-1.15351676914533,-2.65619730272213,-2.83650026428317,-59.297741963861,-81.7036805432524,-109.453289463459,-0.0562390602376706,0.0883907093218252,0.0019878835623961,-0.325051611398002,4.7206984674186,8.67362123880543,0.54549630906435,-6.75336999981958,26.6836999750653,151.856309563957,-8.81287705624462,4.66016524899764,0.656369393337583,52.1617525895764,-23.4146097859641,-35.3241389551578,-2.86156157307838,7.78734473020367,-1.68516251919094,57.1808605133341,3.08772336427594,56.8514573943482,0,0,0
49.7,-17.1181038882843,44.6321661965322,58.4567143117414,0.419614203904718,9.92716268240592,9.98319174869614,10.1341902704398,-22.4403504947364,80.9709881718577,93.1614434862586,0.0367076766022022,5.94909283127413,8.71441304634996,8.87740147926699,0.849706598718487,8.24558773934874,2.39176540387956,-12.9992786364594,32.086076033691,-117.166287094979,-3.48029090318632,10.0241176103221,-0.309117922584009,8.45787062673351,52.3031978240049,39.0642631906751,-1.90657680095626,9.41355464362009,1.8111989712507,-2.53544064706649,0.546617434276181,-20.2052931316555,1027.61757909594,0.222302403848061,-0.201732743714005,-31.051981186374,-63.4346619570032,-72.9894564315296,-0.0342753838495925,-0.979061194911495,-2.30846554585206,-2.49337369170035,-60.9180396000115,-75.1255337070277,-102.697717307312,-0.0492831696132245,-0.0921919360752094,0.411896873218928,0.070298219026995,4.56352830966388,8.45882202320732,0.508823272254921,-6.50435555234814,29.8885482535616,147.519577433318,-9.36559211101536,4.17293775995804,0.423233659334764,50.2116784100271,-15.6822260988959,-27.2069147583609,-1.67770299258313,8.53768640633543,-1.35579009010588,50.8364248255388,10.2756387188213,66.3497744875775,0,0,0
49.705,-16.2998560233507,42.141882710413,55.8430223203827,0.415904161262077,9.92607769645954,9.83451646146719,9.99055072688818,-20.882892409834,76.8352280534081,92.1627488564252,-0.00319052858202078,5.57107736855191,8.4523293164385,8.63757168846134,1.00932235343406,8.18529941609279,2.45354795632481,-13.7056991967922,34.7750177712996,-114.975697848792,-3.07945746380038,10.0470283574664,-0.348813594825983,7.28778611469121,52.4431465496202,38.1628090258483,-1.92222920660481,9.44104549803702,1.89148377402062,-2.42124823061738,0.566130088147937,-20.0509264950654,1017.3559215522,0.223125586231416,-0.200879265024124,-32.2244070683213,-60.4172396600794,-70.9596628107118,-0.0354154201379992,-0.799194863956773,-2.00365542633823,-2.19094274500194,-62.3199422482955,-69.4495268965525,-96.0847333964465,-0.0419464263823347,-0.272676933077672,0.710304756204942,0.356725846840481,4.42119766437118,8.27648582126681,0.481175145976818,-6.33838332410424,32.638809609012,143.432863278822,-9.67132151554032,3.71067764656596,0.231773978162404,49.2179836177549,-10.1925112600054,-20.1184459139911,-0.747246146202087,9.12741947174072,-1.09691894054413,45.8499984741211,15.9250001907349,73.8150024414062,0,0,0
49.71,-15.9037766796836,42.9298811600871,53.2007783034845,0.412361464360793,9.84557919322561,9.84175786205181,9.99987273532175,-20.2287620708265,75.4562307664784,89.6532283151949,-0.0238850568892543,5.15105015235816,8.03957327990816,8.24391807175874,1.37998821711921,8.16333403157812,2.37666911052344,-14.4649964392748,37.1851085722155,-113.362191208516,-2.89000602236129,10.1733293184258,-0.38999869079101,6.44035615656328,51.8024895012754,37.5967258138188,-1.86173055163289,9.36213426302048,1.96710711728374,-2.12334272539415,0.758327215743744,-19.8683389849132,1005.00039276269,0.224275458062632,-0.200353425568817,-32.7405111537847,-59.4322415979868,-68.8859092958271,-0.0378625211776625,-0.599416463179993,-1.85641494551057,-2.04362059909352,-62.9200617677121,-67.0855294527479,-89.9939573873346,-0.0332092976222012,-0.452843513526944,0.5992709428079,0.236294520438404,4.33333612631248,8.21333534078711,0.486666492105482,-6.47736183723722,33.7201302355833,140.263475235423,-9.07001911445106,3.3400117828808,0.193334555261725,51.7365454533112,-12.9381843243399,-16.8066896376271,-0.747246146202087,9.12741947174072,-1.09691894054413,45.8499984741211,15.9250001907349,73.8150024414062,0,0,0
49.715,-15.5077162221192,43.7178420359271,50.5586602757154,0.408818936384595,9.76508452837157,9.84899891734744,10.0062852675918,-19.5746629224702,74.0772992337584,87.1438274344902,-0.0445785984270664,4.73104296416442,7.62683692466891,7.84677391218442,1.75063640648319,8.14136969443063,2.2997939305072,-15.2242574764722,39.5950844536768,-111.748761504472,-2.70056361446415,10.2996242570239,-0.431181822942574,5.59296660611979,51.1618630011402,37.0306695941226,-1.80123478139562,9.28322679069873,2.04272685462739,-1.82545142508724,0.950515178876094,-19.6857601810128,992.645453117227,0.225425275064942,-0.199827611186914,-33.2565906300507,-58.4472905031868,-66.8122546629523,-0.040309505533126,-0.399647588361671,-1.70918148549547,-1.89366663071117,-63.5201526718551,-64.7216447305456,-83.9034718024077,-0.0244725854712972,-0.633001503160821,0.488242423794484,0.118413128365229,4.2454787777225,8.15018787148806,0.492157576392351,-6.61633372350996,34.8013993019492,137.094238316765,-8.46874538503837,2.9693635935168,0.154896965253611,54.2549871972292,-15.6837264677768,-13.4950912744939,-0.747246146202087,9.12741947174072,-1.09691894054413,45.8499984741211,15.9250001907349,73.8150024414062,0,0,0
49.72,-15.1116368784521,44.5058404856012,47.9164162588172,0.405276239483311,9.68458602513763,9.85624031793206,10.0098952161122,-18.9205325834626,72.6983019468287,84.6343068932599,-0.0652731267342999,4.31101574797068,7.21408088813857,7.44584044620601,2.12130227016834,8.11940430991596,2.22291508470582,-15.9835547189549,42.0051752545926,-110.135254864196,-2.51111217302506,10.4259252179833,-0.472366918907601,4.74553664799187,50.5212059527954,36.4645863820931,-1.74073612642371,9.20431555568218,2.11835019789051,-1.52754591986401,1.1427123064719,-19.5031726708607,980.289924327721,0.226575146896158,-0.199301771731607,-33.772694715514,-57.4622924410942,-64.7385011480676,-0.0427566065727894,-0.19986918758489,-1.56194100466781,-1.74096250505102,-64.1202721912717,-62.3576472867409,-77.8126957932957,-0.0157354567111637,-0.813168083610093,0.377208610397442,0.00299015891725084,4.1576172396638,8.08703739100836,0.497648922521015,-6.75531223664294,35.8827199285204,133.924850273366,-7.86744298394911,2.59869772983164,0.116457542352932,56.7735490327855,-18.4293995321114,-10.1833349981299,-0.747246146202087,9.12741947174072,-1.09691894054413,45.8499984741211,15.9250001907349,73.8150024414062,0,0,0
