time,hip_angle_l,hip_angle_l_velocity,hip_angle_l_velocity_filt,hip_angle_l_torque_estimated,hip_angle_l_torque_desired,hip_angle_l_torque_measured,hip_angle_l_torque_interaction,knee_angle_l,knee_angle_l_velocity,knee_angle_l_velocity_filt,knee_angle_l_torque_estimated,knee_angle_l_torque_desired,knee_angle_l_torque_measured,knee_angle_l_torque_interaction,thigh_imu_l_accel_x,thigh_imu_l_accel_y,thigh_imu_l_accel_z,thigh_imu_l_gyro_x,thigh_imu_l_gyro_y,thigh_imu_l_gyro_z,shank_imu_l_accel_x,shank_imu_l_accel_y,shank_imu_l_accel_z,shank_imu_l_gyro_x,shank_imu_l_gyro_y,shank_imu_l_gyro_z,foot_imu_l_accel_x,foot_imu_l_accel_y,foot_imu_l_accel_z,foot_imu_l_gyro_x,foot_imu_l_gyro_y,foot_imu_l_gyro_z,insole_l_force_y,insole_l_cop_x,insole_l_cop_z,hip_angle_r,hip_angle_r_velocity,hip_angle_r_velocity_filt,hip_angle_r_torque_estimated,hip_angle_r_torque_desired,hip_angle_r_torque_measured,hip_angle_r_torque_interaction,knee_angle_r,knee_angle_r_velocity,knee_angle_r_velocity_filt,knee_angle_r_torque_estimated,knee_angle_r_torque_desired,knee_angle_r_torque_measured,knee_angle_r_torque_interaction,thigh_imu_r_accel_x,thigh_imu_r_accel_y,thigh_imu_r_accel_z,thigh_imu_r_gyro_x,thigh_imu_r_gyro_y,thigh_imu_r_gyro_z,shank_imu_r_accel_x,shank_imu_r_accel_y,shank_imu_r_accel_z,shank_imu_r_gyro_x,shank_imu_r_gyro_y,shank_imu_r_gyro_z,foot_imu_r_accel_x,foot_imu_r_accel_y,foot_imu_r_accel_z,foot_imu_r_gyro_x,foot_imu_r_gyro_y,foot_imu_r_gyro_z,insole_r_force_y,insole_r_cop_x,insole_r_cop_z
65,9.34515532973541,50.5400766488193,45.2473488574421,-0.165419849765351,-0.265126155454157,5.45765030459325,5.65777913298349,-3.63146370903386,1.69950302502732,12.0788805906736,-0.351173741264812,-2.72413137392147,0.344300667063045,0.598273560337394,-0.102663520608803,5.88932572327444,0.687635780031027,12.1807820688348,44.7191093622515,-106.568580151125,1.24001849371849,8.79898603405393,1.41870522713261,-10.8385097112361,-5.35228473660686,-84.7910451247257,2.07681512140086,9.58763172033376,1.33904067965928,2.70438698315589,5.24474437483653,-15.169053777663,651.050613268712,0.115274756178828,-0.0561344376247196,-34.9111591666762,6.88481768017416,-17.083687445497,0.335470800911789,-2.29049854275967,-4.26486634380003,-4.55469762821727,-26.5138318251217,247.022348001443,215.926210418794,-0.276397098825868,0.170685858705562,1.51920502067684,1.52714669467092,3.08823608188254,3.64609718767936,-0.66786110579684,32.49519312906,23.1116903027779,-11.8223815720999,-4.57099377165573,7.1984227196395,1.04294602810194,-53.7715187287281,29.9558714735114,400,-11.7655579899605,28.3805848533517,-1.52978643085661,35.5674203808174,102.039391349399,458.977215107669,0,0,0
65.005,9.79335372658993,46.8618480196728,46.656590300687,-0.182414927988538,-0.520680121241853,5.29697225320538,5.49976449272939,-3.58761810278529,-1.01918777248916,10.3888913803093,-0.363746663203439,-2.86196802349783,0.124837949546792,0.379363736361821,-0.552905001806864,5.0891440809472,0.857033565036233,13.7300178218877,42.9634922921845,-101.538379517767,1.42724762451372,9.3807336904534,1.56804274812404,-11.1659680675652,-2.29508949390403,-88.1701952219706,1.69619409890589,9.56574462833214,1.30487555101347,4.93553406986516,6.87519804833755,-14.0300766418492,681.363901111749,0.131341245732079,-0.0606096014397481,-34.857570375794,10.0832774200764,-12.0005517137137,0.359325479745465,-2.21338267669197,-4.05128205161849,-4.31836254130307,-24.3166803455087,249.90096038036,224.164345219948,-0.295347764720561,-0.00599411935315478,1.52312399753996,1.72469986761997,3.30889898603406,3.90688061985844,-0.707981633824391,32.93272152113,23.0236342741852,-17.0066802554952,-4.99003039772125,8.10336351848311,0.737584231447818,-57.3625536447742,32.5590278187831,400,-12.0121875057298,30.1251424920956,-2.93429388495004,34.7716966429589,95.8608297610712,451.776696418344,0,0,0
65.01,10.1122140789806,39.887100627886,46.8422934883639,-0.195630093571238,-0.68985698251705,4.92714915912961,5.12658987869909,-3.62602911123813,-4.39112599534524,8.17480086898479,-0.37951130852074,-2.97524796961555,-0.140089931746008,0.109510396866086,-0.94291503580554,4.76671394590783,1.18700076771083,14.7610961872848,36.3186862309407,-96.3502806161015,1.64195011138098,9.92390022276198,1.70954793158561,-10.4326107280326,-3.47411434742946,-92.3213301021424,1.48730719089508,9.55373287200928,1.28612554073334,6.15999984741211,7.76999998092651,-13.4049997329712,698,0.140158623456955,-0.0630655959248543,-34.6849914644131,13.8039658438174,-6.79185331951046,0.389267106309621,-2.08274496326706,-3.81680220665359,-4.05638657646181,-21.7807022530726,250.113555021946,231.056103089984,-0.314361275372935,-0.231914283279274,1.49909984014801,1.89855173298188,3.66461885044742,4.23936242244234,-0.631150433567855,32.7346843552464,22.4533452910395,-22.5513580837341,-5.04731099840167,8.88463911297937,0.860593906137904,-60.7227850703315,35.424156275535,400,-13.1575630940586,30.9045773160772,-4.59503456736583,27.5489168554912,99.2394096472163,447.708296952697,0,0,0
65.015,10.273738447636,28.903829544687,45.5398969733544,-0.204246693187019,-0.75396322425345,4.30300074821976,4.49306663926903,-3.76447741944687,-8.55719426998307,5.32352682366033,-0.399156095412578,-3.0586498242135,-0.460285026609873,-0.220914193659159,-1.2596297368388,5.025364285085,1.71221931359099,15.1618771361232,23.7282993503591,-90.9706924329131,1.89004329385705,10.4200865877141,1.84151239034947,-8.40915569365337,-9.80514998639686,-97.4109223142201,1.48730719089508,9.55373287200928,1.28612554073334,6.15999984741211,7.76999998092651,-13.4049997329712,698,0.140158623456955,-0.0630655959248543,-34.3677137558318,18.1594010956125,-1.43099472416633,0.426608578567903,-1.88702722199469,-3.55693374950028,-3.76504395904142,-18.8329076638714,247.083688421475,236.309654909284,-0.333449209232061,-0.51769700442657,1.44109348810486,2.03835095324166,4.18455881797702,4.6590094013114,-0.412089432019837,31.7636866092803,21.2966197882945,-28.5337468810291,-4.66461406798647,9.51542922587062,1.50458046490554,-63.8019557748216,38.607595194357,400,-15.3958820590651,30.5101372684616,-6.56723329523015,12.5102472555788,114.241128352955,447.44964371391,0,0,0
65.02,10.4352705185645,17.9200347253246,44.2374383536997,-0.212863703684475,-0.818072522889461,3.67882257485649,3.85370804267524,-3.90293232954909,-12.7234612031624,2.47211681562328,-0.418801819064079,-3.14205565582039,-0.780495389944238,-0.556234801352377,-1.57635954038034,5.28402695797726,2.23746290446404,15.5626771961603,11.1373120984609,-85.5908477246098,2.13814830663127,10.9162966132625,1.97348314182512,-6.38560417102687,-16.1364875201542,-102.500757222984,1.48730719089508,9.55373287200928,1.28612554073334,6.15999984741211,7.76999998092651,-13.4049997329712,698,0.140158623456955,-0.0630655959248543,-34.0504209178952,22.5150440358941,3.93011950317415,0.463951831450487,-1.69130014794174,-3.29705290054605,-3.47058973987684,-15.8849725093853,244.053677342124,241.563457243667,-0.352538053297369,-0.80349335309383,1.38308437003471,2.17363952393314,4.70452357879103,5.07867639100393,-0.193017984570262,30.7926425613854,20.1398391272118,-34.5164209479248,-4.2818988887071,10.1462494179242,2.14859773210667,-66.8812733092532,41.7911859151397,400,-17.6343077580835,30.1156784120126,-8.53952606719003,-2.52913946176242,129.243562414124,447.19097814127,0,0,0
65.025,10.59679488722,6.93676364212553,42.9350418386903,-0.221480303300256,-0.882178764625861,3.05467416394664,3.2090193212465,-4.04138063775783,-16.8895294778003,-0.37915722970119,-0.438446605955917,-3.22545751041834,-1.1006904848081,-0.895754791290809,-1.8930742414136,5.54267729715443,2.76268145034421,15.9634581449987,-1.45307478212067,-80.2112595414213,2.38624148910734,11.4124829782146,2.10544760058898,-4.36214913664769,-22.4675231591216,-107.590349435062,1.48730719089508,9.55373287200928,1.28612554073334,6.15999984741211,7.76999998092651,-13.4049997329712,698,0.140158623456955,-0.0630655959248543,-33.7331432093139,26.8704792876892,9.29097809851828,0.501293303708769,-1.49558240666937,-3.03718444339274,-3.17401279441708,-12.937177920184,241.023810741653,246.817009062967,-0.371625987156495,-1.08927607424113,1.32507801799157,2.29999431937408,5.22446354632063,5.498323369873,0.0260430169777554,29.8216448154192,18.9831136244668,-40.4988097452198,-3.89920195829189,10.7770395308154,2.7925842908743,-69.9604440137433,44.9746248339617,400,-19.87262672309,29.721238364397,-10.5117247950544,-17.5678090616748,144.245281119863,446.932324902483,0,0,0
65.03,10.5645907538329,1.28741535417781,38.2524156590542,-0.234787819257142,-0.915706162301738,2.25247439752149,2.3815867207169,-4.52574110420642,-23.3434020322073,-4.33219376707424,-0.449200920383404,-3.29858069356055,-1.50215342836835,-1.31986399412,-1.6320286693674,6.21983639763165,2.94,15.4707824059647,-3.51244378272527,-75.8742220632044,2.47360756206505,11.0550997195388,1.70266230393683,-3.69682746698776,-29.0809875004328,-111.972002610969,1.48730719089508,9.55373287200928,1.28612554073334,6.15999984741211,7.76999998092651,-13.4049997329712,698,0.140158623456955,-0.0630655959248543,-33.2514887679843,28.7291728507399,13.6485844024431,0.52505694199914,-1.23364133769766,-2.79880505296886,-2.89780997178943,-9.39905467247534,224.341110568682,245.850617271891,-0.383003509504138,-1.38664556683764,1.20083559895213,2.3468963300926,5.71385789965719,5.94123143242961,0.370567154876931,26.5097943412752,23.1755325492731,-44.7966271558772,-3.52468577957826,11.408477199543,3.55474187181883,-70.4388236787738,53.2622799559367,399.910924393456,-21.9420431822993,28.8558166384437,-11.5145241086129,-28.0996339147529,158.615703244763,433.820802697514,0,0,0
65.035,10.4336560135981,-1.64311471186757,31.8474065684351,-0.250485083283353,-0.933646765898563,1.35958924401875,1.45965064735322,-5.18635939673272,-30.9627799442454,-8.8464544195615,-0.455423468372506,-3.36646013087136,-1.94500529402957,-1.78758796115947,-1.07654876908693,7.11023800249298,2.94,14.5227956480424,-0.20457509550684,-72.0688284108353,2.47905344344034,10.2627239794328,1.02737301339981,-3.72372070834726,-35.8379143920071,-115.992542194215,1.48730719089508,9.55373287200928,1.28612554073334,6.15999984741211,7.76999998092651,-13.4049997329712,698,0.140158623456955,-0.0630655959248543,-32.68609508008,29.3152786042691,17.4945736728556,0.541898983101841,-0.937968680830592,-2.57139463546715,-2.63250625015896,-5.56032756794368,200.701501455809,241.714326663533,-0.390450633707262,-1.68989880348597,1.04284518740516,2.34284218924124,6.18764957930818,6.39596252726706,0.779008258024329,22.0051764135591,30.0938188890043,-48.2356003947232,-3.15436584605796,12.0401994390776,4.37706995948892,-69.5916865759496,64.150681051364,399.776458186659,-23.9252302175595,27.7504233561338,-12.0232008586386,-36.3338059725216,172.663353255175,414.159813118635,0,0,0
65.04,10.3027150297536,-4.5737845199408,25.4420920556095,-0.266183095832001,-0.951588224991244,0.466661513378371,0.534912930564654,-5.84700919077505,-38.5825211855436,-13.3609303341084,-0.461646313083175,-3.43434280500622,-2.38787827703692,-2.25629489675757,-0.521042380803974,8.00068206606418,2.94,13.5747636854679,3.10345132709318,-68.2632532986572,2.48449958450194,9.4703104549704,0.352051521761717,-3.75061523210824,-42.5951634869522,-120.01327349648,1.48730719089508,9.55373287200928,1.28612554073334,6.15999984741211,7.76999998092651,-13.4049997329712,698,0.140158623456955,-0.0630655959248543,-32.1206744314352,29.9014123061915,21.340746338875,0.558741827315557,-0.642281924842983,-2.34397337392284,-2.36815961995089,-1.72141741410085,177.060765090583,237.577838816579,-0.397898113025745,-1.99316650073401,0.884847242101505,2.31800451747137,6.66146385166717,6.85071530591046,1.18746883764415,17.5003436835957,37.0124351265153,-51.674737620658,-2.78402825386934,12.6719518022229,5.19943725979015,-68.7445090774789,75.0396013590891,399.641985567854,-25.9085118208915,26.6449773632577,-12.5319018648633,-44.5683706759465,186.711673126348,394.497886007469,0,0,0
65.045,10.1717802895189,-7.50431458598619,19.0370829649904,-0.281880359858213,-0.969528828588069,-0.426223640124369,-0.391327423057556,-6.50762748330135,-46.2018990975817,-17.8751909865956,-0.467868861072277,-3.50222224231703,-2.83073014269814,-2.72455177635629,0.0344375194764929,8.8910836709255,2.94,12.6267769275456,6.41132001431161,-64.457859646288,2.48994546587723,8.67793471486446,-0.323237768775304,-3.77750847346775,-49.3520903785264,-124.033813079726,1.48730719089508,9.55373287200928,1.28612554073334,6.15999984741211,7.76999998092651,-13.4049997329712,698,0.140158623456955,-0.0630655959248543,-31.5552807435309,30.4875180597207,25.1867356092875,0.575583868418258,-0.346609267975915,-2.11656295642113,-2.10579029692072,2.11730969043081,153.42115597771,233.441548208222,-0.405345237228869,-2.29641973738234,0.726856830554538,2.26937730958269,7.13525553131815,7.3054464007479,1.59590994079155,12.9957257558795,43.9307214662466,-55.1137108595039,-2.41370832034904,13.3036740417576,6.02176534746024,-67.8973719746546,85.9280024545164,399.507519361056,-27.8916988561517,25.5395840809478,-13.040578614889,-52.8025427337152,200.75932313676,374.836896428589,0,0,0
65.05,10.1418955430943,-4.90729483183927,13.6740826024658,-0.323642387243673,-1.02369640512409,-0.575378014787506,-0.57404959834203,-6.98285493725708,-46.6533941532443,-22.9024763702787,-0.47528520607663,-3.59839827150038,-2.95009361158676,-2.86742204019256,0.518477464203424,9.36540430944374,2.49289810721977,12.7625412257246,17.5259605654071,-61.985886743511,2.72270215472188,8.46082952384552,-0.93397974989609,-5.06249767761556,-43.199513772381,-129.70682840879,-0.0725800663622,9.78730909048558,1.30178077122555,5.40960079412994,9.27079821216618,-14.9515539310645,768.595035702142,0.154545017640372,-0.060068410989457,-31.2524488814002,30.1181923086358,26.8403316811971,0.578543660756627,-0.015521328787072,-1.93039958555115,-1.88756302811615,2.91581592461477,115.477326207898,214.945187494207,-0.419086599017457,-2.53501202835862,0.716080435553497,2.34179794153074,8.22768647600337,7.33353167856738,1.42481972622063,10.3650377870409,42.644265432332,-52.268826161577,-1.80863488105585,12.7138641429597,6.20518027377937,-56.171468696901,61.8468588225033,356.774710442389,-27.9115581512451,25.5285148620605,-13.045672416687,-52.8849983215332,200.899993896484,374.640014648438,0,0,0
65.055,10.1130343196177,-2.2544910278664,8.32188008375496,-0.365666038667187,-1.07822779520123,-0.717002641934461,-0.748044489395228,-7.45618434172078,-47.0323669617778,-27.9347086718005,-0.482713268691435,-3.69485587800114,-3.06617936509193,-3.0036219955362,1.00177150629039,9.83549359628244,2.04129547772867,12.9092607284832,28.7190284091943,-59.527519963955,2.95774679814122,8.24955343987307,-1.54403944236653,-6.36015016868089,-36.9166586209164,-135.396284682431,-1.64816987813093,10.0232365963938,1.31759359458805,4.65164787310207,10.7867041801523,-16.5136764668613,839.900714042843,0.169076231994502,-0.0570410549890613,-30.9522873215177,29.7392205075451,28.4716728562875,0.581362896692295,0.315908876144396,-1.74466237994288,-1.6734872370429,3.68353298198497,77.3906420643173,196.304470824048,-0.432890962854554,-2.77293880585441,0.706793575273084,2.38790637218781,9.32632211266009,7.35730023801427,1.2478760058937,7.75343063793705,41.2748834065846,-49.3605195735612,-1.20121613963506,12.1117273036382,6.38212399410629,-44.3360954743705,37.4131709630973,313.613093164191,-27.9115581512451,25.5285148620605,-13.045672416687,-52.8849983215332,200.899993896484,374.640014648438,0,0,0
65.06,10.0841717198966,0.398439274785777,2.96942234581192,-0.40769169398424,-1.13276178560215,-0.858634022437343,-0.919406020446648,-7.92953631684893,-47.4113578415911,-32.9671809348073,-0.490141685512649,-3.79131808407304,-3.18227065413444,-3.1349721554862,1.48508859420455,10.3056052992809,1.58967131361216,13.0559872275464,39.912629993282,-57.0690359574295,3.19280264964046,8.03826728122207,-2.15412822547129,-7.65786453817314,-30.6335038721436,-141.086012257215,-3.22383482173943,10.2591753524811,1.33340717198343,3.89365880916633,12.3026824339601,-18.0758734923122,911.209792587555,0.18360813926811,-0.0540135546295029,-30.6521114484617,29.3602306352227,30.1030918217158,0.584182267062943,0.647354885291445,-1.55891631747487,-1.46383519589419,4.45128664786489,39.3021417610808,177.662865273212,-0.446695984951336,-3.01087692886436,0.697506272149683,2.40536404143832,10.4250101376453,7.3810699308625,1.07092384802348,5.14169895461217,39.9054360819948,-46.4520743032419,-0.593768433513434,11.5095617514828,6.55907615197651,-32.5001578832727,12.9783179857733,270.449417728667,-27.9115581512451,25.5285148620605,-13.045672416687,-52.8849983215332,200.899993896484,374.640014648438,0,0,0
65.065,10.0732175420884,2.90617730949487,-1.41457294397922,-0.448612595470935,-1.19033479442103,-0.975783938141964,-1.06221846755467,-8.40998305467126,-48.1871328417336,-37.6936019648826,-0.498682143376766,-3.89903220582527,-3.28150020588027,-3.24323232721854,1.82376057355065,10.6100903909635,1.33569011759853,13.6927272374156,49.3905421006248,-54.8046152068098,3.28972302455126,7.99275466783578,-2.59926526717556,-8.76407434788476,-25.6112806508799,-145.618643134228,-3.95792475785451,10.4150390640617,1.41363417019033,3.13008861362393,13.5716527911813,-19.8825794504873,977.798354652362,0.196626647417027,-0.0509909503479425,-30.3625201987433,28.2289950736582,31.2508888723546,0.589615060307372,0.992786644854928,-1.3417871817664,-1.22779657238177,4.90751467480718,1.30647604859488,155.996568471448,-0.461728916564181,-3.23916481083965,0.608325887323102,2.31423897456552,11.3115598566123,7.57174644109756,0.956972998762128,5.28331400739161,39.2225698981424,-42.2363433726347,0.335880183618721,11.4142276150196,5.84677248813698,-19.0060375260757,-13.1768199497207,221.308582914976,-29.2175503045425,24.7518542673825,-13.3706543197552,-55.5803715633761,202.221671373396,372.817409715678,0,0,0
65.07,10.1323255588484,4.84645375574043,-2.01059076510247,-0.485220852878652,-1.25981111985401,-0.99718021712959,-1.10384568805933,-8.91829982605083,-50.5154644482795,-41.2237378529122,-0.511575341919363,-4.05079346035207,-3.31478328145433,-3.27809235502955,1.59660356921807,10.2666506344131,1.85490612750155,16.2467411750173,52.1582251781043,-53.2989154867335,2.84622601609243,8.59580242933774,-2.39915076335876,-9.12130244111795,-25.5211389824939,-145.62532029485,-1.39961561099485,10.2576543498659,1.74589049174985,2.34450398137736,13.8745287660104,-22.6463233333089,1025.93400557046,0.203727194996159,-0.0479867934054411,-30.1142723052527,24.1544147622027,30.5068364444819,0.60527386002431,1.39301705403538,-1.00182431019525,-0.874325847986927,4.14503925984044,-36.334884751967,122.491419580243,-0.481569432545477,-3.42975064599397,0.206551585656197,1.88259009574447,11.3683491076955,8.41547245718999,1.08948125128947,16.1971330427119,41.2257180844967,-32.9050114045343,2.52632272539715,13.3017941510212,1.65518490819062,0.978704213118963,-46.0685131696582,148.771248506776,-35.6334011920929,20.9364113084724,-14.9671688363039,-68.8217319821928,208.714578388105,363.86363350349,0,0,0
65.075,10.191430757183,6.78663768451288,-2.60658016653179,-0.521827364708579,-1.32928413247346,-1.01857547588648,-1.13878779938369,-9.42659235955268,-52.8436850338639,-44.753705414798,-0.524467925680415,-4.20254747850395,-3.348064770004,-3.30447443644377,1.36945739632761,9.92322725397155,2.37409737982256,18.8006333305315,54.925776285191,-51.7932875623715,2.40275015473489,9.19882143593977,-2.1990458015267,-9.47851350077813,-25.4310016122993,-145.631997137086,1.15857154897053,10.1002771401863,2.07813097045597,1.55895680786778,14.1773902989182,-25.409935433569,1074.06736125438,0.210827404002547,-0.044982779709027,-29.8660362488731,20.08002873743,29.7628194949818,0.620931913088583,1.79322837917954,-0.661877648946039,-0.526509606754415,3.38260020170257,-73.974450713658,88.9878683024707,-0.501409002478899,-3.62032739351548,-0.195203558357568,1.42454728661251,11.4251356509181,9.25915824221166,1.22198318547556,27.1104316784978,43.2287707554883,-23.5741243788318,4.71666082112647,15.1892706828966,-2.53620280585931,20.9624930273785,-78.9586380273403,76.2373728690523,-42.048946155035,17.1211502798961,-16.5636072268505,-82.0624610181934,215.207175803967,354.91028423085,0,0,0
65.08,10.250538773943,8.72691413075845,-3.20259798765504,-0.558435622116296,-1.39876045790645,-1.0399717548741,-1.16595176659393,-9.93490913093225,-55.1720166404099,-48.2838413028277,-0.537361124223012,-4.35430873303074,-3.38134784557806,-3.32161258818303,1.14230039199503,9.57978749742111,2.89331338972559,21.3546472681333,57.6934593626706,-50.2875878422952,1.95925314627605,9.80186919744174,-1.9989312977099,-9.83574159401132,-25.3408599439134,-145.638674297707,3.71688069583018,9.94289242599043,2.4103872920155,0.773372175621204,14.4802662737472,-28.1736793163906,1122.20301217248,0.217927951581679,-0.0419786227665256,-29.6177883553825,16.0054484259745,29.0187670671092,0.636590712805522,2.19345878835999,-0.321914777374892,-0.184379638901177,2.62012478673583,-111.61581151422,55.4827194112664,-0.521249518460194,-3.8109132286698,-0.596977860024474,0.942274367508531,11.4819249020012,10.1028842583041,1.3544914380029,38.0242507138181,45.2319189418426,-14.2427924107313,6.9071033629049,17.0768372188983,-6.72779038580567,40.9472347665732,-111.850331247278,3.70003846085269,-48.4647970425854,13.305707320986,-18.1601217433992,-95.3038214370101,221.700082818675,345.956508018662,0,0,0
65.085,10.3366037896571,10.3392384890276,-2.38949822799696,-0.578364678236137,-1.47636665504117,-1.07112679486067,-1.19420024118341,-10.5073775022806,-58.9354947581125,-51.2455163371011,-0.538362526602348,-4.50778811894761,-3.43438395932147,-3.34878713589679,1.15223481225319,9.28256370637434,3.4282792534275,21.7102355014045,60.9962299548872,-47.5348601243924,1.62036592843304,10.9153322051358,-1.83238074215778,-9.64310471738591,-22.9315487464017,-147.727384044089,4.87948809993208,9.8056004197966,2.38746982632049,-1.06231218530675,13.6059584692345,-33.4040514099482,1163.55499963211,0.223871445267624,-0.0396762361908847,-29.4723241519748,11.93847385409,27.2002629253104,0.662254912210933,2.59277172861838,0.00619942901409204,0.140305402840804,1.39335598061552,-140.860952921882,21.0983202942804,-0.52503847438757,-3.97585006193905,-1.05282051203264,0.384511958431617,10.8208037181468,10.0466651951046,1.36668481593212,41.5173594363009,42.7320924371097,-4.4409914210354,8.14214333014496,17.3351077919211,-7.90534520393399,50.8159227254298,-113.956339116936,-57.3411220145987,-53.4348855014756,8.92730074600355,-14.9249522114415,-67.059890195257,196.519017474657,286.286365254458,0,0,0
65.09,10.4490204954481,11.6308479895699,-0.198746325525363,-0.581985568582846,-1.56191770797154,-1.11182146675495,-1.22265683442125,-11.1425394438308,-64.1019327602817,-53.6512673237209,-0.527737300353995,-4.66293999954585,-3.50673004268907,-3.38541829209259,1.39397248178941,9.03053932749615,3.97861820322272,19.9164111871418,64.8219968552174,-43.5630473506887,1.38377161356781,12.527773894489,-1.69865352071222,-8.91287535051792,-18.2549058881558,-151.851592511747,4.67746578730474,9.68795955296024,2.01730088475927,-3.92458902782587,11.5807625675349,-41.0457906516022,1198.27264366125,0.228683406707621,-0.0380600786207846,-29.427358254472,7.87912931974935,24.3313566045592,0.697700143402984,2.99116862140073,0.322713578236229,0.448063020166579,-0.287292876266397,-161.895736076283,-14.1440801427592,-0.513133677488595,-4.11570206233383,-1.56150392603948,-0.24425343932904,9.45781473033624,9.11057464498564,1.26124604517696,37.7550907417854,35.8298374650618,5.82031863860525,8.44302957839748,16.000407254801,-6.13603119711575,50.7936983533947,-85.9631550835656,-107.139589924705,-56.9912184791826,3.9986947539556,-6.96601091684792,1.74276547393002,140.371585247471,177.033796539879,0,0,0
65.095,10.5614425618182,12.9225190803798,1.99211004272767,-0.585606631591342,-1.64747284039517,-1.15251807917051,-1.24139631629441,-11.7777316730135,-69.2686171235211,-56.0571330283315,-0.517111567442811,-4.81809927854573,-3.57907957587229,-3.41242379398548,1.6357216785618,8.77850293086112,4.52898339587473,18.1225013345493,68.6479461868526,-39.5910451814972,1.14716601672675,14.1402924729601,-1.56491992249772,-8.18261116273692,-13.5780400246714,-155.975997641867,4.475433841264,9.57031307643114,1.64711429172977,-6.78700235772483,9.55547009457483,-48.687894288814,1232.9919431977,0.233495597605508,-0.0364438439843752,-29.3823902127751,3.81959121597789,21.4623134803022,0.733147064797275,3.38958451169836,0.639242820403349,0.750926750370327,-1.96802187471795,-182.931522272177,-49.3881611100757,-0.501228312910593,-4.25556073155702,-2.07021159656313,-0.887610834730733,8.09476074853455,8.17443945748411,1.15580224658475,33.9926426438702,28.9272533596882,16.0821180077714,8.74393017438012,14.6656430726216,-4.36663282073923,50.7714729215927,-57.968636198065,-156.940432469684,-60.5477210402655,-0.930146258167325,0.993309899051029,70.548701990748,84.2214756356963,67.7760181276839,0,0,0
65.1,10.6738592676092,14.2141285809221,4.18286194519926,-0.58922752193805,-1.73302389332555,-1.19321275106479,-1.25032181040178,-12.4128936145637,-74.4350551256903,-58.4628840149512,-0.506486341194458,-4.97325115914397,-3.65142565923989,-3.43039723430258,1.87745934809803,8.52647855198294,5.07932234566994,16.3286770202867,72.4737130871828,-35.6192324077935,0.910571701861521,15.7527341623133,-1.43119270105216,-7.45238179586893,-8.90139716642547,-160.100206109526,4.27341152863667,9.45267220959479,1.27694535016856,-9.64927920024395,7.53027419287518,-56.3296335304681,1267.70958722684,0.238307559045504,-0.034827686414275,-29.3374243152723,-0.239753318362727,18.5934071595511,0.768592295989326,3.78798140448071,0.955756969625486,1.04941625027013,-3.64867073159986,-203.966305426577,-84.6305615471153,-0.489323516011618,-4.3954127319518,-2.57889501056997,-1.54172352404261,6.73177176072399,7.23834890736516,1.05036347582959,30.2303739493547,22.0249983876404,26.3434280674121,9.04481642263265,13.3309425355014,-2.59731881392099,50.7492485495576,-29.975452164695,-206.73890037979,-64.1040540179725,-5.85875225021528,8.95225119364463,139.351357659935,28.074043408511,-41.476550586895,0,0,0
65.105,10.7947101532734,14.1280157449313,6.18842112042627,-0.588086055684212,-1.8698350841966,-1.23297688821677,-1.24872304319322,-13.2078329353037,-79.663974524215,-61.6733596817916,-0.494804808078123,-5.10731987423114,-3.76874988684619,-3.48529961581236,2.32117184472091,9.30388385322248,4.78023441895357,11.5502649030644,73.1950507695502,-34.0967675266273,1.40582584234543,16.1207812714884,-1.41722097893355,-7.16284997881549,-2.51193271577925,-167.055375969414,2.98447798660802,9.67972344155683,1.11159655974941,-14.1207807889288,7.81417972296188,-72.5768742527419,1295.88839157342,0.242633161453066,-0.0333550593940856,-29.3131360788996,-1.44539303299248,15.3984789441073,0.806820124575152,4.18378052202927,1.2931711380844,1.36510576506507,-5.60078012054128,-206.909801617123,-112.788612941706,-0.476443633753075,-4.5258644939805,-3.14067886425509,-2.25587761880321,6.27311383384383,6.51426342439207,0.608660748890405,27.970982213486,15.4308590268083,31.7620424199908,8.77646208664127,12.5966741263987,-1.60443083078079,50.4390570145483,-2.70661242810185,-233.542354932291,-59.7039905368533,-8.43539808223477,10.2266135939078,114.63981123429,0.434492579357188,-96.1914087828617,0,0,0
65.11,10.9207826663432,13.1874322039921,8.07896694788638,-0.583991015780581,-2.03842776272193,-1.27216082627664,-1.23748788808417,-14.1018063923859,-84.9312415533441,-65.3826857238751,-0.48246904520259,-5.22830223877459,-3.91396095142101,-3.56138709649582,2.89011689691818,10.7196918172157,3.9543464399575,4.92115033914538,71.9909342569633,-34.0935306542817,2.35494155154091,15.7170138150903,-1.47752391073327,-7.14666561708716,4.93934742393831,-175.765799451595,1.02153066088872,10.1205386659417,1.07329207728444,-19.5899944264881,9.53019143265695,-94.1600790236632,1320.00956429331,0.246656784880807,-0.031971565244856,-29.3016742139567,-0.881042950623347,12.0015954719903,0.84677079494471,4.57793789524112,1.64352164309032,1.69077462536278,-7.7211012710699,-198.632670857574,-136.55070387862,-0.46295998871762,-4.65047605472946,-3.73535274775198,-3.00611166798639,6.37536663124336,5.9217215727949,-0.0415621679064992,26.643864551764,9.02832552708573,34.1767491898558,8.15507970244423,12.2348565356004,-1.09316684378323,49.9502892903531,24.1108749557209,-246.081998399391,-50.3696292569103,-9.55313532258702,7.35503395723612,31.9317179243065,-9.52204593411161,-117.077199078518,0,0,0
65.115,11.0468611911679,12.2468038114226,9.96960292583179,-0.579895780605389,-2.20702848057197,-1.31134663281861,-1.21805355596535,-14.9958224785014,-90.1987597515652,-69.0921886447932,-0.470132694097461,-5.34929037234977,-4.05917894037066,-3.63247030905659,3.45908907920235,12.1355672938676,3.12841907857723,-1.70828033342671,70.7867603262031,-34.090293627586,3.30410251922235,15.3132271050822,-1.53782971807215,-7.13048048360919,12.3909828771907,-184.476638289432,-0.941510267773963,10.5613749105558,1.03498576827412,-25.0594688629429,11.2462849701957,-115.744312987507,1344.13188722886,0.250680600174622,-0.0305880051238487,-29.290211802456,-0.316665957277996,8.60455001983075,0.886723370357918,4.97211406380718,1.99388885452441,2.01430243441746,-9.84152352889672,-190.355145403888,-160.313927908421,-0.449475700715924,-4.775093557568,-4.33005498821246,-3.75602669325677,6.47762430455711,5.32915146589986,-0.691816090516993,25.3166836065713,2.62548672320507,36.5915711047673,7.53366768769146,11.8730216915672,-0.581878477214501,49.4614982593187,50.9296411286993,-258.622239818114,-41.0348228688999,-10.6709258621258,4.48331738958182,-50.7803193126864,-19.4790592241058,-137.963985310959,0,0,0
65.12,11.1729337042377,11.3062202704834,11.8601487532919,-0.575800740701757,-2.37562115909729,-1.35053057087849,-1.191577499806,-15.8897959355836,-95.4660267806943,-72.8015146868766,-0.457796931221929,-5.47027273689322,-4.20439000494549,-3.7005298402325,4.02803413139963,13.5513752578608,2.30253109958116,-8.33739489734572,69.5826438136163,-34.0870567552404,4.25321822841783,14.9094596486841,-1.59813264987186,-7.11429612188085,19.8422630169083,-193.187061771613,-2.90445759349326,11.0021901349407,0.99668128580915,-30.5286825005022,12.9622966798908,-137.327517758428,1368.25305994874,0.254704223602364,-0.0292045109746191,-29.2787499375131,0.247684125091133,5.20766654771376,0.926674040727476,5.36627143701903,2.34423935953033,2.33648238948506,-11.9618446794253,-182.07801464434,-184.076018845335,-0.435992055680469,-4.89970511831696,-4.92472887170936,-4.50235129316672,6.57987710195664,4.73660961430269,-1.3420390073139,23.9895659448492,-3.77704677651748,39.0062778746323,6.91228530349443,11.5112041007689,-0.0706144902169424,48.9727305351235,77.747128512522,-271.161883285215,-31.7004615889569,-11.788663102478,1.61173775291014,-133.48841262267,-29.4355977375746,-158.849775606616,0,0,0
65.125,11.1977442169189,11.1211175918579,12.5442490009035,-0.574920587313806,-2.58719449694883,-1.35824179649353,-1.12803440303293,-16.0657259559631,-96.5026016235352,-77.0295957973464,-0.425021637990144,-5.56353563894553,-4.23296689987183,-3.65118384965942,4.35859418010223,13.9448171451042,1.96556626032245,-10.0045270726225,67.8654864721846,-30.013845802809,4.78665945733385,14.8741604404247,-1.77118560755014,-7.96706038847864,21.3113679284213,-198.360469067836,-4.74925798667588,11.3179221247014,1.28264132321373,-28.807435624486,19.9229626393065,-170.763942305985,1364.16791191506,0.259232778384889,-0.0274867849820742,-29.2764942932129,0.358745723962784,3.17671798110992,0.944120278349216,5.7943955306738,2.41318678855896,2.37675318074987,-12.3791144990921,-180.449111938477,-193.032876073668,-0.400555393291768,-5.03539268485693,-5.04175806045532,-4.76466422004012,6.62208022021236,5.49879276445144,-1.07918010224147,25.5765912720953,-4.8898355689547,38.1784758936417,7.94921156114827,11.3472630751081,-0.151057805741276,42.0480306627246,112.702142895287,-272.318446182452,-19.1098317856213,-3.74096925325202,-0.745566396018533,-148.621245599852,-24.5556521495988,-168.94153756079,39.0819897758553,-0.0907936783766025,0.011434362056426
65.13,11.1977442169189,11.1211175918579,12.93273126049,-0.574828128601046,-2.80928547253866,-1.35824179649353,-1.05288381378876,-16.0657259559631,-96.5026016235352,-81.3845201305008,-0.387240635854409,-5.6500017772933,-4.23296689987183,-3.57492048680193,4.63073063311049,14.0877575042601,1.74840686852799,-10.4558819578962,66.0227368277965,-24.9437390464262,5.2182293878621,14.9291375016385,-1.97185188098046,-9.03266515521506,21.3147615741752,-202.667005529583,-6.56500304053098,11.6029901642524,1.64802871077944,-25.3246387756204,28.1681478876886,-207.102403160672,1353.1724996723,0.263884771763224,-0.0256872746564115,-29.2764942932129,0.358745723962784,1.48054200599432,0.956051927654669,6.23081600492663,2.41318678855896,2.34836604550903,-12.3791144990921,-180.449111938477,-198.361941294132,-0.35974237792269,-5.17378580131279,-5.04175806045532,-4.90124832338272,6.64956875081925,6.59283628260586,-0.592633110499418,27.877483093265,-4.70657869824208,36.5563132232595,9.39235941801024,11.2318112465592,-0.376463756717811,33.5469480491109,149.648764218406,-270.686102574808,-5.72216846692576,6.55176386061276,-2.97673387281516,-147.197341727735,-16.0410796728683,-176.388179495538,87.736688950059,-0.20382628325851,0.0256694470481333
65.135,11.1977442169189,11.1211175918579,13.3212320448135,-0.574735665479401,-3.03138703851404,-1.35824179649353,-0.975745998170091,-16.0657259559631,-96.5026016235352,-85.7396521277786,-0.349457832135435,-5.73647203877008,-4.23296689987183,-3.50285678283576,4.90288006291781,14.2307046795124,1.53123712151004,-10.9072583659817,64.1798993120791,-19.8733905225189,5.64981989775855,14.9841171844278,-2.1725277231616,-10.0983207352063,21.3181553817548,-206.973747348082,-8.38083467800412,11.8880717972438,2.01343352180553,-21.8416758499416,36.4137263068898,-243.442596811166,1342.17656311443,0.268536986971389,-0.0238876785212821,-29.2764942932129,0.358745723962784,-0.215714851099964,0.967984145919603,6.66725728984534,2.41318678855896,2.32100866753265,-12.3791144990921,-180.449111938477,-203.691260630529,-0.318927416389129,-5.31218551703031,-5.04175806045532,-5.02730886734035,6.67705859221392,7.68693197011406,-0.106062917813604,30.178484632227,-4.52331308894424,34.9340732002156,10.8355760912309,11.1163539127015,-0.601880456154171,25.0454600622382,186.597147337402,-269.053681129025,7.66613324113216,16.8449877824082,-5.20800774260576,-145.773369956907,-7.52610117961608,-183.835176522648,136.393708218639,-0.316864278088674,0.0399052108384191
65.14,11.2038890820003,10.6888733052702,13.5087528153313,-0.571987669083388,-3.25625475718901,-1.37095258044753,-0.911401114815429,-16.2518259864015,-97.5399880789169,-89.9005806404312,-0.313402336011215,-5.81070752910852,-4.25485769445926,-3.45944857369651,5.07819031189941,14.4118503253294,1.45361937620119,-11.0449586595417,61.5060197584607,-14.3295028768088,6.04172841364299,15.2380420033806,-2.42755435663507,-11.5439799985535,20.73342443871,-211.389993902486,-9.76838453020769,12.2188076508347,2.28663619784329,-17.6642564427793,44.5235743610863,-277.69467334269,1327.57805589645,0.273004236699219,-0.0221245520823179,-29.2475260375069,1.28086684993125,-1.46422665554893,0.975377856763322,7.08468199312857,2.46791377502756,2.35007009638844,-12.5309791515409,-174.945200960538,-206.537557478306,-0.270349051930312,-5.43772949753708,-5.0467011431041,-5.14648459148145,6.88314122305322,9.12773589274552,0.219674902169646,31.8949776838995,-4.46457881844303,33.1399463773249,11.4170788663255,11.191895709357,-0.186356889804822,16.2811444173158,220.426439912331,-259.535881425223,18.8392238616943,25.4351081848145,-7.07009792327881,-144.585006713867,-0.420000016689301,-190.050003051758,177,-0.411199152469635,0.0517855435609818
65.145,11.2410381481538,8.07572047208547,12.6823316196179,-0.555841030034043,-3.49514325195703,-1.44779621293044,-0.913442212152775,-17.3769023306948,-103.81155589162,-93.0829019292738,-0.286051158718729,-5.82323684217033,-4.38719950595761,-3.53575665515191,4.7649724454118,14.7857693287332,2.08005510917639,-9.60012172158574,54.6385479226573,-6.39489006608357,6.23354400629819,16.4957695602843,-2.95686827054435,-14.9072726217623,17.1812838339841,-216.359993162094,-8.99554226481664,12.7799761665144,2.09473407022305,-9.98192070286093,51.9509655112018,-301.421534036887,1294.7994419617,0.276539575620735,-0.0205449164175956,-29.0723971073641,6.85559278069246,-0.454109056828677,0.959875758101336,7.40628346577442,2.79876830377342,2.65751574326415,-13.4490839342321,-141.671052494315,-196.857185747538,-0.182588313195831,-5.49844916738425,-5.07658477795856,-5.27797531600496,7.99032996040474,12.3181876490611,-0.265934193159967,30.6629694235262,-5.03412035000245,30.4780891140367,7.65118033204437,12.2310991733623,3.46299546159723,6.1882689606812,238.528867854896,-210.231570314226,18.8392238616943,25.4351081848145,-7.07009792327881,-144.585006713867,-0.420000016689301,-190.050003051758,177,-0.411199152469635,0.0517855435609818
65.15,11.2781854429423,5.46269224088593,11.8559498298359,-0.539695160898825,-3.73402035589467,-1.52463618130728,-0.919939951281731,-18.5019250283952,-110.08282465951,-96.2650714766855,-0.258701285602157,-5.8357655578016,-4.51953500705106,-3.62366892347875,4.4517695139741,15.1596705026976,2.70646097205179,-8.15535367724683,47.7714035459345,1.53934440147883,6.42535045268252,17.7534371454373,-3.48615694537706,-18.270404874352,13.6293126046447,-221.329755439094,-8.22273685057308,13.3411179242066,1.90284109299989,-2.29995127687258,59.3780025038144,-325.147263372097,1262.02239099729,0.280074745968012,-0.0189653560740474,-28.8972765278282,12.4300528938907,0.555960376833465,0.944374398620099,7.72786960361803,3.12960705650704,2.96765542447356,-14.3671449392778,-108.398490626816,-187.177275602299,-0.0948317591236962,-5.5591659419582,-5.10646698788289,-5.39651457953696,9.0974659040915,15.5084872762637,-0.751520133373458,29.4310199085402,-5.60363472432691,27.8163587750886,3.88546136568874,13.2702530854192,7.11217380230161,-3.90412524116338,256.630432626188,-160.92961016218,18.8392238616943,25.4351081848145,-7.07009792327881,-144.585006713867,-0.420000016689301,-190.050003051758,177,-0.411199152469635,0.0517855435609818
65.155,11.3153345090958,2.84953940770122,11.0295286341225,-0.523548521849481,-3.97290885066269,-1.60147981379019,-0.933074685059827,-19.6270013726885,-116.354392472213,-99.4473927655281,-0.231350108309671,-5.84829487086341,-4.6518768185494,-3.72529914641645,4.13855164748649,15.5335895061014,3.33289670502699,-6.71051673929082,40.9039317101311,9.47395721220404,6.61716604533772,19.011164702341,-4.01547085928634,-21.6336974975608,10.0771719999188,-226.299754698702,-7.44989458518203,13.9022864398863,1.71093896537965,5.38238446304576,66.8053936539299,-348.874124066294,1229.24377706254,0.283610084889528,-0.0173857204093251,-28.7221475976854,18.0047788246519,1.56607797555372,0.928872299958114,8.04947107626388,3.4604615852529,3.28085255819883,-15.285249721969,-75.1243421605929,-177.496903871531,-0.00707102038921489,-5.61988561180536,-5.13635062273736,-5.50220365620119,10.204654641443,18.6989390325793,-1.23712922870307,28.1990116481669,-6.17317625588633,25.1545015118004,0.119562831407583,14.3094565494246,10.7615261537037,-13.997000697798,274.732860568753,-111.625299051183,18.8392238616943,25.4351081848145,-7.07009792327881,-144.585006713867,-0.420000016689301,-190.050003051758,177,-0.411199152469635,0.0517855435609818
65.16,11.344609493117,0.0658296098386673,10.1149828369084,-0.507177615995763,-4.22225841931825,-1.68156685124269,-0.958151926225383,-20.7735700507589,-122.808286860795,-102.723263646554,-0.203527419400956,-5.85437773382882,-4.7823959257766,-3.84059243354941,3.80249200197672,15.9120710328504,3.93893047571983,-5.33191579750477,33.8820476609294,17.5768031797501,6.76746755273494,20.2653689494629,-4.55623221577755,-25.1631768536902,6.80885599447948,-231.254077522785,-6.70315691699665,14.4289286888526,1.59255518705094,13.1452723796133,74.4127931889779,-372.711232866928,1195.70359195776,0.287160894068598,-0.0158491359904583,-28.5320746781798,23.6754634423935,2.74053499854867,0.913314318276176,8.36365237954298,3.79702168445263,3.60300319084641,-16.1946630326231,-44.0856021627399,-167.457430912025,0.0792505062609632,-5.67302542762323,-5.1529463687253,-5.58221193544609,11.2423942050095,21.6679183031186,-1.79134600879131,27.3844304505128,-6.28622101870557,22.3244840500326,-3.67744219314904,15.3049755507582,14.0120177126954,-23.1168938031415,290.743687879451,-65.3341449364156,18.5798710319445,25.259201697064,-6.95524079413719,-142.409542749678,0.350253537718545,-192.688511939657,183.761645902151,-0.410864456139293,0.0517227380723575
65.165,11.2134628391764,-6.1961854211613,7.403775133686,-0.486220100228422,-4.68502920772995,-1.82782692883754,-1.05998645997986,-22.3592603607177,-132.984059074268,-107.908749429329,-0.166068298384871,-5.72910641273329,-4.87590653221576,-3.93573636463986,3.00063906156525,16.3839096678544,4.12984784248446,-5.30161145357388,23.7065223988001,29.1160239187697,6.07198285952091,21.4490566234036,-5.33081124665123,-32.0826687179112,9.32074939141809,-235.894009293538,-6.48759576305505,14.2525603064704,2.97214635118854,22.557498623535,85.6960082330341,-398.81918443666,1146.61055478971,0.291030562837577,-0.0151882476166825,-28.0372918501304,31.3072946833322,7.26496098002912,0.896601739702762,8.52695192508713,4.25018821940371,4.04508967802016,-16.9278958002477,-58.5665120555356,-150.090258629966,0.136332962535431,-5.57176346746784,-4.89878951257688,-5.37982317098504,10.8660142533878,20.1269424142326,-3.74415793169818,35.0749995103087,2.90272949100685,16.06495345364,-8.11217988399618,15.4113437979556,9.1381700782896,-12.4194603955357,264.149942505428,-80.3954038700703,13.0353781211254,21.4986401668875,-4.49980377848165,-95.9020705203364,16.8168769251205,-249.095044454468,328.313366452519,-0.403709255894716,0.0503800706845617
65.17,11.0823224386525,-12.4579018628502,4.69269670796233,-0.465263583770435,-5.14777793001593,-1.97408003236803,-1.17403194381974,-23.9448750608009,-143.159346080215,-113.093987954533,-0.128610963517985,-5.60384106490311,-4.9694126798238,-4.04864625573755,2.1988243556064,16.855725804354,4.320756105808,-5.27130855463365,13.5314823324204,40.6546944374603,5.37653132884231,22.6326878560096,-6.10535334356387,-39.0018306426002,11.8325230146872,-240.533719820166,-6.272044887635,14.0762003337955,4.35167173279877,31.9692760678073,96.9786852637847,-424.925891110741,1097.51985850652,0.294900047090592,-0.0145273907557988,-27.5425326146248,38.9387620185278,11.7891712250046,0.879889958028957,8.69024368408037,4.70333314618509,4.49044650928828,-17.6610936054097,-73.0467314605431,-132.723914460261,0.193412696968574,-5.47050633574846,-4.64464477529438,-5.1667662940799,10.4896522485499,18.5860400031212,-5.6968767394075,42.7652018635884,12.091241847443,9.80572132809412,-12.5467061149115,15.5177069732359,4.26455484173018,-1.72253706962958,237.557465190978,-95.4559446433715,7.49114958627961,17.7382579501541,-2.0444838445072,-49.3968158893276,33.2827151407035,-305.498887357772,472.858194397482,-0.396554396828864,0.0490374673186708
65.175,10.951175784712,-18.7199168938502,1.98148900473994,-0.444306068003094,-5.61054871842762,-2.12034010996288,-1.301619138769,-25.5305653707597,-153.335118293688,-118.279473737308,-0.0911518425019006,-5.47856974380757,-5.06292328626296,-4.17973399392438,1.39697141519492,17.3275644393581,4.51167347257263,-5.24100421070276,3.35595707029107,52.1939151764799,4.68104663562827,23.8163755299503,-6.87993237443755,-45.9213225068212,14.3444164116258,-245.173651590919,-6.0564837336934,13.8998319514133,5.73126289693637,41.381502311729,108.261900307841,-451.033842680473,1048.42682133847,0.29876971585957,-0.013866502382023,-27.0477497865754,46.5705932594665,16.3135972064851,0.863177379455544,8.85354322962451,5.15649968113618,4.93897075904248,-18.3943263730344,-87.5276413533388,-115.356742178202,0.250495153243042,-5.36924437559307,-4.39048791914596,-4.9441235781013,10.1132722969282,17.0450641142352,-7.64968866231436,50.4557709233843,21.2801923571554,3.54619073170153,-16.9814438057586,15.6240752204333,-0.609292792675626,8.97489633797627,210.963719816955,-110.517203577026,1.94665667546054,13.9776964199776,0.410953171148341,-2.88934365998637,49.7493385281055,-361.905419872583,617.40991494785,-0.389399196584287,0.047694799930875
65.18,10.7291207012466,-26.2318664473258,-1.66686324839201,-0.429487945427881,-6.08431398889653,-2.25385940354461,-1.43094336609539,-27.1005685147971,-162.348506872286,-124.24144147161,-0.0595213880376391,-5.30530841497113,-5.15080754737723,-4.32323472439737,0.460194105292292,17.1351094006047,4.22423765781152,-3.3865738781765,-4.28986814882063,65.8283801877596,4.60147667736054,24.6475301774875,-7.22290569390912,-51.5207293829554,26.8481052928818,-249.595371203826,-5.96453245284773,14.3584026700227,6.9587206957449,50.6961836884325,120.404314960981,-483.709556570609,1006.6828190274,0.300568269367989,-0.0119505310241643,-26.5701546474662,50.3764147092318,20.9336815910102,0.848275815692152,8.99804197170197,5.61693304710974,5.39766691561227,-19.2188013624612,-98.219020268048,-102.227481475814,0.291914865405475,-5.18097479322783,-4.35187163038098,-4.92862727720437,8.83753121610081,16.1801694093752,-7.75128430309046,55.772007988632,27.2536092881951,-2.82667993926176,-18.7105336164516,15.5124214692917,-3.25092044221847,15.8434816826505,182.948475517932,-128.919909234598,-2.29447447123087,13.398219298053,0.846823116969877,19.3816155708947,53.1311095709958,-379.713481503795,759.353463198467,-0.378818399291237,0.0503165060915449
65.185,10.358834108682,-35.7824665555101,-6.84345496119752,-0.424676722964131,-6.57606245804226,-2.36662475365353,-1.55451539662006,-28.6451945386162,-169.468047577122,-131.470018308341,-0.0373891622684908,-5.05378954418749,-5.22953046993988,-4.47493296751643,-0.696661435132841,15.8596640662866,3.15692951277495,1.4418742682335,-7.81260352296505,82.8803316553103,5.5259930297505,24.9040713642763,-6.86229591247953,-54.9687672300823,55.6425080075806,-253.661904574657,-6.07408489446789,15.8521417073838,7.93831670793002,59.8530106185384,133.948964523631,-527.096477077392,976.91436056039,0.29899060845232,-0.0079882176873179,-26.1205198728001,47.9453529978006,25.7102927543085,0.836324793624094,9.11190878793997,6.08927092869805,5.87085439576812,-20.1921275840432,-102.733849292596,-96.00543831411,0.307805551071472,-4.85083723857286,-4.66463596102665,-5.2573080338942,6.09544475731068,16.4173489971611,-4.83494345327395,57.2181521116904,27.9856450529664,-9.38512281139664,-16.0289521545457,15.0453228933459,-2.25379809356752,16.4709409095973,152.612315845592,-152.77232356182,-4.41132930047783,18.0046390356962,-2.00965572734486,2.14374186627427,35.1816967429567,-334.598538433718,897.062836106816,-0.362651688134733,0.0594014693811647
65.19,9.98856517235396,-45.3326112660161,-12.0197998405245,-0.419865729912095,-7.06778747933042,-2.47938472681461,-1.69315733347721,-30.1897469106127,-176.587248803572,-138.698250467558,-0.0152579918219521,-4.80228266648371,-5.30824963878699,-4.64277046764743,-1.85346181364969,14.5842795485494,2.08967225979183,6.27009218156386,-11.3351709238416,99.931470041063,6.45046529877443,25.1606003185081,-6.50170332587071,-58.4166406657155,84.4355377295884,-257.728244042505,-6.18363211234013,17.3458095193473,8.91786601040638,69.0094009271045,147.492968241843,-570.481328781938,947.147321531608,0.297413022763664,-0.00402609328397034,-25.6709065379001,45.5144072057721,30.4866761562505,0.824374341412134,9.22577017470934,6.56158628797653,6.34622948264122,-21.1654073948765,-107.248463038248,-89.783691835753,0.323695479027872,-4.52071542574293,-4.97738537824819,-5.57991938392863,3.35348904839939,16.6545172756018,-1.91874166224295,58.6642272788017,28.7176459123513,-15.9432529597631,-13.3474985574815,14.5782465898862,-1.25672329032704,17.0983702176415,122.277602680962,-176.623600543327,-6.52808319253094,22.6108391271571,-4.86599836725162,-15.093309891288,17.2331397900287,-289.485746562529,1034.76564267085,-0.346485747849446,0.0684859994758918
65.195,9.6182785797894,-54.8832113742003,-17.19639155333,-0.415054507448346,-7.55953594847615,-2.59215007692353,-1.84648828053795,-31.7343729344317,-183.706789508407,-145.926827304289,0.00687423394719617,-4.55076379570007,-5.38697256134964,-4.82503557696722,-3.01031735407483,13.3088342142313,1.02236411475525,11.0985403279739,-14.857906297986,116.983421508614,7.3749816511644,25.4171415052969,-6.14109354444112,-61.8646785128425,113.229940444287,-261.794777413337,-6.29318455396029,18.8395485567084,9.8974620225915,78.1662278572104,161.037617804494,-613.86824928872,917.378863064602,0.295835361847995,-6.37799471239799e-05,-25.221271763234,43.0833454943409,35.2632873195488,0.812423319344076,9.33963699094735,7.03392416956484,6.82342237632587,-22.1387336164585,-111.763292062796,-83.5616486740486,0.33958616469387,-4.19057787108796,-5.29014970889386,-5.89755710864391,0.611402589609259,16.8916968633877,0.997599187573565,60.1103714018601,29.4496816771226,-22.5016958318979,-10.6659170955755,14.1111480139405,-0.259600941676083,17.7258294445883,91.9414430086221,-200.476014870549,-8.6449380217779,27.2172588648004,-7.72247721156636,-32.3311835959085,-0.716273038010417,-244.370803492452,1172.4750155792,-0.330319036692941,0.0775709627655115
65.2,8.71788674036178,-70.2116563822839,-24.3056717498651,-0.411738212507683,-7.9999144022991,-2.84990670319325,-2.15864060227439,-34.0212714584677,-193.322831890648,-153.973266892876,0.0299021989924024,-4.26570490006084,-5.44150978434774,-4.99536893826265,-4.09657786573299,12.1459678033186,-0.00450144618660914,15.2550033922896,-18.3368444940602,134.250108534474,7.75041558836961,25.41257078703,-5.51608007307049,-64.0614262839488,137.784301592403,-265.29531149864,-7.3814882276301,21.4208806156658,10.3985708594994,72.8037790495033,168.606209675241,-649.500897355703,882.718450296849,0.294179842931973,0.00293682572816924,-24.7562495566148,40.5451224586666,39.2415406910161,0.799863807860485,9.51613333822844,7.47782467559949,7.27354062674297,-23.1778492403909,-108.382633456249,-78.7955193976448,0.375967141919543,-3.7646632937478,-5.55023546597424,-6.15848053197455,-1.48763700715481,16.8230484091947,2.95625437661744,56.74500036648,27.7965598800201,-28.4657510303727,-9.30501598416804,13.009240752017,0.282666311462942,18.5700695748268,71.3905991290931,-215.108361101244,-10.2363138198853,30.6802005767822,-9.86987590789795,-45.2900009155273,-14.210000038147,-210.455001831055,1276,-0.318165481090546,0.0844007134437561
65.205,6.21162752074545,-103.044199591486,-37.2704516418232,-0.412949431694601,-8.28477714370609,-3.5468929580081,-2.92255942472781,-38.5569605947887,-210.502651696203,-164.498567304775,0.0556477919706299,-3.87899814836612,-5.42279874565286,-5.10215894199064,-4.96921398487848,11.3238807276602,-0.909063277008154,17.3768150942167,-21.6837889588647,152.170549162515,6.46274521743543,24.6170884711017,-4.09006495154006,-62.4684252383843,149.500249488337,-267.082100300263,-11.4346488135321,27.2970393625285,9.45043326094433,23.4612603606884,158.074713749895,-661.65261811475,833.233597198965,0.292288173246981,0.00302498521972156,-24.244529314572,37.6818189885922,40.8023241887783,0.785458762536975,9.88236910583088,7.83567335406969,7.63853935180442,-24.4164412971914,-81.0858098832344,-78.4384529812554,0.47442041841651,-3.04855727467238,-5.65080723552851,-6.25667522158647,-1.63928413761606,15.828030395291,2.01444588217384,38.8048525090101,18.9184530219569,-32.6305455165082,-11.9442081493885,9.98427957071091,-0.552723144060473,20.0711035497194,80.4756318961678,-201.815834850937,-10.2363138198853,30.6802005767822,-9.86987590789795,-45.2900009155273,-14.210000038147,-210.455001831055,1276,-0.318165481090546,0.0844007134437561
65.21,3.70536830112912,-135.876742800688,-50.2352315337813,-0.414160650881518,-8.56963988511308,-4.24387921282295,-3.69732305451222,-43.0926497311098,-227.682471501759,-175.023867716674,0.0813933849488573,-3.49229139667139,-5.40408770695798,-5.21581363224286,-5.84185010402396,10.5017936520018,-1.8136251078297,19.4986267961438,-25.0307334236691,170.090989790555,5.17507484650125,23.8216061551733,-2.66404983000964,-60.8754241928199,161.216197384272,-268.868889101886,-15.4878093994341,33.1731981093912,8.50229566238929,-25.8812583281266,147.543217824548,-673.804338873797,783.748744101081,0.290396503561988,0.00311314471127387,-23.7328090725293,34.8185155185177,42.3631076865405,0.771053717213464,10.2486048734333,8.1935220325399,8.00406053241937,-25.655033353992,-53.7889863102199,-78.0813865648659,0.572873694913478,-2.33245125559696,-5.75137900508278,-6.35233600787367,-1.79093126807732,14.8330123813873,1.07263738773023,20.8647046515401,10.0403461638936,-36.7953400026437,-14.583400314609,6.95931838940477,-1.38811259958389,21.5721375246121,89.5606646632424,-188.523308600629,-10.2363138198853,30.6802005767822,-9.86987590789795,-45.2900009155273,-14.210000038147,-210.455001831055,1276,-0.318165481090546,0.0844007134437561
65.215,1.19922858652994,-168.707720468062,-63.1993932310087,-0.415371812314326,-8.85448904351695,-4.94083223350396,-4.48086551201735,-47.6281225938691,-244.861472128418,-185.548666254626,0.107137750309643,-3.10560308416948,-5.38537756045454,-5.33330300571603,-6.7144446135891,9.67974577561272,-2.71814380676917,21.6203373245203,-28.3775182973776,188.010575924955,3.88746587506979,23.0261617699295,-1.23810270462272,-59.282499105726,172.931586633063,-270.655592704729,-19.540776720002,39.0490766655832,7.55420327352329,-75.2214242361534,137.012224068566,-685.955480206906,734.266250570863,0.288504924076771,0.00320129999915025,-23.2211132306506,31.9553485782674,43.9238167620493,0.756649358760321,10.6148231779532,8.55135364784597,8.36971431460846,-26.8935663514726,-26.4934643213926,-77.7243371743403,0.671322276899835,-1.61637938233591,-5.85194597911114,-6.44599929272312,-1.9425711676054,13.8380418125539,0.130873801187376,2.92541222740305,1.16266263726556,-40.9599359004477,-17.2224666362206,3.93450144618662,-2.22346222154562,23.0730999262655,98.6452642321115,-175.231416172858,-10.2363138198853,30.6802005767822,-9.86987590789795,-45.2900009155273,-14.210000038147,-210.455001831055,1276,-0.318165481090546,0.0844007134437561
65.22,-1.01244301002293,-190.171357437318,-79.7635946530203,-0.415859365021493,-8.98252211133059,-5.63205374103768,-5.26518811121938,-50.9265215322503,-248.472659751078,-195.363632946337,0.122405301534418,-2.70946535906727,-5.29226866311896,-5.37711403820755,-7.31027254298373,9.60678279150085,-3.03229621843482,22.0852981770218,-29.0827000136258,206.76480735309,2.65845058437822,21.9752408839503,-0.43550591886277,-59.3999154028852,170.94883419429,-270.139225902413,-20.5566918842606,42.4944727358453,6.61637068285277,-105.580138447377,137.501403788354,-676.273475677332,677.147358410291,0.286542486477075,0.000375386401764784,-22.7520994131306,34.0873629259276,44.4693346730143,0.738183351056859,11.0705881953757,8.78374754608335,8.60975830613032,-27.4670210113218,-7.3955206053451,-72.9919155972617,0.734809739527094,-0.846883012285623,-5.70569948084759,-6.29126526746502,-1.63340140651198,13.0628488124734,-0.858614760867953,-3.88145558945003,-2.39519242444888,-48.7075674251055,-18.7035755937633,2.081748629777,-2.35459243686962,27.5943376784364,82.2692622964749,-166.019977648812,-9.38976641904456,28.1682434997112,-8.55668155596618,-50.131473959896,-13.0142416051729,-191.767904348875,1285.63285531947,-0.314820840457665,0.0853517042719978
65.225,-2.91669291136569,-199.773834251428,-100.081952463532,-0.415591959643424,-8.94694306582506,-6.31722845742869,-6.04749203023825,-52.9340118598384,-237.928766232423,-204.437105641922,0.126741345226102,-2.3035080536456,-5.12155174600424,-5.34095210917805,-7.61730347623696,10.315315714393,-2.73051367720299,20.8217963940866,-27.0319394274771,226.387961966521,1.49068335961158,20.6578944865731,-0.283302550241507,-61.3016475736108,154.675579179717,-267.220212809017,-18.4040791446879,43.4039128576071,5.68933307967912,-116.133343745547,149.48741986812,-643.81481059699,612.067297344645,0.284506316779537,-0.00549037751808625,-22.3276596535459,41.430432341456,43.9556931424511,0.715481794428543,11.6197291322003,8.88525490220562,8.71848416968995,-27.3465715115824,3.14837341383538,-63.6953131012399,0.761817549625137,-0.0217260795649311,-5.30197710429064,-5.87776006035778,-0.84351840728782,12.5170160422454,-1.89779638110971,0.926330682026383,-0.402747305204951,-60.19247465717,-18.9764919788773,1.45194158720624,-1.75102735440598,35.2660613245659,39.3328799138086,-161.066402710074,-7.6601341564734,23.0359118684508,-5.87361464692867,-60.0233807421889,-10.5711151342163,-153.587163770271,1305.3143253998,-0.307987202625227,0.0872947312263096
65.23,-4.82103361667114,-209.376768958668,-120.401279152868,-0.415324541514157,-8.91136232373636,-7.0024358463063,-6.83128208852553,-54.9415979143985,-227.38436992928,-213.511011005129,0.131077595681588,-1.89753139019115,-4.9508266882707,-5.2994672055748,-7.92434905022899,11.0238824236054,-2.4287167455014,19.5582343611976,-24.9810810510187,246.012052308083,0.322860449983721,19.3404852716671,-0.131091923818106,-63.2034704282412,138.401548176636,-264.301060522778,-16.2513637579958,44.3133963459285,4.76225127081173,-126.687052272237,161.474007499842,-611.354597728508,546.984132942914,0.282470049987455,-0.0113564211462926,-21.9031996545945,48.7738519105019,43.4420271189437,0.69277915527881,12.1688962547546,8.98676709869583,8.82659414228012,-27.2261162682209,13.6927702175287,-54.3982672976746,0.788826647587855,0.803470200680091,-4.89823547627328,-5.46312311971112,-0.0535977425732541,11.9711572440373,-2.93702755462123,5.73434621230168,1.58979282358165,-71.6779295458667,-19.2494213779813,0.822104512350778,-1.14743349100284,42.9381507960564,-3.60554988588039,-156.112591560619,-5.9304194165639,17.903335502479,-3.19041979611875,-69.9157592190497,-8.12787216302257,-115.404602546939,1324.99673398904,-0.301153238931465,0.089237850833664
65.235,-6.7252835180139,-218.979245772778,-140.71963696338,-0.415057136136089,-8.87578327823082,-7.68761056269731,-7.61392241327203,-56.9490882419866,-216.840476410625,-222.584483700714,0.135413639373273,-1.49157408476948,-4.78010977115598,-5.24996057188011,-8.23137998348223,11.7324153464975,-2.12693420426957,18.2947325782624,-22.9303204648701,265.635206921515,-0.844906774782915,18.0231388742899,0.0211114448031579,-65.1052025989667,122.128293162063,-261.382047429382,-14.0987510184231,45.2228364676903,3.83521366763808,-137.240257570406,173.460023579608,-578.895932648166,481.904071877268,0.280433880289918,-0.0172221850661437,-21.4787598950098,56.1169213260303,42.9283855883805,0.670077598650495,12.7180371915792,9.0882744548181,8.933964784971,-27.1056667684815,24.2366642367092,-45.1016648016528,0.815834457685899,1.62862713340078,-4.49451309971633,-5.04748555666366,0.736285256650909,11.4253244738093,-3.97620917486298,10.5421324837781,3.58223794282558,-83.1628367779313,-19.5223377630953,0.192297469780021,-0.543868408539199,50.6098744421858,-46.5419322685467,-151.159016621881,-4.20078715399274,12.7710038712186,-0.50735288708123,-79.8076660013427,-5.68474569206592,-77.223861968335,1344.67820406937,-0.294319601099028,0.0911808777879758
65.24,-8.72985716809586,-212.759117572449,-157.361680173452,-0.412688128912552,-8.74842221153704,-8.26762314958728,-8.28781113034476,-58.8774960362484,-205.744279316281,-225.254757052177,0.146407899428692,-1.1122448288704,-4.45166210552138,-5.03230035316259,-7.29996304200717,12.7306751340378,-1.16113788975064,13.2871605837962,-17.8871550571271,279.083301040877,-3.34676695643123,16.9904997137057,0.221911925459364,-68.1724391439832,92.0354343030067,-239.464497256266,-8.84433381374161,44.0458710434026,5.43292025781101,-130.210143096592,189.642653644529,-546.696601189763,418.205299047421,0.280696635392473,-0.0178051733451456,-20.7957877577691,64.0582526460492,44.8266891598613,0.644113627904166,13.1496790595707,9.40263481432032,9.25341747832387,-26.6175183691226,37.1937582115176,-31.1195802211881,0.797555193357392,2.33549342381031,-3.83389675929343,-4.373951631269,1.89220863047214,11.7131461142054,-3.81721253448545,12.6376208075235,4.11930086350992,-96.2154083533675,-17.4684123679142,1.66844151788039,0.05571599604391,54.1078619438066,-70.483666443672,-142.557813135607,-3.06619442716791,11.0856439340655,-0.21302634925325,-78.3748437937962,-4.42666475428217,-58.365724837623,1348.9621570975,-0.288073733684007,0.0911592384728082
65.245,-10.7817598570832,-199.052697769911,-172.263045019392,-0.409324880257162,-8.57764190252398,-8.79783578446081,-8.90602462470918,-60.7683491555817,-194.387530052174,-224.895062641954,0.160551832929326,-0.745541722931985,-4.04860458639112,-4.72760839459776,-5.78261933267397,13.8659538805892,0.118779735568191,6.5083712970514,-11.4284378291501,289.608618004988,-6.47969965124149,16.0926470511686,0.445692832231524,-71.790937997842,55.4057140617098,-208.559013097563,-2.12261536855947,41.8817708345711,8.22513929388114,-114.860682467283,207.809844623606,-514.622239569015,355.164580188434,0.282047146514859,-0.015888487579118,-19.990534704277,72.2821036947369,47.8661112972173,0.616607815521972,13.5256939698825,9.81768802788323,9.67283176330889,-25.9554214140291,51.2917876883726,-14.9214640843715,0.757848881117047,2.98633887740483,-3.05177317496348,-3.57786427687728,3.2212488938629,12.3954049763157,-3.09128910520014,13.4495930829238,3.96768778304098,-110.008829496475,-14.3136473895164,4.14094763416793,0.653374759252488,55.630731107628,-85.4360853574759,-132.231277765889,-2.21323424498441,11.0313943292701,-1.04899269334472,-71.5836384973659,-3.72939617898722,-48.6517233462853,1345.96021810421,-0.28210641834816,0.0902079861798449
65.25,-12.8337603908414,-185.345624378139,-187.165120435398,-0.405961471225603,-8.40685344986926,-9.32807370246986,-9.51636805821223,-62.6592924400535,-183.030239242634,-224.53535107974,0.174696440881989,-0.378821130793297,-3.6455278475041,-4.40892445379458,-4.26520326896047,15.0012867627921,1.39875839362868,-0.270741235570419,-4.96941261789961,300.134436867767,-9.61278173962834,15.1947515746187,0.669484409973441,-75.4096093994503,18.7742471359323,-177.652055213995,4.5994236010824,39.7175674308414,11.0174914766317,-99.5104899005077,225.977901903335,-482.546348485599,292.120855239186,0.283397722036231,-0.0139717104161249,-19.185243252375,80.5063468969245,50.9056783691084,0.589100691527914,13.901726810427,10.2327610332164,10.0916463137165,-25.2932928869096,65.3904894283279,1.27742445796401,0.718140675485246,3.63721536649854,-2.26961229515004,-2.78060075671954,4.55035253240332,13.0776963718703,-2.36533106033,14.2616040771394,3.81606747291773,-123.802908377466,-11.1587319764718,6.61357165165792,1.25106202175834,57.1536728893105,-100.389217275853,-121.904249976383,-1.36023338948146,10.9771421375878,-1.8849989004062,-64.7921093630025,-3.03209435451124,-38.9372586437754,1342.95813596377,-0.27613881846149,0.0892566885265129
65.255,-14.8737834005816,-171.611580500121,-201.806486279797,-0.402528204629403,-8.2352207924459,-9.84896062003934,-10.1077770082875,-64.5420671628229,-171.672456258673,-224.040112429067,0.188778467877326,-0.0137284298001612,-3.24300060644025,-4.07574991876089,-2.72813070366841,16.123393810804,2.65605285047802,-7.06365322618695,1.68908269659715,310.45006474892,-12.7355981241938,14.2855793179106,0.880408795553988,-78.9417439806424,-17.3688525919884,-146.835515269985,11.2101535596614,37.602820974105,13.7778998610498,-84.1146408317016,243.611192895313,-449.890448007907,229.483550529831,0.284663883106004,-0.0119701406165367,-18.3777107321418,88.68166181671,53.9937123349832,0.561658603164559,14.2711892446243,10.6501249342166,10.5123090222644,-24.6269082248902,79.4177917680238,17.4396877418185,0.678518485374338,4.28602263407468,-1.48680469832011,-1.98142104969235,5.8651644947017,13.7425114826825,-1.64819242685439,15.032308081329,3.73279405914337,-137.515703231612,-8.02889935021881,9.06848151318249,1.83118346975923,58.5278045301473,-114.761213484504,-111.454594866432,-0.527070002451456,10.9167309393827,-2.70273283864977,-57.9343473110674,-2.32175980262852,-29.2786235973731,1339.69750816747,-0.270144798648481,0.088324153829004
65.26,-16.1115988586209,-156.011264915672,-198.889283720943,-0.394366049667485,-8.00601583371038,-9.74005166451666,-10.0585009079636,-65.8793498827878,-160.244318479264,-214.390747890639,0.198680254819928,0.242621533213133,-2.87626697738581,-3.7627611559004,0.141421200467755,16.3559918506106,2.38553121722464,-14.8106786529189,21.8400883996517,306.604643586255,-15.1753493026003,12.6118847271281,0.223066509143948,-76.6413581065484,-20.6493214572161,-122.024433433928,10.3254914147917,38.8211237433774,14.390078885475,-65.5851726010486,225.187908575595,-377.958240232235,194.088196646213,0.280233447831905,-0.00423575576780884,-17.4161938668606,93.5794354262984,60.3649371444486,0.538518865193667,14.1981419247953,11.2235630929303,11.0888352947769,-23.6709176400871,88.66914213379,31.1813670282016,0.644575669607008,4.79721011278419,-0.657764373573664,-1.13458068837711,6.21911803353788,13.2292788513701,-1.52430868826173,13.015958997659,8.26489757228388,-145.783982988023,-6.5827463201167,10.3351295343034,1.22693421417461,49.8568792136842,-89.9345252313912,-92.6894389979746,-1.03086126446214,10.4401881039445,-2.28916383184816,-46.5812878615199,-0.728968889921294,-23.3587506699824,1318.96594374992,-0.262346982111274,0.0886556843190358
65.265,-17.3493552943705,-140.411693195212,-195.972220261963,-0.386204283898536,-7.77682180406882,-9.63114790205881,-9.99745034556863,-67.216568837603,-148.816725623458,-204.741843459236,0.208581569619341,0.498959272787412,-2.50955083515328,-3.43411089992832,3.01083627683813,16.5885787995323,2.1150224831527,-22.5573346811467,41.9901332498689,302.759405783364,-17.6149841472677,10.9382699424962,-0.434244433460714,-74.3410819208901,-23.9296339010789,-97.2145346553692,9.44087145293485,40.0393684207764,15.0022287195977,-47.0565879040705,206.765502726423,-306.029462373013,158.694530505961,0.275803223812588,0.00349826028515092,-16.4547228492269,98.4769754971871,66.7358581571941,0.515380230586211,14.1250980880543,11.7969739086076,11.6653983368496,-22.7149726394241,97.9200513708911,44.922391075252,0.610634472322216,5.30837321673312,0.171236420354324,-0.286175398251593,6.57305469494039,12.7160706923365,-1.40043085677087,10.9997060588052,12.7967849828346,-154.051868491156,-5.13666224638642,11.6017171583224,0.622713770780322,41.1863673496967,-65.1090207799309,-73.9251779013968,-1.53462850438327,9.9636679913194,-1.87561454510218,-35.2287697556426,0.863746074335012,-17.4391600176694,1298.23536786778,-0.254549537394425,0.0889871990008237
65.27,-18.5871707524098,-124.811377610763,-193.055017703109,-0.378042128936618,-7.5476168453333,-9.52223894653613,-9.92415360022874,-68.5538515575679,-137.38858784405,-195.092478920807,0.218483356561943,0.755309235800706,-2.14281720609884,-3.09016871421506,5.8803881809743,16.8211768393389,1.84450084989933,-30.3043601078787,62.1411389529234,298.913984620699,-20.0547353256742,9.26457535171366,-1.09158671987075,-72.040696046796,-27.2101027663066,-72.4034528193128,8.55620930806515,41.2576711900488,15.6144077440229,-28.5271196734175,188.342218406705,-234.097254597342,123.299176622343,0.271372788538489,0.0112326451338788,-15.4932059839457,103.374749106775,73.1070829666595,0.492240492615319,14.0520507682253,12.3704120673213,12.2423554083913,-21.758982054621,107.171401736657,58.6640703616351,0.576691656554886,5.81956069544263,1.00027674510077,0.564058286840719,6.92700823377656,12.202838061024,-1.27654711817822,8.98335697513526,17.3288884959751,-162.320148247567,-3.6905092162843,12.8683651794433,0.0184645151957034,32.5154420332337,-40.2823325268182,-55.160022032939,-2.03841976639395,9.48712515588123,-1.46204553830056,-23.8757103060951,2.45653698704224,-11.5192870902788,1277.50380345023,-0.246751720857218,0.0893187294908555
65.275,-19.7516805267334,-110.134941101074,-189.696075919812,-0.369593965000267,-7.31805928230609,-9.41977977752686,-9.84502845077766,-69.8119379615784,-126.637245178223,-185.476995063491,0.227358503608513,1.00518593372563,-1.79780220985413,-2.75351376459885,8.59973455657491,16.9859829765546,1.56419327217123,-37.3753500459345,81.0155229609494,294.692202715798,-22.2668871559633,7.6068871559633,-1.69595810397552,-69.9249581555732,-28.7404585897484,-48.4468585847145,7.76968821977135,42.1164183959417,16.1855150572167,-10.605747716196,168.222804736411,-161.855694221862,89.190377166157,0.263824496513781,0.0182748403666763,-14.5886318969727,107.982467651367,79.3865806690983,0.469993922498158,13.9652852286134,12.9098901748657,12.7860322997703,-20.8596069717407,115.874870300293,72.0574859528429,0.543894199467609,6.32428533914374,1.7802197933197,1.36716460231196,7.22774159021406,11.7089941896025,-1.15671090723754,7.05862020362192,21.5874387435346,-170.216210719724,-2.39881794087664,14.0244524974516,-0.562270846075444,23.9602412504247,-16.2554570166497,-37.1002681818754,-2.48489544055148,9.05113528563706,-1.08693614914391,-13.0741255409905,3.95854202625827,-5.92564787608525,1257.41808358818,-0.239127659941819,0.0897863270352223
65.28,-19.7516805267334,-110.134941101074,-179.311450139708,-0.356591888711369,-7.08271087299526,-9.41977977752686,-9.85644822370393,-69.8119379615784,-126.637245178223,-176.392413989806,0.219918799727076,1.15234897855175,-1.79780220985413,-2.74867288546305,8.93323425076451,16.0731344546381,1.12807828746176,-33.7041085563988,79.6087855677628,284.483459307081,-20.8623403669725,6.20234036697248,-1.45866024464831,-70.7431356262821,-2.44792967619337,-38.0560047067115,8.54282589469603,37.2594746120892,16.1041052428663,-2.33773442363642,121.121318946434,-84.6376887580646,75.5083384301733,0.206700973238845,0.0143179550780616,-14.5886318969727,107.982467651367,84.2128178365399,0.461929427468818,13.6603510815423,12.9098901748657,12.7912159951096,-20.8596069717407,115.874870300293,79.9248344286461,0.5292797635732,6.72666750897538,1.7802197933197,1.39246284691945,6.68259785932721,11.5230039755352,-1.10112762487259,6.58882797850519,21.5003424321365,-172.200950906734,-3.56179123343525,13.4237254841998,-0.769639245667691,17.2379895797939,-4.92501868841318,-30.2407738387385,-2.02050079023802,9.25952415302988,-1.322973534158,-11.0314400017468,4.01840099058142,-5.51411786589297,1247.58411824669,-0.234259903907442,0.0924175592126072
65.285,-19.7516805267334,-110.134941101074,-168.927319525814,-0.343590432395592,-6.84737368571425,-9.41977977752686,-9.85667983189155,-69.8119379615784,-126.637245178223,-167.308266092788,0.212479450590245,1.29950500625768,-1.79780220985413,-2.73218681393644,9.26671804281344,15.160329459735,0.691984097859318,-30.0330421212922,78.2021152515071,274.275202678043,-19.4578605504587,4.79786055045872,-1.22137370030581,-71.5612740841419,23.8433455405796,-27.6656462918916,9.31592670438729,32.4027624200632,16.0226993103494,5.92988462835034,74.0220790789154,-7.42336525142254,61.8269520897044,0.149580173763417,0.010361258464122,-14.5886318969727,107.982467651367,89.0388248763272,0.453865316975766,13.3554314745316,12.9098901748657,12.797661990794,-20.8596069717407,115.874870300293,87.7918077686265,0.514666024533449,7.12903049216912,1.7802197933197,1.42003121028912,6.13748012232414,11.3370226299694,-1.04554699286443,6.11905815431471,21.4132502737192,-174.185596456123,-4.72470907237511,12.8230271151886,-0.976997757390416,10.5160584437649,6.40487937478763,-23.3816065742943,-1.55612828348026,9.46790308389459,-1.55899966429011,-8.98885186311059,4.07825710067205,-5.10260747853162,1237.75062181447,-0.229392379980447,0.0950486659259364
65.29,-19.7516805267334,-110.134941101074,-158.54269374571,-0.330588356106694,-6.61202527640341,-9.41977977752686,-9.84675932380854,-69.8119379615784,-126.637245178223,-158.223685019102,0.205039746708808,1.4466680510838,-1.79780220985413,-2.70586654044923,9.60021773700304,14.2474809378185,0.255869113149846,-26.3618006317565,76.7953778583204,264.066459269327,-18.0533137614679,3.39331376146789,-0.984075840978601,-72.3794515548508,50.1358744541347,-17.2747924138886,10.089064379312,27.5458186362108,15.9412894959989,14.1978979209099,26.9205932889388,69.7946402123749,48.1449133537207,0.0924566504884811,0.00640437317550729,-14.5886318969727,107.982467651367,93.8650620437688,0.445800821946426,13.0504973274605,12.9098901748657,12.8056009033571,-20.8596069717407,115.874870300293,95.6591562444296,0.50005158863904,7.53141266200075,1.7802197933197,1.44996008518754,5.59233639143729,11.1510324159022,-0.989963710499484,5.64926592919799,21.3261539623211,-176.170336643133,-5.88768236493372,12.2223001019368,-1.18436615698266,3.79380677313398,17.7353177030241,-16.5221122311574,-1.09173363316679,9.67629195128741,-1.79503704930421,-6.94616632386693,4.13811606499519,-4.69107746833934,1227.91665647299,-0.224524623946069,0.0976798981033212
65.295,-19.7516805267334,-110.134941101074,-148.158563131816,-0.317586899790917,-6.3766880891224,-9.41977977752686,-9.82797092007651,-69.8119379615784,-126.637245178223,-149.139537122084,0.197600397571978,1.59382407878972,-1.79780220985413,-2.671703917514,9.93370152905197,13.3346759429154,-0.180225076452593,-22.6907341966499,75.3887075420647,253.858202640289,-16.6488339449541,1.98883394495413,-0.746789296636103,-73.1975900127106,76.4271496709077,-6.88443399906874,10.8621651890032,22.6891064441848,15.8598835634821,22.4655169728966,-20.1786465785797,147.008963719017,34.4635270132518,0.0353358510130528,0.00244767656156776,-14.5886318969727,107.982467651367,98.6910690835561,0.437736711453374,12.7455777204498,12.9098901748657,12.8151992150161,-20.8596069717407,115.874870300293,103.52612958441,0.485437849599289,7.93377564519449,1.7802197933197,1.48228034923321,5.04721865443423,10.9650510703364,-0.934383078491319,5.17949610500751,21.2390618039038,-178.154982192522,-7.05060020387358,11.6216017329256,-1.39172466870539,-2.92812436289501,29.0652157662249,-9.66294496671323,-0.627361126409029,9.88467088215213,-2.03106317943632,-4.90357818523071,4.19797217508582,-4.27956708097798,1218.08316004077,-0.219657100019075,0.10031100481665
65.3,-20.1781124925504,-107.63310386736,-138.547432533855,-0.304388511509878,-6.1711719139275,-9.31686906367769,-9.69886882367648,-70.1857464486397,-119.012598747739,-140.400343199565,0.190768344720083,1.72719310373362,-1.69489147126249,-2.52888556816208,9.68254898908124,12.5475011416947,-0.567060966496441,-19.7279034026346,70.832753388309,244.527770217734,-15.0900874953294,1.05856374807988,-0.580074729107009,-73.8379737904827,93.1597658846763,6.67387395075565,11.2344365478349,18.5564519530904,15.3702887167356,24.0988890294363,-58.3868090917854,196.158140088343,25.3358243035662,0,0,-14.0696546902967,106.552846465446,102.201680542462,0.423234133884163,12.4326916720388,13.0500239398266,12.9666788908658,-20.3732925607086,111.645574265549,108.745840660658,0.454902830658098,8.21474750746465,2.04297062241532,1.77970070862662,3.90883806617676,10.5428187403994,-1.00045657408559,4.72694481475846,21.2815316596678,-179.795775934665,-7.76999999999998,11.3570983310499,-1.58060603229956,-6.48784165630045,29.3113715353859,-7.19088827690977,-0.527797005263599,9.96824212527025,-2.16235867220007,-3.14601942672277,4.22047127431973,-4.14413660616468,1205.93939677004,-0.214924529479251,0.103065964082753
65.305,-21.2960903341743,-101.074030404648,-130.191176337357,-0.290872383511742,-6.01404597575827,-9.04706776599913,-9.39704961808214,-71.1657611732508,-99.0230425165021,-132.221697733741,0.184922075935862,1.83818531209334,-1.42509010871652,-2.21556130192364,8.48324843276455,11.964175281272,-0.873960019927758,-17.9140792097781,61.1697729475507,236.622183883833,-13.281342010213,0.897496159754226,-0.527836592352741,-74.1899900412445,94.3877920419139,25.3683552984628,10.9565850491392,15.5986109647685,14.2187429774459,14.9724511542356,-82.1703991984383,199.784338211793,23.594553078424,0,0,-12.7090507396527,102.804804723982,103.578508093101,0.39829128493085,12.1069245437132,13.4174130115849,13.3471617862666,-19.0983207500131,100.557617377863,109.671495847611,0.398550055854616,8.29880875795786,2.73182518385602,2.50544808003298,1.80842965084899,9.73748079877113,-1.26382384688835,4.30237559628243,21.5341234731916,-180.878696156474,-7.76999999999998,11.6378783161041,-1.73949703159379,-4.91854783611057,11.5815759435831,-11.8342782106223,-1.01990168655221,9.84938635196386,-2.12378269927154,-1.85094894264448,4.18238092475461,-4.45647711972002,1190.05029684062,-0.210411421730066,0.106021446440226
65.31,-22.4141214864578,-94.5146441731857,-121.834521673632,-0.277355610998418,-5.85691254505469,-8.77725360287316,-9.09101188337641,-72.1458226297643,-79.0325330853111,-124.04266227004,0.179075528372909,1.94918281310523,-1.15527588072005,-1.90070249532594,7.28389068792294,11.3808216050151,-1.18087370780919,-16.1001685248997,51.5063317285539,228.716220572851,-11.4725102752522,0.73642089093702,-0.475595964628241,-74.5420230778654,95.6158767574538,44.0637280906098,10.6787203011232,12.6406289321001,13.0671423268149,5.84557808577388,-105.955123423164,203.41070925013,21.8531988209408,0,0,-11.3483819087479,99.0565842575306,104.955401297621,0.373347246580324,11.7811418812152,13.7848196022536,13.7293184640298,-17.8232881424165,89.4691317620806,110.597195174336,0.342194593874806,8.38287401690324,3.42071259325635,3.23323471903664,-0.292078922240222,8.9321044546851,-1.52720367833271,3.87778613226644,21.7867273315302,-181.961668017224,-7.76999999999998,11.9186716901233,-1.89839560758915,-3.34917918430465,-6.14906509171743,-16.4778895639111,-1.51202983380245,9.73052491103202,-2.08520488685167,-0.555816703262001,4.14428875885504,-4.76883252720095,1174.16043924108,-0.205898098773797,0.108977069729573
65.315,-23.5320993280817,-87.9555707104739,-113.478265477134,-0.263839483000281,-5.69978660688546,-8.5074523051946,-8.78238468072682,-73.1258373543754,-59.0429768540739,-115.864016804215,0.173229259588689,2.06017502146496,-0.885474518174083,-1.58633065052439,6.08459013160625,10.7974957445925,-1.48777276124051,-14.2863443320433,41.8433512877957,220.81063423895,-9.66376479013577,0.575353302611365,-0.423357827873973,-74.8940393286272,96.8439029146914,62.758209438317,10.4008688024275,9.68278794377818,11.9155965875252,-3.28085978942686,-129.738713529817,207.03690737358,20.1119275957986,0,0,-9.98777795810393,95.3085425160675,106.33222884826,0.348404397627011,11.4553747528896,14.1522086740119,14.1129322052754,-16.548316331721,78.3811748743938,111.522850361289,0.285841819071325,8.46693526739645,4.10956715469704,3.96268497570542,-2.39248733756799,8.12676651305683,-1.79057095113547,3.4532169137904,22.0393191450539,-183.044588239033,-7.76999999999998,12.1994516751775,-2.05728660688338,-1.77988536411477,-23.8788606835202,-21.1212794976236,-2.00413451509106,9.61166913772563,-2.04662891392314,0.73925378081629,4.10619840928991,-5.08117304075629,1158.27133931166,-0.201384991024611,0.111932552087046
65.32,-24.6501304803651,-81.3961844790119,-105.121610813409,-0.250322710486957,-5.54265317618187,-8.23763814206863,-8.47267375945917,-74.1058988108888,-39.0524674228829,-107.684981340514,0.167382712025736,2.17117252247684,-0.615660290177611,-1.27426394636962,4.88523238676464,10.2141420683356,-1.79468644912195,-12.4724336471648,32.1799100687989,212.904670927968,-7.85493305517502,0.414278033794159,-0.371117200149472,-75.246072365248,98.0719876302313,81.453582230464,10.1230040544115,6.72480591110984,10.7639959368942,-12.4077328578885,-153.523437754543,210.663278411917,18.3705733383153,0,0,-8.62710912719909,91.5603220496156,107.70912205278,0.323460359276485,11.1295920903916,14.5196152646807,14.4977741833924,-15.2732837241244,67.2926892586117,112.448549688015,0.229486357091514,8.55100052634184,4.79845456409737,4.69346460180274,-4.4929959106572,7.32139016897079,-2.05395078257983,3.02862744977441,22.2919230033925,-184.127560099782,-7.76999999999998,12.4802450491967,-2.21618518287873,-0.210516712308842,-41.6095017188207,-25.7648908509123,-2.4962626623413,9.49280769679379,-2.00805110150327,2.03438602019877,4.06810624339034,-5.39352844823722,1142.38148171213,-0.196871668068342,0.114888175376393
65.325,-25.4723470404136,-78.4374567848237,-99.1871405539744,-0.241191395134114,-5.49741133568361,-8.01832336390273,-8.21380595781499,-74.3447600786459,-24.4267518973078,-95.6947846422667,0.164894184666067,2.2619464984827,-0.351084092721353,-0.971399504311741,4.5547530168174,9.72366600292684,-1.9946524962215,-8.46830620174671,24.371145177757,205.660594972697,-7.31752584986687,0.0136660029268436,-0.393663124055376,-75.8294792885634,87.6623430281996,103.740242269475,9.811092864654,6.46619465149596,9.1331449384593,-26.4509031306621,-161.669142328165,207.387501453434,15.0297243480556,0,0,-7.718633831478,86.500377927475,105.693550070933,0.295976853819131,10.819971701109,14.481167121952,14.4776392513039,-14.4176569537757,68.4848881015375,108.532165621164,0.19286162380282,8.29784942491174,5.17310257878667,5.11081996940809,-4.62515078089389,6.98168437972313,-2.17732624811075,3.18518340810402,15.1803473779019,-180.879257405171,-6.29080272533166,11.9063411942519,-1.83614159249575,2.50212198299747,-51.0690215361504,-31.028816555762,-2.75939338288409,9.48268923837135,-1.94862157794635,3.03771751527494,3.36000498741421,-5.56395970484953,1119.00014394357,-0.19167985131495,0.117205684230586
65.33,-26.2146388180183,-76.4520014630705,-93.90715748415,-0.233245151503578,-5.48241706758938,-7.81264799937255,-7.97018414859081,-74.3832495520516,-11.2505426405259,-82.6734998178696,0.163313359974189,2.34725846709059,-0.087907989407542,-0.675310232904221,4.45915816999736,9.25827003814504,-2.16571695895211,-3.87180284587703,17.0633259910263,198.595023935802,-7.12382050236308,-0.451729961854968,-0.436429239738018,-76.4754743547937,74.1057638738948,126.999170399278,9.48995819654168,6.93735278544172,7.37262801118711,-41.8240635653642,-165.587272453139,202.245504341888,11.2562435525274,0,0,-6.93235572937391,81.0854978579476,102.760690246903,0.267805129001271,10.5147020875092,14.3329922937802,14.3482709780166,-13.675366300756,72.997288479359,103.306468822935,0.161568948753473,7.95351527481086,5.4628174840393,5.44350828812548,-4.22516181656791,6.76785380130988,-2.26285847947605,3.49886370468702,6.07740728597353,-176.459781543413,-4.41160928915864,11.1013319578725,-1.3103699349855,5.52401236493071,-58.2929855940916,-36.4607654540161,-2.96062972587207,9.50196924205705,-1.88355111567315,3.96222035816162,2.47072135499831,-5.69603155668416,1093.59203992035,-0.186304286703955,0.119350816829918
65.335,-26.9569305956229,-74.4665461413174,-88.6271744143256,-0.225298907873044,-5.46742279949515,-7.60697263484238,-7.72925561529363,-74.4217390254573,1.92566661625601,-69.6522149934724,0.16173253528231,2.43257043569848,0.175268113906269,-0.385741584062352,4.36356332317731,8.79287407336324,-2.33678142168272,0.724700509992656,9.75550680429568,191.529452898908,-6.9301151548593,-0.917125926636779,-0.47919535542066,-77.121469421024,60.5491847195899,150.25809852908,9.16882352842936,7.40851091938748,5.61211108391491,-57.1972240000664,-169.505402578112,197.103507230341,7.48276275699926,0,0,-6.14607762726982,75.6706177884202,99.8278304228737,0.239633404183412,10.2094324739093,14.1848174656084,14.2189804647122,-12.9330756477363,77.5096888571804,98.0807720247052,0.130276273704127,7.60918112470998,5.75253238929192,5.77586431213101,-3.82517285224194,6.55402322289662,-2.34839071084135,3.81254400127001,-3.02553280595487,-172.040305681654,-2.53241585298563,10.2963227214932,-0.784598277475247,8.54590274686396,-65.5169496520327,-41.8927143522702,-3.16186606886005,9.52124924574275,-1.81848065339995,4.88672320104831,1.58143772258241,-5.82810340851879,1068.18393589713,-0.180928722092959,0.121495949429251
65.34,-27.6991869788075,-72.4811854912847,-83.347443107951,-0.217353043140259,-5.45242924636697,-7.40130707745337,-7.4919264531489,-74.4602266635839,15.1012475968002,-56.6315510581094,0.160151785968302,2.5178783364078,0.43843166829278,-0.103563791212882,4.26797303457045,8.32750029988245,-2.5078377276108,5.32098469251903,2.44803607356287,184.464218766984,-6.73641904373485,-1.38249970011758,-0.521959431902669,-77.7674336845142,46.9932519785578,173.515917612148,8.84770417286082,7.87964658727688,3.8516781027102,-72.5696514021328,-173.423345876358,191.961755302712,3.70946189093875,0,0,-5.35983701696918,70.2559959145856,96.8951104452977,0.211463022667327,9.90417741636582,14.0366497028012,14.0893502223614,-12.1908203890831,82.0218740719092,92.8553244014138,0.0989850907716525,7.26486339336507,6.04223348017752,6.1072488693567,-3.42520296043953,6.34020284048654,-2.43391886380538,4.12620934075322,-12.1280388458095,-167.621040552104,-0.653312021687508,9.49135187006691,-0.25885169013749,11.567649037133,-72.7405692524086,-47.3244042409449,-3.36309281637106,9.54052833010727,-1.75341329385717,5.81118196121314,0.692196493543985,-5.96016896282091,1042.77704339899,-0.175553413802992,0.123640979743031
65.345,-28.7324433903646,-67.4678398260557,-79.3505593759275,-0.208807516891817,-5.49362708542391,-6.98483872100238,-7.04808502724637,-73.58288684092,32.5464598480887,-40.4680709775978,0.155185449428625,2.51968587308046,0.783181964550087,0.252268149486299,4.13317583211849,8.34847958446141,-2.35433301890261,7.10721014333291,-3.51544680698535,176.7331375363,-6.81056573031643,-1.75162969042867,-0.56755062539046,-78.2468818195664,40.5940888231292,189.097415754417,8.76284477574003,9.43466200698462,2.49842347581226,-76.9860152867379,-167.968321109122,200.881240196832,2.3741562434919,0,0,-4.35478777554305,67.4417792801838,92.2714646872831,0.19194501487447,9.59070609093562,13.3595641781926,13.430044290538,-10.6058430369038,81.9721874329637,88.7702410967918,0.0679806143709564,6.80583354642339,6.68357529535226,6.78868924268049,-2.43418196964316,6.58997427384876,-2.40201864533438,1.66378173818339,-12.6470549001512,-163.910727079111,-0.742262921265739,9.496460939127,0.142491148978901,8.76448774786375,-63.5238087892088,-41.7215220504574,-2.94426047981744,9.59161859435525,-1.69771090916542,4.99929618717159,0.0869093416287102,-6.16753789582927,1015.26101018021,-0.168533916501552,0.127124038774183
65.35,-29.8330190723111,-61.7536701800143,-75.6509488172789,-0.200123643128549,-5.54783340774743,-6.51958423686656,-6.56025691836042,-72.4935421830881,50.9792644940155,-23.5778329794021,0.14943548471969,2.50215911279304,1.14680311481528,0.618796096729955,3.98930833404795,8.48207083266976,-2.12568645946906,8.24267231946284,-9.16738423118508,168.848335944515,-6.94672604099034,-2.09845312327728,-0.613793749770278,-78.6877456253822,35.8524241490671,202.900576063125,8.73269545411145,11.2405543334984,1.23952891149335,-78.8652851074968,-160.343341672943,213.056027064248,1.6034375038283,0,0,-3.29913324999651,65.2298418210546,87.2565630301254,0.174431577379251,9.27535072810146,12.5600495239076,12.6471748669734,-8.82582967336629,80.8662196834186,84.949444690509,0.0370443444610233,6.320269502409,7.40630051730701,7.5493255910953,-1.30636354726874,6.94707395655956,-2.34293020862684,-1.4412949948646,-11.1785661081173,-160.364786540247,-1.28690416396135,9.6891406240429,0.515005206482986,4.61275593626023,-50.5008822663333,-33.5639558018369,-2.38188042254445,9.6500716157831,-1.64418021971252,3.78541413545068,-0.452593782260932,-6.39233086156448,987.258229305761,-0.161134125714004,0.130916708714582
65.355,-30.933647235097,-56.0392280543751,-71.9511618430774,-0.191439355275643,-5.60204231489392,-6.05430756711804,-6.07753281918278,-71.4041455799671,69.4129481063551,-6.68678957192707,0.143685245824274,2.48463151674384,1.510441604318,0.977237930831556,3.84543397567041,8.61566845116318,-1.89702899704761,9.37818863999103,-14.8195911674455,160.963158366769,-7.0828928444548,-2.44529309436598,-0.660039079248774,-79.1286304537437,31.1105333692078,216.704394574126,8.70254469481553,13.0465327738039,-0.0194256830846921,-80.7446445410458,-152.717998640396,225.231394485137,0.83268201252006,0,0,-2.24342838567139,63.0177988859128,82.2414222378926,0.156917304757549,8.95998032757893,11.7604967448477,11.8628100850746,-7.04573143007273,79.7601991959141,81.1284660899386,0.00610659935820905,5.8346823043226,8.12906020234039,8.30725777346846,-0.17849134498768,7.30419066753237,-2.28383895429322,-4.54651979318049,-9.71000729134479,-156.81867691357,-1.83157137781917,9.88182949686996,0.887537027281979,0.460826149747964,-37.4773347465324,-25.4060005605004,-1.81947354823568,9.70852742453733,-1.59064697765413,2.57147419988772,-0.992122632302112,-6.61713454652939,959.254113121562,-0.153733982068185,0.134709559508061
65.36,-32.0342229170435,-50.3250584083337,-68.2515512844287,-0.182755481512375,-5.65624863721744,-5.58905308298222,-5.60011651345845,-70.3148009221353,87.8457527522819,10.2034484262686,0.137935281115339,2.46710475645641,1.87406275458319,1.32793827005602,3.70156647759987,8.74925969937154,-1.66838243761406,10.513650816121,-20.4715285916452,153.078356774984,-7.21905315512871,-2.79211652721459,-0.706282203628592,-79.5694942595595,26.3688686951457,230.507554882834,8.67239537318694,14.8524251003177,-1.2783202474036,-82.6239143618047,-145.093019204216,237.406181352553,0.0619632728564604,0,0,-1.18777386012485,60.8058614267836,77.2265205807349,0.13940386726233,8.64462496474478,10.9609820905627,11.0767721516837,-5.26571806653519,78.654231446369,77.3076696836559,-0.0248296705517241,5.34911826030821,8.85178542429514,9.06194178841223,0.949327077386732,7.66129035024317,-2.22475051758569,-7.65159652622848,-8.24151849931085,-153.272736374706,-2.37621262051478,10.0745091817859,1.26005108478606,-3.69090566185555,-24.4544082236569,-17.2484343118799,-1.25709349096269,9.76698044596519,-1.53711628820123,1.35759214816682,-1.53162575619175,-6.8419275122646,931.251332247118,-0.146334191280637,0.13850222944846
65.365,-32.5761089699956,-51.1362221096012,-65.1341063089337,-0.172864314607667,-5.65064360500914,-5.5249603951651,-5.52915761603441,-69.2927662552521,96.7695686876339,27.2655563435302,0.132580454036961,2.37101745304981,1.99670381582048,1.43060799670846,3.0322582506952,8.28946167165118,-1.27812293404689,9.03085545275589,-22.3594656359492,145.585940733745,-7.07568366650928,-2.42029539849939,-0.687232016370205,-79.4925037845443,23.0050172336843,242.261082059025,7.80052455328864,15.1902849166714,-1.87151093946511,-85.1656390349796,-134.536713174085,261.193459338522,0,0,0,-0.555500287788977,61.3540656143173,73.3525601621044,0.125820619864668,8.28552004467624,10.6364980274611,10.7638789852313,-4.61944298313675,70.5789081599106,75.2383281886247,-0.0531797791556756,4.82526176458138,8.51402196050272,8.75254564662686,0.875564562673814,7.84178655753188,-2.35913767773757,-8.92563767223157,-8.96046908268605,-154.596092121994,-2.33904716931635,10.4568175140354,1.12303478671495,-3.81856146508018,-28.7980164259262,-18.247878096541,-0.778065362186908,9.73896212510018,-1.52433016689685,2.93344678966476,-1.50416629791598,-7.58604592538667,910.532635500289,-0.139159615430067,0.142842817499009
65.37,-33.0691257602422,-52.5177944419929,-62.0677164313426,-0.16286811788498,-5.6398100993637,-5.49594096677352,-5.49844749805919,-68.2766688837856,104.861637304622,44.3418045996712,0.127260447910164,2.26806729636127,2.098271815191,1.50610030851877,2.31705021249802,7.7778128443255,-0.873755312450804,7.31924647245495,-23.9182523858661,138.128215891005,-6.90788485754763,-1.98566897528727,-0.662474815048002,-79.3702460002371,19.7617898999792,253.834818973441,6.85511486710065,15.3997904515803,-2.40647442426134,-87.765144334334,-123.724695211393,285.994678667844,0,0,0,0.0397281450319331,62.1435355185412,69.5785427533555,0.112581657635101,7.92260911773344,10.3535584038906,10.4905547113953,-4.07231386133729,61.8947360654075,73.3222078033034,-0.081302333156781,4.29808486975201,8.08356710602763,8.34660211133185,0.696762553124511,8.00683456634662,-2.51043168581773,-10.0395419292528,-9.87061036586195,-156.3450576475,-2.25102156461516,10.8556835353376,0.941481977018738,-3.59442219385029,-34.6595979735441,-20.0477843655083,-0.306348774403301,9.70338585210488,-1.51510663648844,4.75310108947056,-1.42714386888044,-8.37552566723844,890.451794427829,-0.132005100087617,0.147231079994525
65.375,-33.5621660599443,-53.8994326545207,-59.0011803332623,-0.15287144449467,-5.62897607712365,-5.46692015459345,-5.47268053523888,-67.2605230598193,112.954091791079,61.4188671349718,0.121940188099417,2.16511223050499,2.19984465782124,1.57668161829277,1.60180806967835,7.26613961907758,-0.469368408625847,5.60755587425404,-25.4771134663705,130.670135427415,-6.74007804711685,-1.5510218269584,-0.637716433181174,-79.2479823860799,16.5184079133088,265.409107780323,5.90966009914803,15.6093059767393,-2.94146341873689,-90.3647735908341,-112.912161678725,310.797080640784,0,0,0,0.634984961260064,62.933043068557,65.8043453809706,0.0993420641069678,7.55968088542004,10.070605288373,10.2152361121979,-3.52515864974136,53.2101498670421,71.4059960479767,-0.109426228179011,3.77088283654609,7.65309172535663,7.93664015097379,0.517952017419585,8.17189044545886,-2.66173290833726,-11.1534993026852,-10.7807950490323,-158.094106572249,-2.16299176242197,11.2545685765255,0.759920509995278,-3.37027223456207,-40.5214590300814,-21.8477764628227,0.165390307137771,9.66780788265863,-1.50588266625692,6.57284215930639,-1.35011776703822,-9.16504305535132,870.369995802508,-0.124850243582831,0.151619551743892
65.38,-33.9149724578857,-54.8880958557129,-56.4902811182766,-0.142908554138504,-5.58749052427346,-5.44615364074707,-5.45978851580009,-66.533396396637,118.744834899902,76.3680262356956,0.116601338882214,2.068265742507,2.27252745628357,1.61484952470136,1.08323433653615,6.80663384419914,-0.226683077900428,4.05863241679438,-27.0402957551374,123.920896676872,-6.58211228460256,-1.21293734614469,-0.60240927499405,-77.916781123748,14.7212433323235,277.333957822933,5.02813874852579,15.6605478835184,-3.43139494831413,-93.5392288084416,-102.368943975281,331.969114715714,0,0,0,1.06093475341797,63.4979934692383,62.8865276389182,0.0875071155339272,7.22705568185372,9.86813163757324,10.0184892161946,-3.13362907409668,46.9956932067871,69.2033322797522,-0.133477174549881,3.26610711516826,7.345055103302,7.64510195866341,0.360907647105521,8.26226077979832,-2.73481854998807,-11.1504314076113,-13.6864846529475,-159.273846042236,-1.74886206622729,11.5244389740332,0.648267291352333,-1.64876234396338,-45.3149358893291,-25.0995154078348,0.318715822769576,9.62225638872521,-1.52682886752788,7.98629519495074,-1.38261529603774,-9.89812720975874,850.45215595966,-0.118323838757288,0.155930574055955
65.385,-33.9149724578857,-54.8880958557129,-55.3770901201567,-0.133029000318733,-5.46887066467962,-5.44615364074707,-5.47188290206454,-66.533396396637,118.744834899902,85.9653245578153,0.111214818626801,1.98677381209308,2.27252745628357,1.57836203651679,1.05944334153894,6.47831811323749,-0.39084094338125,2.91901438482875,-28.6146134487806,118.954159326218,-6.44888271261813,-1.1177733661558,-0.540552688001278,-73.543350068086,16.562842574701,290.142912043042,4.30734296338416,15.313540134174,-3.8080321378177,-98.1606303126952,-92.501628255651,344.009733798799,0,0,0,1.06093475341797,63.4979934692383,62.1230981085786,0.0792046404505749,6.97062513408955,9.86813163757324,10.0224483476573,-3.13362907409668,46.9956932067871,66.2795102249208,-0.147283538515557,2.81767728344213,7.345055103302,7.65768797796211,0.25860636861747,8.16471770030971,-2.61110537600253,-8.33663224621165,-21.6138791588115,-159.021250292883,-0.514109425871539,11.4697196855396,0.712502977844824,3.84078946465458,-47.4208795205645,-32.0047782767812,-0.329145626401557,9.5516012339144,-1.62369470493888,8.37765717156155,-1.69070867104176,-10.4893333537598,830.943540061939,-0.113377690126512,0.160047435958344
65.39,-33.9149724578857,-54.8880958557129,-54.263952201905,-0.123149917582016,-5.35025646119199,-5.44615364074707,-5.48773345274042,-66.533396396637,118.744834899902,95.5621652555633,0.10582855521481,1.90528576742828,2.27252745628357,1.54155941356126,1.0356534809588,6.15001803723155,-0.554990981384221,1.77945069284175,-30.1888560748245,113.987658802635,-6.31565949336933,-1.02261392383523,-0.478699050492914,-69.1701275490947,18.4043540047934,302.951255498597,3.58658154767726,14.9665489310698,-4.18465136827161,-102.781811456397,-82.6347830355309,356.049778753565,0,0,0,1.06093475341797,63.4979934692383,61.3597049805627,0.0709025612510241,6.71420681360688,9.86813163757324,10.0248314570038,-3.13362907409668,46.9956932067871,63.3558275855985,-0.161089244157564,2.36926883402726,7.345055103302,7.66657196434759,0.156309968122863,8.06717927193112,-2.4873981009858,-5.52296725414066,-29.5408956657004,-158.768666587958,0.720584338237773,11.4150030062053,0.7767356014112,9.33007951703524,-49.5267227348807,-38.9097118846715,-0.976976183838512,9.48094944812681,-1.72055592353253,8.76900048700621,-1.99878735534508,-11.0805113075003,811.435854386224,-0.108431777341083,0.164164101557953
65.395,-33.9149724578857,-54.8880958557129,-53.150761203785,-0.113270363762245,-5.23163660159815,-5.44615364074707,-5.50682534050914,-66.533396396637,118.744834899902,105.159463577683,0.100442034959397,1.82379383701437,2.27252745628357,1.50615046743156,1.01186248596159,5.8217023062699,-0.719148846865043,0.639832660876115,-31.7631737684677,109.020921451981,-6.1824299213849,-0.927449943846337,-0.416842463500142,-64.7966964934328,20.2459532471709,315.760209718705,2.86578576253563,14.6195411817254,-4.56128855777519,-107.40321296065,-72.7674673159009,368.090397836649,0,0,0,1.06093475341797,63.4979934692383,60.5962754502231,0.0626000861676718,6.45777626584271,9.86813163757324,10.0258629644727,-3.13362907409668,46.9956932067871,60.4320055307671,-0.174895608123239,1.92083900230113,7.345055103302,7.67205457666102,0.0540086896348122,7.96963619244251,-2.36368492700026,-2.70916809274097,-37.4682901715645,-158.516070838605,1.95533697859352,11.3602837177117,0.840971287903692,14.8196313256532,-51.6326663661162,-45.8149747536179,-1.62483763300965,9.41029429331601,-1.81742176094352,9.16036246361702,-2.3068807303491,-11.6717174515013,791.927238488503,-0.103485628710307,0.168280963460341
65.4,-33.9627706023705,-54.8464395083532,-52.1387430601704,-0.103104615335708,-5.10574247221289,-5.45125767060639,-5.53370699835729,-66.4217263378707,119.328024205888,114.317678627641,0.0942182136982329,1.74440282900843,2.2703157100112,1.47162712078362,0.98903236094817,5.50258249706688,-0.847937829618075,-0.528541481304277,-33.5391127440578,104.021472011741,-6.03871194085954,-0.856836919501974,-0.3576776662756,-60.5448276356684,22.2202010076963,328.149914267485,2.15627977171518,14.3371860555511,-4.95022302690612,-111.767859891521,-63.4832496005625,379.502478293548,0,0,0,1.1049260379062,63.164742542711,59.8715836210552,0.0547115404635877,6.20517428831058,9.84448296127765,10.0021312756299,-3.10021266730033,46.9123804382428,57.5307090866274,-0.189058647077227,1.47683593401359,7.30269165085556,7.63214164401605,-0.0181313574284585,7.85503491246255,-2.2554187786903,-0.303127053576021,-44.75905950032,-157.950174875205,3.1169003656411,11.2987753869987,0.916449863881241,19.9635895914975,-52.3441364880199,-52.1370793513382,-2.21564080635309,9.34884274960884,-1.90819692112132,9.40756079181923,-2.58187174927143,-12.2515769153917,771.503491246255,-0.0984968922817485,0.172698280371521
65.405,-34.5527780691954,-54.3322447368248,-52.273747420314,-0.0896865371799139,-4.89726116122101,-5.5142604453031,-5.62058620170288,-65.0433011039411,126.526756474942,118.50069967757,0.0784931041474311,1.68879615628117,2.24301450764262,1.41675545430313,0.977088084199981,5.28758551559954,-0.575608319759437,-2.02378797792906,-37.6031160425764,98.6480220771246,-5.77593785239944,-1.06466733492041,-0.329011402079952,-57.6693536036977,25.7002618874147,335.791302182189,1.57441793049268,14.7880286919475,-5.47887621731287,-113.222671924625,-60.8077314267136,383.791672156338,0,0,0,1.64794264666853,59.0511825479312,59.5858725365309,0.0515136118587092,5.99585165364745,9.55257004822814,9.70925053630471,-2.68772951054164,45.8839899839098,54.8832162168292,-0.207275837540164,1.08278494454907,6.7797685639181,7.10905080936382,0.251809297080545,7.54687257235934,-2.32230672848013,-2.52092856336266,-44.8327896037038,-153.830136698115,3.44895125924068,11.1602217767197,1.11950256860041,21.190458511805,-37.2383129067337,-51.8480573460735,-2.15957153203448,9.39175291375668,-1.92993808690355,8.01963573343965,-2.48153986331589,-12.7030706584879,740.687257235935,-0.093022140093748,0.180526301371186
65.41,-35.1427574029158,-53.8180744834525,-52.4087453430954,-0.0762690988333012,-4.6887897911652,-5.57726021586217,-5.70895210384273,-63.6649415969442,133.725145489549,122.683521270077,0.0627687444111225,1.633192135026,2.21571460706703,1.36816002302039,0.965144376986255,5.07259878575252,-0.303291795286544,-3.51896317727667,-41.666925558752,93.2748283627038,-5.51317629369752,-1.2724878404392,-0.300346504767015,-54.7940166818753,29.1801568286971,343.432325735462,0.992583833969825,15.2388498309837,-6.00750420014807,-114.677414588473,-58.1323408285931,388.080661499108,0,0,0,2.19093336297383,54.9378186984879,59.300175075461,0.0483158357394595,5.7865390000369,9.26067105435243,9.41570288580924,-2.2752660220624,44.8556485659327,52.2358495864393,-0.22549215935965,0.688752744469901,6.25687041132581,6.58380026643098,0.521737080110695,7.23872492624527,-2.38919148887698,-4.7386243225528,-44.9065161914429,-149.710294975258,3.78098631978221,11.0216747730405,1.32254559123371,22.4172689317826,-22.1332096107604,-51.5590491221365,-2.10350493124602,9.43466103183528,-1.95167821600995,6.6317768549694,-2.381212761448,-13.1545428731776,709.872492624529,-0.0875476489563001,0.188353949110266
65.415,-35.7327648697406,-53.303879711924,-52.543749703239,-0.062851020677507,-4.48030848017332,-5.64026299055888,-5.79818893942188,-62.2865163630146,140.923877758604,126.866542320006,0.0470436348603207,1.57758546229875,2.18841340469845,1.32721902744281,0.953200100238066,4.85760180428518,-0.0309622854279058,-5.01420967390145,-45.7309288572706,87.9013784280877,-5.25040220523742,-1.48031825585764,-0.271680240571367,-51.9185426499047,32.6602177084155,351.073713650166,0.410721992747316,15.6896924673801,-6.53615739055481,-116.132226621577,-55.4568226547442,392.369855361898,0,0,0,2.73394997173616,50.8242587037081,59.0144639909367,0.045117907134581,5.57721636537377,8.96875814130291,9.12162343633316,-1.86278286530371,43.8272581115998,49.5883567166412,-0.243709349822587,0.294701755005384,5.73394732438835,6.05676978327776,0.791677734619698,6.93056258614207,-2.45607943866681,-6.95642583233944,-44.9802462948267,-145.590256798167,4.11303721338179,10.8831211627616,1.52559829595288,23.6441378520901,-7.02738602947431,-51.2700271168717,-2.04743565692741,9.47757119598312,-1.97341938179218,5.24385179658982,-2.28088087549247,-13.6060366162739,679.056258614209,-0.0820728967682997,0.196181970109932
65.42,-36.322744203461,-52.7897094585517,-52.6787476260204,-0.0494335823308943,-4.27183711011751,-5.70326276111795,-5.88766635053391,-60.9081568560178,148.122266773211,131.049363912514,0.0313192751240121,1.52198144104358,2.16111350412285,1.29512884191276,0.94125639302434,4.64261507443816,0.241354239044987,-6.50938487324907,-49.7947383734461,82.5281847136669,-4.9876406465355,-1.68813876137643,-0.24301534325843,-49.0432057280823,36.1401126496979,358.714737203439,-0.171112103775536,16.1405136064164,-7.06478537339001,-117.586969285426,-52.7814320566236,396.658844704668,0,0,0,3.27694068804146,46.7108948542648,58.7287665298668,0.0419201310153312,5.36790371176322,8.6768591474272,8.82715068086104,-1.45031937682447,42.7989166936227,46.9409900862513,-0.261925671642073,-0.0993304450737883,5.21104917179607,5.52841339912995,1.06160551764985,6.622414940028,-2.52296419906366,-9.17412159152959,-45.0539728825658,-141.47041507531,4.44507227392331,10.7445741590824,1.72864131858619,24.8709482720676,8.07771726649898,-50.9810188929347,-1.99136905613896,9.52047931406172,-1.99515951089858,3.85599291811957,-2.18055377362457,-14.0575088309636,648.241494002802,-0.0765984056308517,0.204009617849012
65.425,-36.9898814596321,-43.2361039252161,-51.1321986899566,-0.0284381635464449,-4.03192346572408,-5.65909944871751,-5.86960810661729,-57.6430794986701,161.487937910804,136.335631050617,0.0176215819391695,1.47087447635072,1.98682401365482,1.12588122903891,1.10610062086305,4.33353661039561,0.462580429986131,-7.6117372953024,-48.3707159277567,75.2226479134479,-4.85648801888242,-1.43557288726972,-0.21833470162656,-46.1016755890788,37.1748548880692,364.945244832634,-0.63762621775073,16.9334064083656,-7.16882289447488,-109.727449303685,-54.4041389647562,401.853509352838,0,0,0,3.91282684108905,42.4783911253601,56.5702542320369,0.0385786863585189,5.06454738949741,8.02397067423653,8.17133297447914,-0.986009265999092,33.882098012257,44.0204002049545,-0.272897884660344,-0.449394260592734,4.32435049320223,4.63526620377439,1.0827782338755,6.4744517420083,-2.41204448663347,-9.02997353999627,-39.741991208716,-136.70992120278,3.74819436605266,10.5831574221356,1.53575427164042,21.7932980871134,15.7917942315038,-51.8689406306438,-2.02582922558131,9.57630520401792,-1.83486144707173,3.08652088803174,-1.11682584980721,-14.7958827609371,608.16899276515,-0.0610065201561044,0.215657010321234
65.43,-37.6660533123965,-32.6203945539787,-49.3880612522582,-0.00655304906621153,-3.78832647146683,-5.60234114549876,-5.83798559532956,-54.1563867464319,175.577879467888,141.751329852711,0.00416285945163683,1.42029887762509,1.79526474029155,0.949953459207724,1.29171802042177,4.01341384883781,0.677789009184656,-8.66785347099885,-46.3016581370054,67.6903476414996,-4.74081340756322,-1.12890066191183,-0.194123736466718,-43.1525209852472,37.9221068991752,371.009610042766,-1.09055925980788,17.7664685162715,-7.22294297997719,-100.773428422649,-56.5320137505338,407.154362057017,0,0,0,4.55959924838904,38.2321076847235,54.1917019140859,0.0352205310894713,4.75015211504514,7.32868158808116,7.47275029226914,-0.515629170159072,24.0384401523582,41.0678477369787,-0.283017946115761,-0.794270805507641,3.39493321385805,3.69871287084352,1.07470791215556,6.34532659448919,-2.28022923187439,-8.60819129372756,-33.7971863203618,-131.874370410912,2.93040176509827,10.4190608804967,1.29633472728206,18.209809553854,22.6366226532346,-52.895166725896,-2.07092925407514,9.6336466422461,-1.65317278559239,2.38978310389733,0.0600960676847095,-15.567943508026,567.010351993432,-0.0442261352663188,0.227752804663266
65.435,-38.3422574083468,-22.0041789737206,-47.6438406455436,0.0153331090034778,-3.54471786131171,-5.5455801357661,-5.80482516421086,-50.6695277316048,189.668492902401,147.167286901851,-0.00929650481370742,1.36972086720718,1.60369633244382,0.785133506852208,1.4773442711273,3.69327582225872,0.893007850582371,-9.72402000748762,-44.2325016834441,60.1576881925797,-4.62513328031195,-0.822213812920099,-0.169911616809467,-40.2032257512785,38.6693945429172,377.074264431534,-1.54351389993102,18.5995703486593,-7.27706564619026,-91.8189805700386,-58.659990003804,412.455467531818,0,0,0,5.20640249696542,33.9856217604933,51.8130361751097,0.0318622156871317,4.43574184868621,6.6333593471365,6.77370350109755,-0.0452266442920696,14.1943128986365,38.1151544768391,-0.293138490145279,-1.13916379582548,2.46547161534553,2.76166272129133,1.06663720560316,6.21619528965058,-2.1484076915183,-8.18638893481538,-27.8520979545917,-127.038589036297,2.11257016778696,10.2549565139309,1.05690376622711,14.6261501423088,29.4817774699118,-53.9214417566351,-2.11603143315922,9.69099081479492,-1.47147546030772,1.6930120958926,1.23707410657844,-16.3400410707529,525.84974857612,-0.027444950205588,0.23984917579202
65.44,-38.896315868792,-12.6040423738822,-45.2587344290979,0.0392381238645098,-3.316260791319,-5.43819283503491,-5.71897891749659,-47.4277215391359,202.327641846436,153.228902430192,-0.0243036882130489,1.31753052642906,1.43466857140327,0.654270860232223,1.68365792540062,3.40433751393884,1.10359452720734,-10.664597323404,-41.8782133174567,52.4894581516394,-4.49407251951434,-0.533139338203042,-0.149066818688663,-36.788720795353,38.4999631082099,382.898711386013,-2.03312909169674,19.453551746727,-7.25754276408172,-83.3265522662703,-60.9472791369136,417.961416024098,0,0,0,5.79237263396639,30.5268646888962,49.2614064507598,0.0281474076104135,4.11132181199627,6.02790312987903,6.16397463166467,0.336524923038123,5.59651541361292,34.8078027992212,-0.304986113297392,-1.46066015982977,1.6186508108536,1.90696256744441,1.04740205229725,6.10720045606607,-2.06846202999513,-7.95068147721223,-22.7601976409982,-122.766797017658,1.48852542818839,10.0976036485284,0.822672747547405,11.5447955274466,33.5195185412568,-55.9393972299138,-2.10629967451111,9.7055188312688,-1.33467849216246,1.17715736119887,2.19520152371954,-17.2281257765659,492.606567852355,-0.0107347952165462,0.250357691105377
65.445,-38.8848287553658,-8.83342082202961,-39.9048475420699,0.072499510394486,-3.15791385991677,-5.09631062878486,-5.39610537998352,-45.3199605187988,208.360633723249,162.282390516616,-0.0464833323501591,1.2578589686629,1.36998815400461,0.63925212644821,1.98583676844623,3.25981719769963,1.29278475937504,-11.0700976495521,-38.2027583612497,44.1912994773431,-4.29174407677945,-0.325555611241263,-0.143811534461787,-31.2187683153816,34.0848755571086,387.612247177159,-2.69266215386291,20.4044622131839,-6.89693924427576,-76.9715994540635,-63.9730098725273,424.417534621363,0,0,0,6.09676309717463,30.7153956850466,45.9080416336424,0.0227805737648759,3.74045630566733,5.83848178220151,5.96957543953645,0.307808893612936,2.76854921839951,29.857029779518,-0.324835557408302,-1.67388581554568,1.15433778124584,1.43456616729548,0.976455715234368,6.09143460338543,-2.22874819891497,-8.57677398078502,-21.6183087225649,-121.105867681756,1.76180020798617,9.97147682708331,0.612461378472189,10.7889429195064,24.5563393320776,-62.5506745474336,-1.84261231548007,9.52175583920131,-1.40579228196978,1.49904352636007,2.14002106063757,-18.653621422634,496.022502599827,0.00565088461367974,0.253515175072644
65.45,-38.8733421896753,-5.06297906330838,-34.5512159424196,0.10575931093426,-2.99957447891181,-4.75444472437566,-5.07030263241296,-43.2123000020389,214.393337931175,171.335446908967,-0.0686619189036273,1.19819025619321,1.30531082073801,0.6356040023667,2.28800120281155,3.11530377256838,1.48196597045595,-11.4755786403805,-34.527478660381,35.8935364810306,-4.08942528159571,-0.11798178241638,-0.138556500820656,-25.6490814253627,29.6699985289689,392.325558214549,-3.35216376776176,21.3553273377342,-6.53635291899202,-70.6169496626851,-66.9985963333587,430.87334537395,0,0,0,6.40113904624672,30.9039176915443,42.5548367137603,0.0174139958240611,3.36960848317905,5.64906946663097,5.77429626040463,0.279094233443396,-0.0592821319638586,24.9064928256656,-0.344684055045623,-1.88710130410272,0.690046891301895,0.962001835684713,0.905512761079035,6.07566950246202,-2.38902672496961,-9.20283663062408,-20.4764742523921,-119.445017543322,2.03506195732526,9.84535601969603,0.40226003282674,10.0331263526023,15.5935875108065,-69.1616366219,-1.57893752975434,9.33800160943556,-1.47690268088497,1.82091434314415,2.0848432287049,-20.0790490973286,499.438274466566,0.022035783131688,0.256672508482789
65.455,-38.8618550762491,-1.29235751145574,-29.1973290553916,0.139020697464236,-2.84122754750958,-4.41256251812561,-4.74119105241211,-41.1045389817019,220.426329807988,180.388934995391,-0.0908415630407374,1.13851869842705,1.24063040333935,0.642994148157818,2.59018004585717,2.97078345632917,1.67115620262365,-11.8810789665287,-30.8520237041739,27.5953778067344,-3.88709683886082,0.0896019445453987,-0.13330121659378,-20.0791289453913,25.2549109778675,397.039094005695,-4.01169682992793,22.3062378041911,-6.17574939918607,-64.2619968504783,-70.0243270689724,437.329463971215,0,0,0,6.70552950945496,31.0924486876947,39.2014718966429,0.0120471619785235,2.99874297685012,5.45964811895344,5.57792332265854,0.250378204018209,-2.88724832717727,19.9557198059624,-0.364533499156533,-2.10032695981863,0.225733861694132,0.489171746407519,0.834566424016155,6.05990364978138,-2.54931289388945,-9.82892913419687,-19.3345853339589,-117.784088207419,2.30833673712304,9.7192291982509,0.192048663751523,9.27727374466211,6.63040830162727,-75.7729139394198,-1.31525017072331,9.15423861736807,-1.54801647069228,2.14280050830536,2.02966276562293,-21.5045447433967,502.854209214038,0.038421462961914,0.259829992450056
65.46,-38.822646001511,2.33652973208465,-23.558877792218,0.170359601148465,-2.70471897321506,-4.11973424515159,-4.45756424530417,-38.9572036070138,226.806682014489,189.516585503371,-0.112906583342864,1.06232028637854,1.18970538988353,0.674669039979093,2.81805806532347,2.91805806532348,1.6553329996246,-12.7827534371229,-28.3131025490096,19.7021463961772,-3.63216393442622,0.419072957076735,-0.113410586910268,-13.6490891759402,18.38894435252,400,-4.70996302792164,23.0765231525267,-5.81787953377367,-59.5220130076413,-72.5602794522622,444.148123131137,0,0,0,6.98205506757388,30.6507484414076,36.3039342817203,0.00602870838048959,2.65422754222384,5.22656004085452,5.33660690995175,0.1747511921065,-6.13403570595022,14.8783676810015,-0.381396872597333,-2.28346307136065,-0.194617302862907,0.0599469724488946,0.826106369665895,6.05585508697286,-2.52216393442621,-9.187341623524,-19.6919213127113,-115.780554667211,2.63418395695159,9.46727493430108,-0.0980873482667983,9.16148475677113,1.23492632915734,-81.1342905830788,-1.27418085274776,9.05165853322544,-1.58193707439572,1.79852523051847,1.53732737910686,-22.4068305235514,511.830934801652,0.0531499978775391,0.26072199364998
65.465,-38.7366073390429,5.72580834902388,-17.4399731056032,0.198449308361981,-2.60510903397793,-3.90978806820221,-4.25304632339597,-36.7431165981925,233.773535167516,198.769085361026,-0.134776914389353,0.958206246753798,1.16202017973636,0.739425101110023,2.92040683268676,3.02040683268676,1.29317582280067,-14.5225852849888,-27.6942796757463,12.4933459092096,-3.28837704918032,0.954435740207748,-0.0687970216493453,-5.76638734007857,7.38296895736097,400,-5.47362886231797,23.5416368854223,-5.46464476867039,-57.5104658395831,-74.2687151274325,451.578906715153,0,0,0,7.21149450412636,29.1444026119016,34.1765760221646,-0.00109025707373914,2.3542424221819,4.91971569095889,5.02008455645927,0.0198797976814032,-10.0881941966607,9.5874241592647,-0.393214992186068,-2.41575937155264,-0.540682459031684,-0.295510200241182,0.923206482292601,6.07160105118259,-2.1783770491803,-6.40425864900482,-22.5819213281608,-113.198346133227,3.0488276811413,9.00276899011387,-0.52322838192967,10.1269780354751,1.8667088437455,-84.3839206452939,-1.6091881571701,9.08622781744947,-1.55302460773196,0.328901866735139,0.306517859647068,-22.4252007350413,530.201226379677,0.0650783708756583,0.257786811143999
65.47,-38.65056457383,9.1152485833689,-11.3207766396414,0.226540355030326,-2.50549434485099,-3.69983187999076,-4.04461396343627,-34.5289240108576,240.740720534226,208.022026423196,-0.15664828832035,0.854087242461681,1.13433364942276,0.813165513583752,3.02276048054061,3.1227604805406,0.93100137654864,-16.2625000965592,-27.0754272939773,5.28420167132468,-2.94457377049179,1.48982405205857,-0.024181328995105,2.1166903816176,-3.62353125661433,400,-6.23733111204186,24.006772797219,-5.1113931596033,-55.4988227511031,-75.977232269184,459.010044635328,0,0,0,7.44094488147501,27.6379849524481,32.0491163197469,-0.0082095619951108,2.05424299738005,4.61285670922167,4.70195851810455,-0.13499898177037,-14.0425412410163,4.29622833942473,-0.405033675320631,-2.54806198028024,-0.886764117282202,-0.651700668326449,1.02031122512829,6.08734776623703,-1.83457377049178,-3.62104296345734,-25.4720591529668,-110.616014466893,3.46349117757478,8.53824089600801,-0.94838968839945,11.0925173536278,2.49852148481856,-87.6337056657876,-1.94421143638164,9.1207987501063,-1.52411076238018,-1.14079157588867,-0.924350350839357,-22.4435718225129,548.572393943186,0.0770073126770296,0.254851488674139
65.475,-38.564525911362,12.5045272003081,-5.20187195302659,0.254630062243842,-2.40588440561386,-3.48988570304138,-3.83222738558446,-32.3148370020364,247.707573687253,217.274526280852,-0.178518619366838,0.749973202836943,1.10664843927559,0.894876473977073,3.1251092479039,3.22510924790388,0.568844199724715,-18.0023319444251,-26.456604420714,-1.92459881564292,-2.60078688524589,2.02518683518958,0.0204322362658177,9.99939221747925,-14.6295066517734,400,-7.00099694643819,24.4718865301146,-4.75815839450002,-53.487275583045,-77.6856679443543,466.440828219344,0,0,0,7.67038431802749,26.1316391229421,29.9217580601912,-0.0153285274493395,1.75425787733811,4.30601235932603,4.38216502126442,-0.289870376195467,-17.9966997317268,-0.994715182312063,-0.416851794909366,-2.68035828047223,-1.23282927345098,-1.00881239824205,1.117411337755,6.10309373044677,-1.49078688524588,-0.837959988938155,-28.3620591684163,-108.033805932909,3.87813490176449,8.0737349518208,-1.37353072206232,12.0580106323317,3.13030399940672,-90.8833357280026,-2.27921874080398,9.15536803433033,-1.49519829571642,-2.610414939672,-2.15515987029915,-22.4619420340028,566.942685521211,0.0889356856751488,0.251916306168158
65.48,-38.4235231588745,15.5800812664113,-0.0928374200185922,0.279088907797411,-2.30346220252421,-3.3238179885133,-3.65976386991922,-30.007730629816,252.352270483627,225.140147974084,-0.197131618043525,0.613559732817022,1.07892993420883,0.983352668891754,3.22610463220727,3.29657587841395,0.346513179344443,-20.0541252427073,-26.863252864883,-8.0228902691973,-2.44261781155166,3.06022922779825,-0.103214455897458,17.9371405446862,-29.5512492905717,400,-8.02619132340736,24.9637262193056,-4.09544406567309,-52.2639427963822,-77.2257958567325,468.340948790486,0,0,0,7.84523952927375,22.9285517974724,28.0577778569323,-0.0270808660540217,1.5147655484015,3.97673357686785,4.03821891751839,-0.493333596903629,-21.1081469907056,-5.53541975842136,-0.426627773832816,-2.80805999628656,-1.49753856093878,-1.28573446792756,0.993162541067908,5.99631429789583,-1.45663857748349,-1.12470860413911,-29.3817339187723,-104.803234838514,3.98174880244777,7.99845007900083,-1.55409424924134,12.3393060002545,6.79045475557734,-93.6520179966455,-2.42615485191345,9.17053031921387,-1.48251712322235,-3.25500011444092,-2.6949999332428,-22.4699993133545,575,0.0941675379872322,0.250628918409348
65.485,-38.2395937291961,18.410288468861,4.22683965525132,0.300709200234473,-2.19885172181334,-3.19204279692266,-3.51771112202305,-27.6281522856088,255.182474425806,231.921654585097,-0.213198365986723,0.451925118979802,1.05118777293643,1.07728591083579,3.3260341584531,3.34391091716197,0.233435031224159,-22.3494525674572,-28.0709781333512,-13.2531198592568,-2.42946918967721,4.48553983898879,-0.358297720261822,25.9172177218224,-47.5307722388955,400,-9.25560808361146,25.4764027953928,-3.19101661362539,-51.6564771078051,-75.0720529579953,465.920283009242,0,0,0,7.97743799178741,18.400220273553,26.3997102867649,-0.0424518571047092,1.32255130549476,3.62995669419498,3.67508539274343,-0.734740095591314,-23.5609931492319,-9.48964238052541,-0.434807575941403,-2.93216151770464,-1.69866911652449,-1.50046403987252,0.696003686705293,5.79382552102927,-1.66438680309983,-3.80962472516906,-28.940199949655,-101.066428967527,3.84237341057858,8.22723609961629,-1.54357535174177,12.0860732826725,12.8160948047087,-96.0447425204655,-2.42615485191345,9.17053031921387,-1.48251712322235,-3.25500011444092,-2.6949999332428,-22.4699993133545,575,0.0941675379872322,0.250628918409348
