time,hip_angle_l,hip_angle_l_velocity,hip_angle_l_velocity_filt,hip_angle_l_torque_estimated,hip_angle_l_torque_desired,hip_angle_l_torque_measured,hip_angle_l_torque_interaction,knee_angle_l,knee_angle_l_velocity,knee_angle_l_velocity_filt,knee_angle_l_torque_estimated,knee_angle_l_torque_desired,knee_angle_l_torque_measured,knee_angle_l_torque_interaction,thigh_imu_l_accel_x,thigh_imu_l_accel_y,thigh_imu_l_accel_z,thigh_imu_l_gyro_x,thigh_imu_l_gyro_y,thigh_imu_l_gyro_z,shank_imu_l_accel_x,shank_imu_l_accel_y,shank_imu_l_accel_z,shank_imu_l_gyro_x,shank_imu_l_gyro_y,shank_imu_l_gyro_z,foot_imu_l_accel_x,foot_imu_l_accel_y,foot_imu_l_accel_z,foot_imu_l_gyro_x,foot_imu_l_gyro_y,foot_imu_l_gyro_z,insole_l_force_y,insole_l_cop_x,insole_l_cop_z,hip_angle_r,hip_angle_r_velocity,hip_angle_r_velocity_filt,hip_angle_r_torque_estimated,hip_angle_r_torque_desired,hip_angle_r_torque_measured,hip_angle_r_torque_interaction,knee_angle_r,knee_angle_r_velocity,knee_angle_r_velocity_filt,knee_angle_r_torque_estimated,knee_angle_r_torque_desired,knee_angle_r_torque_measured,knee_angle_r_torque_interaction,thigh_imu_r_accel_x,thigh_imu_r_accel_y,thigh_imu_r_accel_z,thigh_imu_r_gyro_x,thigh_imu_r_gyro_y,thigh_imu_r_gyro_z,shank_imu_r_accel_x,shank_imu_r_accel_y,shank_imu_r_accel_z,shank_imu_r_gyro_x,shank_imu_r_gyro_y,shank_imu_r_gyro_z,foot_imu_r_accel_x,foot_imu_r_accel_y,foot_imu_r_accel_z,foot_imu_r_gyro_x,foot_imu_r_gyro_y,foot_imu_r_gyro_z,insole_r_force_y,insole_r_cop_x,insole_r_cop_z
10,-5.21368374509378,-139.497407261184,-114.719102984912,-0.119797482850863,-3.19957270818114,-2.25365873538764,-2.26710144039219,-42.4177424906691,-176.365091674064,-165.3122822932,0.0153012317562884,-1.10813781947455,-2.36488332468547,-2.39797178066806,-2.77399438150621,8.74115218504272,-1.48474382031324,16.8648300733007,-36.071613106383,178.821121277493,0.53804232248577,10.7906092390091,-0.146688764325212,-11.1388078155213,28.1971501718626,-177.032048978848,-10.5240450653417,17.5311442624979,6.41883529925012,-77.8795319498888,79.7600325189018,-370.438842413686,596.530461950457,0.272086342043698,-0.133119581917869,-17.0329045603344,9.99632206859759,-11.8241690980511,0.319234199843909,1.79472020606729,-0.039013651881409,-0.298759189313307,-6.37049534445466,-9.54219772325046,-35.5532894021348,-0.071178988830605,-1.40458293393603,-1.38543560477778,-1.66133456733808,0.726329338251719,7.20889625477506,-1.94642109823173,-13.188111929705,-6.59226521987374,-18.3005824479279,-5.92742034997439,8.65565892592251,-3.41979862688211,33.4538854198725,-10.9425953558128,-81.4466537240997,-1.62461153813696,9.72886750264206,-1.60291098523175,-8.18466475714217,2.96460606355876,-1.31094320668861,909.976804022211,-0.134169580611653,0.0423204613793307
10.005,-6.48179615084463,-135.728098592516,-121.802920031452,-0.116096763269673,-3.22526448216422,-2.59273748138735,-2.66482838698835,-44.0894101574145,-175.303434009517,-169.085320048066,0.0166958138532334,-0.973468284869872,-2.23251618055199,-2.31065819942834,-3.34030526302085,8.06343300485556,-1.13310131608068,17.543724956162,-36.1080309189197,186.034173162214,-0.987179604004237,10.9660969291451,0.140221820122602,-15.0486744614847,17.6714947546252,-177.160380525715,-10.4063606262207,17.5507030487061,6.41386270523071,-84.875,82.5650024414062,-371.804992675781,573,0.273989349603653,-0.130304753780365,-16.8634486809448,16.8769649544895,-8.27363095970462,0.325026377663517,2.03554006464521,0.0710971681369006,-0.205661073902273,-6.48149483888533,-8.05637509037097,-28.1020641050387,-0.0821698076548868,-1.25937518875353,-1.4503670078494,-1.73798647481637,1.17141436363402,7.22637160077584,-2.29221611840818,-8.56857172198431,-10.5076451154462,-23.6168169236681,-5.232519298611,8.97470899126517,-3.08182741248907,33.7723033090932,-21.2906235099052,-76.7778756509409,-1.23343515396118,9.73814964294434,-1.86811530590057,-8.32999992370605,2.48499989509583,-2.27500009536743,887,-0.12502908706665,0.0435722880065441
10.01,-7.66327465595321,-125.150629510888,-125.704998614336,-0.113158040169591,-3.20772880844713,-2.88314318301555,-3.01012368966003,-45.7661545574193,-172.169370947879,-171.230435801852,0.0117595771129105,-0.868422252748278,-2.08131321193566,-2.2021334580086,-3.602390424244,7.16524531691379,-0.576170348481512,18.5380037956787,-35.0092685403351,190.200032977952,-3.39508702274179,12.2656025202098,0.241233809344019,-19.7403224093062,4.37175136230925,-172.094614099296,-10.4063606262207,17.5507030487061,6.41386270523071,-84.875,82.5650024414062,-371.804992675781,573,0.273989349603653,-0.130304753780365,-16.559128459932,24.1244894295442,-3.03741626573645,0.327115707359193,2.28470388576368,0.258300860347546,-0.0301299695664979,-6.57696780600611,-7.6646169473079,-22.1327599100803,-0.0812408658907803,-1.04905753956226,-1.52956856283891,-1.82296088359673,1.93855947096424,7.42020541793045,-2.31678660227286,-2.18833496535629,-11.3300316810126,-29.1780375514738,-4.53362553534931,8.90372759343391,-2.68323956312889,32.49490778307,-23.2656994419623,-74.5432760895863,-1.23343515396118,9.73814964294434,-1.86811530590057,-8.32999992370605,2.48499989509583,-2.27500009536743,887,-0.12502908706665,0.0435722880065441
10.015,-8.84469682506592,-114.573664790746,-129.606891135873,-0.110219457195539,-3.19019397087699,-3.17353503733773,-3.35048841421999,-47.4428190058505,-169.035457326592,-173.375449270889,0.00682357574531017,-0.763381229497185,-1.9301174530737,-2.09066921592074,-3.86446308855882,6.26710045691823,-0.0192659368125184,19.532235225371,-33.9105585536243,194.365694154561,-5.80287962613417,13.5650461474375,0.34224098204869,-24.4317466470406,-8.92735786333724,-167.029089221915,-10.4063606262207,17.5507030487061,6.41386270523071,-84.875,82.5650024414062,-371.804992675781,573,0.273989349603653,-0.130304753780365,-16.254822749706,31.3716683236112,2.19854875177291,0.329204937430145,2.53385582609725,0.445495626194839,0.150714158957323,-6.67243622072526,-7.27287748430125,-16.1637403472121,-0.080311968421055,-0.838749918868469,-1.60876634129042,-1.90234699257349,2.7056679988024,7.61402999257994,-2.34135591455238,4.19159756483855,-12.1523790330292,-34.7389930056848,-3.83476509717646,8.83274958018198,-2.28467071948345,31.2175731666179,-25.2406811972154,-72.3087830798033,-1.23343515396118,9.73814964294434,-1.86811530590057,-8.32999992370605,2.48499989509583,-2.27500009536743,887,-0.12502908706665,0.0435722880065441
10.02,-10.0261753301745,-103.996195709118,-133.508969718758,-0.107280734095456,-3.1726582971599,-3.46394073896592,-3.68495375330919,-49.1195634058553,-165.901394264953,-175.520565024675,0.00188733900498719,-0.658335197375591,-1.77891448445737,-1.97578924424614,-4.12654824978197,5.36891276897645,0.537665030786649,20.5265140648878,-32.8117961750396,198.5315539703,-8.21078704487173,14.8645517385022,0.443252971270108,-29.1233945948621,-22.2271012556532,-161.963322795495,-10.4063606262207,17.5507030487061,6.41386270523071,-84.875,82.5650024414062,-371.804992675781,573,0.273989349603653,-0.130304753780365,-15.9505025286931,38.619192798666,7.43476344574108,0.33129426712582,2.78301964721573,0.632699318405484,0.33674209953418,-6.76790918784605,-6.88111934123818,-10.1944361522538,-0.0793830266569485,-0.6284322696772,-1.68796789627992,-1.97663698175863,3.47281310613262,7.80786380973455,-2.36592639841706,10.5718343214666,-12.9747655985956,-40.3002136334906,-3.13587133391477,8.76176818235072,-1.88608287012327,29.9401776405946,-27.2157571292724,-70.0741835184486,-1.23343515396118,9.73814964294434,-1.86811530590057,-8.32999992370605,2.48499989509583,-2.27500009536743,887,-0.12502908706665,0.0435722880065441
10.025,-10.8919139782324,-94.7033487594852,-130.032144094736,-0.108688169828086,-3.09416417667393,-3.54095511631937,-3.79931020773852,-50.5889471667238,-157.842608097864,-173.721053646497,0.0124338150932792,-0.575089489586648,-1.65954634027891,-1.889000161849,-3.14549966213681,6.49843631904299,0.524923042270432,13.7321716524276,-21.0057614404621,198.462792563734,-9.58415096228447,13.1141852491428,0.678910328603228,-29.3472022547695,-21.4241086946245,-151.980572325126,-8.73857965847541,17.1176358564577,6.78873330261458,-78.4313741769358,95.4905623929483,-353.041094661227,514.113121605726,0.275879069305407,-0.125765012985674,-15.4502854348294,43.7474351480958,13.788468019651,0.330180140574954,3.04834500368526,0.923541946057536,0.631321679676757,-6.82201560906815,-6.03083735496625,-7.70960428334937,-0.0907067728848602,-0.463345044236228,-1.64913778906873,-1.92837511081932,3.93055459619093,8.01512826288258,-2.4444295117251,13.9295393782884,-11.5706310209401,-45.1274743806382,-2.24505743674449,8.74343269014191,-1.33401907050079,26.6393270914381,-21.9272140390426,-68.4740222282163,-1.50921404462267,9.64692253136469,-1.7947140793562,-10.0002857560011,1.42766302464367,-0.880541327217037,893.567309858097,-0.115979557327404,0.0411298911032418
10.03,-11.6949475991772,-85.6652942133054,-125.088534044452,-0.110959501850705,-3.00354984276987,-3.57556154694104,-3.86395206288887,-52.0172011940543,-148.804553551684,-171.137429541143,0.026058142958248,-0.49617192184554,-1.54649866691482,-1.8045904583397,-1.91731736616864,8.03103986785796,0.398955627299333,5.38942233271135,-7.07094014954966,197.552379919525,-10.7519738719123,10.7575448607253,0.94134244312634,-28.6830222118407,-17.818097046918,-141.019981665476,-6.7392254538593,16.5984701335909,7.23813230617777,-70.7066845255523,110.985866114438,-330.546726925934,443.518882799009,0.278144486110323,-0.120322721688872,-14.9111044879876,48.4547551408062,20.364641212352,0.328429251048453,3.31689769431348,1.23499983729467,0.951068499707995,-6.86790336253738,-5.08937338145165,-5.91718269487375,-0.104466435420905,-0.307238103244459,-1.58684621394974,-1.85277934702076,4.32682708912082,8.22507395450107,-2.53365643066295,16.6866965321053,-9.723886511333,-49.8091337076246,-1.31604775133268,8.73555972670622,-0.751419776259486,22.9361183642786,-15.1946963355978,-66.9998665231791,-1.83982081808515,9.53755846459619,-1.70671988002566,-12.0026428198455,0.160115931519016,0.791151212262216,901.440273293791,-0.105130881341838,0.0382019187780984
10.035,-12.4979429293713,-76.6276706252862,-120.145159718469,-0.113230725570252,-2.91293982959506,-3.61016632743726,-3.92092640474131,-53.4453871184844,-139.766929963665,-168.553928629767,0.0396818211795078,-0.417258117101177,-1.43345638396047,-1.71619221918496,-0.689193633155653,9.56357033811348,0.272994218785176,-2.95292918282217,6.86321669251234,196.642010686179,-11.9197410966789,8.40101684310635,1.20376204419749,-28.0188738387594,-14.2122573433107,-130.059913635553,-4.73996658369887,16.0793291659083,7.68750988121705,-62.9823632076445,126.480430979179,-308.053431781129,372.928010110869,0.280409794894219,-0.114880689894802,-14.3719492507084,53.1618506761453,26.9405008358564,0.326678445008959,3.58543757964461,1.54644287740214,1.27491156820755,-6.9137889279581,-4.14795429941012,-4.1248465737636,-0.118225441860128,-0.151138605841332,-1.52455760905653,-1.77400349196716,4.72308068673826,8.43500963535799,-2.62287909502714,19.4437222174331,-7.87723005935083,-54.4905698008075,-0.387082363540815,8.7276871386741,-0.168848261881538,19.2330862158302,-8.4624996562663,-65.5257811097547,-2.17041182734901,9.42819961259341,-1.61872987648948,-14.0049044060499,-1.10737072163362,2.46276404105391,909.312861325925,-0.094282722649615,0.0352740860663599
10.04,-13.2944108534224,-67.6402745492886,-115.089209259625,-0.115476091496538,-2.82135603110541,-3.64207357761279,-3.96741371271397,-54.8677349241107,-130.806644801507,-165.875061160832,0.0529260109038348,-0.338133815689174,-1.31986586408936,-1.62334296783685,0.538591239297201,11.0606927392781,0.152015241536345,-11.1199907769841,20.5629782613578,195.610106898712,-13.0662346535031,6.08098115800056,1.45508784875508,-27.3890300142256,-10.5452685630079,-119.268769394917,-2.77208650336842,15.5671533147754,8.10660343543502,-55.5109729174507,141.720650012083,-285.786041239382,303.099438938436,0.282617971286481,-0.10947033614434,-13.8315922043785,57.7625827636672,33.4857509549395,0.324949061452667,3.85166859132599,1.85702702115249,1.60150502893514,-6.95735477494829,-3.13834169308006,-2.35716218767175,-0.131612990667074,0.000783874975228582,-1.45930719331097,-1.68978867621102,5.10962214221194,8.64440834086079,-2.7079217821656,22.1553173466677,-6.04274142210047,-59.1257931722981,0.513828322794857,8.72938346840374,0.405415961628964,15.6208603823562,-1.59935341506825,-63.9918775575532,-2.48654866091776,9.32215591538697,-1.53172662274801,-15.9624246210559,-2.3454408622759,4.13335235964453,917.100762076818,-0.0835268261579542,0.0324293218081581
10.045,-13.8192461239028,-60.7488303111529,-105.386459766159,-0.116647244496502,-2.6896740142449,-3.56232580631932,-3.89456502408073,-56.0456998882203,-125.063772228255,-159.25651261783,0.0504448872111549,-0.250461603243145,-1.18382553245073,-1.50436921207135,1.74987786414931,11.0900410936248,0.237392272362938,-12.0192164488844,24.5386756459135,189.552685614373,-13.3303698426229,5.2752354295747,1.2469813361153,-28.1795580774347,-4.3560926014669,-115.487410159234,-2.10624957339906,15.3441428524127,7.27207075144668,-58.5178453440072,146.40838456503,-272.908783924586,264.946578287808,0.282458252406218,-0.105381359470042,-13.2426107400972,57.9540117137391,38.751534261594,0.32410936996114,4.0218490237397,2.13145317530942,1.89500608323402,-6.90487124790025,0.690238962240073,-1.61283388714757,-0.129607154655947,-0.0203940303172081,-1.2716653626001,-1.48140491080595,5.09361394893196,8.83117059579393,-2.6198767191257,22.9820779461072,-4.71531304929524,-61.8399395226492,0.252361165888467,9.12692026818999,0.634866731975401,15.7723782611379,10.6670070323925,-59.9865353706272,-2.20411116611781,9.35346669992177,-1.48571867971384,-16.0651436678922,-2.36411706995818,5.7581841454955,921.369613618147,-0.0766093316408404,0.0330266534839561
10.05,-14.3441064210997,-53.8570574552002,-95.683247598071,-0.117818453342777,-2.55798571814081,-3.4825742322615,-3.81436004153279,-57.2237210234693,-119.32062580671,-152.637648470015,0.0479636452063442,-0.162785210156591,-1.04777871374274,-1.38206554211346,2.9612222490808,11.1193908474447,0.322773374384554,-12.9184850002694,28.5145626111941,183.494975482516,-13.5945176270022,4.46945127924581,1.03886489993765,-28.970123836894,1.83337849029975,-111.70587060982,-1.44038089306348,15.1211217558188,6.43749827285227,-61.5248611529691,151.096342652122,-260.030912559085,226.791898321904,0.282298525909776,-0.101292187813308,-12.6536011902947,58.145449792081,44.0175686665894,0.32326963842901,4.19203757119,2.40589241544957,2.19101816907604,-6.85238521818056,4.51900218303898,-0.868470093404165,-0.127601222996734,-0.0415729454759026,-1.08401458420764,-1.27190790769891,5.07760499230291,9.01794175646618,-2.53182745766592,23.8088779695418,-3.38782137820319,-64.5542152967928,-0.00911845905268113,9.52447602447806,0.864328443658462,15.9239033650343,22.9339524000024,-55.9810021893668,-1.92166020331468,9.38477897750814,-1.43970854279558,-16.1678676128758,-2.38279416821352,7.38309341128477,925.638668719228,-0.0696915072637048,0.0336240136434542
10.055,-14.8689416915801,-46.9656132170645,-85.980498104605,-0.11898960634274,-2.4263037012803,-3.40282646096803,-3.72733446062036,-58.401685987579,-113.577753233459,-146.019099927013,0.0454825215136643,-0.075112997710561,-0.911738382104114,-1.2568993260801,4.17250887393291,11.1487392017913,0.408150405211147,-13.8177106721697,32.4902599957498,177.437554198176,-13.8586528161219,3.66370555081996,0.830758387297873,-29.760651900103,8.02255445184077,-107.924511374137,-0.77454396309412,14.8981112934561,5.60296558886393,-64.5317335795256,155.784077205069,-247.153655244289,188.639037671276,0.282138807029512,-0.0972032111390104,-12.0646197260134,58.3368787421529,49.2833519732439,0.322429946937484,4.36221800360372,2.6803185696065,2.48893968598153,-6.79990169113252,8.34758283835911,-0.124141792879989,-0.125595386985607,-0.0627508507683393,-0.896372753496766,-1.06194552053397,5.06159679902292,9.20470401139932,-2.44378239462602,24.6356385689812,-2.06039300539796,-67.2683616471439,-0.270585615959071,9.92201282426431,1.0937792140049,16.075421243816,35.2003128474632,-51.9756600024408,-1.63922270851474,9.41608976204294,-1.39370059976141,-16.270586659712,-2.40147037589579,9.00792519713575,929.907520260556,-0.062774012746591,0.0342213453192522
10.06,-15.249147567749,-41.9732513427734,-76.7827634717403,-0.120829230542937,-2.30353776271495,-3.34505486488342,-3.65616091004925,-59.2550379371643,-109.417449951172,-139.452876842015,0.0419428064889472,0.00571591906864962,-0.813186824321747,-1.16688480381577,5.01997212366955,11.123859604663,0.45828180435887,-15.0062197693554,34.3622077052555,170.837754125134,-13.9452686264572,3.095380131779,0.704168778509889,-30.5883125903399,16.6699298555186,-104.394026143055,-0.292192399501801,14.7365560531616,4.99840593338013,-66.7099990844727,159.18000793457,-237.824996948242,161,0.282023102045059,-0.0942410379648209,-11.6379444885254,58.4755554199219,53.6827770505457,0.320186879016141,4.48137772130723,2.87912082672119,2.71259040532225,-6.76188110351563,11.1211175918579,0.830389990641999,-0.12551838222839,-0.119984918696381,-0.760439574718475,-0.903790573562852,4.74093258996453,9.43301317790165,-2.29211353269133,24.9994806430015,-0.209954759625334,-69.208346630124,-0.655547389761765,10.1755778003041,1.23143689812468,16.2114064562958,43.5701319667361,-48.589432649409,-1.43461680412292,9.43877220153809,-1.36037111282349,-16.3449993133545,-2.41499996185303,10.1850004196167,933,-0.0577627792954445,0.0346540696918964
10.065,-15.249147567749,-41.9732513427734,-68.9139879213821,-0.124425528592571,-2.20422784965113,-3.34505486488342,-3.63747407940161,-59.2550379371643,-109.417449951172,-133.025320639558,0.0356213302529351,0.0685441132376368,-0.813186824321747,-1.17366439099208,4.91102496198683,10.95645299037,0.415765838824145,-16.9548681896967,30.7043912259954,162.813521741035,-13.5652821844906,3.15118233654333,0.791857957425242,-31.5134285070676,31.7768759425078,-101.523542358882,-0.292192399501801,14.7365560531616,4.99840593338013,-66.7099990844727,159.18000793457,-237.824996948242,161,0.282023102045059,-0.0942410379648209,-11.6379444885254,58.4755554199219,55.8043277947327,0.314255601466107,4.46641531831956,2.87912082672119,2.73823978129233,-6.76188110351563,11.1211175918579,2.3372499371258,-0.130511080137984,-0.271978154218227,-0.760439574718475,-0.882173719708368,3.61957399898632,9.77048365433349,-1.97324379118094,24.1465368899902,3.01482873733674,-69.1132105961343,-1.36503256462239,10.0506871515459,1.1278042321338,16.3065424902855,41.6969362630074,-46.8310562970472,-1.43461680412292,9.43877220153809,-1.36037111282349,-16.3449993133545,-2.41499996185303,10.1850004196167,933,-0.0577627792954445,0.0346540696918964
10.07,-15.249147567749,-41.9732513427734,-61.0448371492629,-0.12802199813131,-2.10491320100422,-3.34505486488342,-3.61444343579801,-59.2550379371643,-109.417449951172,-126.597457939739,0.0292995525779722,0.131375303362667,-0.813186824321747,-1.17928124779809,4.80207260516979,10.7890383933097,0.373247845919931,-18.9036095311395,27.0464003241288,154.788906722232,-13.1852776229093,3.20698720223011,0.879551317790164,-32.4385885378536,46.8845424026831,-98.6529216959822,-0.292192399501801,14.7365560531616,4.99840593338013,-66.7099990844727,159.18000793457,-237.824996948242,161,0.282023102045059,-0.0942410379648209,-11.6379444885254,58.4755554199219,57.925979704851,0.308324041083706,4.45145220185123,2.87912082672119,2.76416381989982,-6.76188110351563,11.1211175918579,3.84418173807273,-0.13550401612387,-0.423978637522035,-0.760439574718475,-0.861594025904448,2.49816193613786,10.1079702230106,-1.65435884439939,23.2935524644428,6.23976600777156,-69.0180700255924,-2.07455157121134,9.92579054738976,1.0241666244298,16.4016830608273,39.8236512361322,-45.072596096688,-1.43461680412292,9.43877220153809,-1.36037111282349,-16.3449993133545,-2.41499996185303,10.1850004196167,933,-0.0577627792954445,0.0346540696918964
10.075,-15.249147567749,-41.9732513427734,-53.1760615989047,-0.131618296180944,-2.0056032879404,-3.34505486488342,-3.58807239940149,-59.2550379371643,-109.417449951172,-120.169901737282,0.0229780763419601,0.194203497531654,-0.813186824321747,-1.18431179463062,4.69312544348707,10.6216317790167,0.330731880385206,-20.8522579514808,23.3885838448687,146.764674338133,-12.8052911809427,3.26278940699444,0.967240496705517,-33.3637044545813,61.9914884896723,-95.7824379118095,-0.292192399501801,14.7365560531616,4.99840593338013,-66.7099990844727,159.18000793457,-237.824996948242,161,0.282023102045059,-0.0942410379648209,-11.6379444885254,58.4755554199219,60.047530449038,0.302392763533671,4.43648979886356,2.87912082672119,2.78986874293014,-6.76188110351563,11.1211175918579,5.35104168455653,-0.140496714033464,-0.575971873043881,-0.760439574718475,-0.842405977091614,1.37680334515964,10.4454406994425,-1.33548910288901,22.4406087114315,9.46454950473363,-68.9229339916027,-2.78403674607197,9.80089989863153,0.920533958438928,16.496819094817,37.9504555324035,-43.3142197443262,-1.43461680412292,9.43877220153809,-1.36037111282349,-16.3449993133545,-2.41499996185303,10.1850004196167,933,-0.0577627792954445,0.0346540696918964
10.08,-15.436346760763,-40.5551423604812,-47.5489947177245,-0.136388475668843,-1.93387877336706,-3.28134409873866,-3.49567625750542,-59.7993555752312,-105.919447644057,-115.007151320774,0.0225339809160386,0.24390856578172,-0.792336028128914,-1.1684312789373,4.43971650685434,10.4345876351865,0.134751943497564,-22.0448525055125,19.7325674089455,140.029468318651,-11.8583956642225,3.27023518159749,1.02317654560168,-34.7322928048582,72.3105469465509,-91.3732581033184,0.0369584434276898,15.9717394586525,5.36227063265948,-57.6616653354025,155.910247821819,-208.074333858562,147.691688942296,0.280838967832813,-0.0986098387088204,-11.3009856395131,58.5700959684768,61.0829288676854,0.296335862456817,4.39758923342835,3.01233424684207,2.94811161596906,-6.66108148971529,12.3501453513789,6.93876290700548,-0.147143201860631,-0.723024608899374,-0.673561250376236,-0.738006733603872,0.550657233244214,10.5441172719916,-1.22348260048557,20.7607190206777,9.12074435570522,-69.0229492721175,-3.28680089266007,9.80324741888811,0.772493562547518,16.9417597126436,34.0145652187734,-41.1846841159853,-1.46017884782184,9.44192806020966,-1.2896810063906,-16.0360094094711,-2.14290429941926,10.0789291873115,944.068298305417,-0.054892596934397,0.0345275390395413
10.085,-15.8016865593754,-37.7875468294339,-44.0555170668387,-0.142275569165686,-1.88840930355797,-3.15700553670739,-3.34134855049129,-60.8616512671667,-99.0927117065172,-111.048294279396,0.0276831461153449,0.281122686489131,-0.751643407827771,-1.13309562384971,4.04884125855261,10.2288638202909,-0.207263898766453,-22.5178902897633,16.0784298943637,134.521276669824,-10.3720411016014,3.23166196630454,1.04889202246364,-36.5228519345056,78.0727186137671,-85.4999701780567,0.679332487529428,18.3823356228023,6.07239258252794,-40.0028475999195,149.528951610705,-150.012645200758,121.71905731172,0.278527999779655,-0.107136033497873,-10.6433734134302,58.7546022391166,61.0846377084637,0.290159685934079,4.335909554543,3.27231487654381,3.23203134422852,-6.46435996536942,14.7487280959048,8.60336414288079,-0.155363225992372,-0.865369019293628,-0.504008652376473,-0.552797808524706,0.0054891237707354,10.4155398876818,-1.30834367413002,18.2939380920678,5.38088858491698,-69.3086767928059,-3.59281506731736,9.92668170782551,0.582199033769037,17.7195735189621,28.1158792916728,-38.702029436226,-1.51006598540361,9.4480870652404,-1.1517214947481,-15.4329816536324,-1.61187971049677,9.87191952009533,965.669298869461,-0.0492911206198717,0.0342806005655797
10.09,-16.1670089376274,-35.020083264605,-40.5622059941357,-0.14816238195046,-1.84294200185252,-3.03267290346507,-3.18668329781172,-61.9238963060557,-92.266301285663,-107.089626006711,0.0328320657889408,0.3183350327296,-0.71095272785756,-1.09849288659387,3.65798464820855,10.0231498148466,-0.549263432817507,-22.9909055183311,12.4244666186488,129.013347666032,-8.88575741226671,3.19309059028374,1.07460627314418,-38.3133256855944,83.8346155255156,-79.6269623065774,1.32167590155086,20.7928168434005,6.78248067191815,-22.3448718832108,143.147959676542,-91.9537250766497,95.7476641243838,0.276217141919519,-0.115661821735581,-9.98579254402415,58.9390997120131,61.08634646776,0.283983803907646,4.27423281670661,3.53228310968683,3.51447869723565,-6.26764782122213,17.1471964697105,10.2678860062005,-0.163582858171789,-1.00770664233282,-0.334464139089565,-0.369583761429392,-0.539652990656516,10.2869686342791,-1.39320070137577,15.8272747860465,1.64121114026697,-69.5943906892563,-3.89881465041567,10.0501101110921,0.391913578733108,18.4973502370769,22.217474629398,-36.2194931359575,-1.55995074423573,9.45424577659362,-1.01376856137717,-14.8299826517397,-1.08088044222033,9.6649197236434,987.269269441106,-0.043689911398438,0.0340336738662926
10.095,-16.5323487362397,-32.2524877335578,-37.0687283432499,-0.154049475447303,-1.79747253204343,-2.9083343414338,-3.03254861749578,-62.9861919979911,-85.4395653481229,-103.130768965333,0.0379812309882471,0.35554915343701,-0.670260107556417,-1.06484372648851,3.26710939990681,9.81742599995096,-0.891279275081524,-23.4639433025819,8.77032910406706,123.505156017205,-7.39940284964561,3.15451737499079,1.10032175000614,-40.1038848152417,89.5967871927318,-73.7536743813158,1.9640499456526,23.2034130075504,7.49260262178662,-4.68605414772787,136.766663465428,-33.8920364188456,69.7750324938078,0.273906173866362,-0.124188016524634,-9.32818031794129,59.1236059826528,61.0880553085383,0.277807627384908,4.21255313782125,3.79226373938858,3.79515811642681,-6.07092629687626,19.5457792142364,11.9324872420758,-0.17180288230353,-1.15005105272707,-0.164911541089803,-0.18839950470028,-1.08482110013,10.1583912499694,-1.47806177502022,13.3604938574366,-2.09864463052127,-69.8801182099447,-4.20482882507295,10.1735444000295,0.201619049954628,19.2751640433953,16.3187887022974,-33.7368384561982,-1.60983788181749,9.46040478162436,-0.875809049734662,-14.226954895901,-0.549855853297842,9.45791005642724,1008.87027000515,-0.0380884350839127,0.0337867353923309
10.1,-17.0008687742795,-30.5098259179557,-34.9342180513628,-0.159185665754342,-1.75915195127026,-2.70549063204104,-2.80122070002205,-63.8843073567182,-70.9523708898838,-97.5705884123831,0.0413229725089395,0.3874694816428,-0.57477373267095,-0.977451243729143,2.92621083827266,9.73185759824676,-1.04768416596103,-22.1160289059959,5.02270763732467,119.421629196728,-6.36122677690888,2.97552348458434,0.991120934402561,-41.8131696056602,85.7943374797154,-59.9769784477908,2.46712940773083,20.5914737698851,7.2048589484877,5.76738711660315,122.971342073777,16.5609998340334,50.717662001295,0.228572975790892,-0.106650587165193,-8.46135398908067,56.8562048486298,60.4328262652306,0.270735212720668,4.20870252218133,3.98602905392546,4.00757527027616,-5.79044551546927,19.3969286276049,13.2447727323052,-0.188795229337309,-1.25414246359956,-0.189860032530788,-0.203739358651987,-1.30302784280522,10.1002291178961,-1.44648926632464,11.3906755288436,-6.27861037474858,-70.3555702520604,-4.09038427055835,10.2004582357922,0.1755974498182,18.9808441205064,10.6628729391842,-32.9351601273369,-1.63836395839073,9.51966622814261,-0.828957068213264,-13.6238209706661,-0.378498397263961,8.86702878845577,1024.32816157792,-0.033853822532484,0.0343196280675429
10.105,-17.5316972807272,-29.3856118125686,-33.619725717442,-0.163869054204308,-1.72514302828727,-2.45525099270229,-2.52446178884411,-64.6834031975789,-51.8407318454438,-91.0435316813177,0.043574130350646,0.416197273995472,-0.446210236565958,-0.85799488747639,2.61544877222693,9.71880036858097,-1.09207874682471,-19.6690073464077,1.21837899395965,116.197621871843,-5.59346167256062,2.71176744533545,0.80048538128207,-43.4735333779763,76.2190357248052,-41.4292643077239,2.88617850916909,14.9480707100938,6.31484878892685,11.8729477382106,104.700359566406,62.4258237917739,35.8324201822982,0.157270990839433,-0.073381568661126,-7.46819383703962,53.108824165277,59.3810636580649,0.263121348288455,4.23975333990893,4.13984607994102,4.1777891343609,-5.45939184090089,17.7106074695242,14.3445245098191,-0.211083258968796,-1.33515489956652,-0.332198189627629,-0.338417077630688,-1.32391941027047,10.0845604422972,-1.34464287493151,9.72063973455283,-10.7245164757658,-70.9455635925145,-3.72217039398317,10.1691208845943,0.248717935946614,18.0394339816398,5.15304442095465,-33.1479446107794,-1.65400011842752,9.61098126329119,-0.837087873300245,-13.0205768505261,-0.424198696424585,8.04442329460652,1036.07966827713,-0.0304438330938837,0.0353232150502255
10.11,-18.0625004758786,-28.2614513126605,-32.3052960619656,-0.168552219338022,-1.69113572693898,-2.20502328544628,-2.25019922581537,-65.4824609354527,-32.730004094111,-84.5167861774472,0.0458251808512385,0.444923696531609,-0.317652870705869,-0.739393234145445,2.3047015241321,9.70574376151816,-1.13647121083827,-17.2221024672296,-2.58576824903138,112.973768276088,-4.8257331772675,2.44802398266673,0.609858918165066,-45.1338179797901,66.6441905454125,-22.8824345713448,3.30520762924643,9.30493674257121,5.4248810673862,17.978217230664,86.4302482674332,108.288460794338,20.9478881306968,0.0859724057537451,-0.0401141365111741,-6.47508104148113,49.3616221668699,58.3293512017006,0.255507846905281,4.27080267705206,4.2936557715571,4.34559605013269,-5.12835395184053,16.0243667196621,15.4442238482821,-0.233370225848536,-1.41616347264793,-0.474529559667579,-0.474907995511894,-1.34480998157096,10.0688925138218,-1.24280133984161,8.05068357195167,-15.1702105843121,-71.5355288005377,-3.35397407481199,10.1377850276436,0.321834935498347,17.0980687316793,-0.35652137419084,-33.3607189480992,-1.66963553289116,9.70229194429925,-0.845218290689101,-12.417361494649,-0.469896816475007,7.2218570247461,1047.83061463366,-0.0270340062525292,0.0363267541792469
10.115,-18.5933289823263,-27.1372372072734,-30.9908037280449,-0.173235607787988,-1.65712680395599,-1.95478364610753,-1.97879041529256,-66.2815567763134,-13.6183650496709,-77.9897294463817,0.048076338692945,0.47365148888428,-0.189089374600878,-0.621352850790686,1.99393945808637,9.69268653185237,-1.18086579170194,-14.7750809076414,-6.3900968923964,109.749760951202,-4.05796807291924,2.18426794341784,0.419223365044575,-46.7941817521062,57.0688887905023,-4.33472043127786,3.72425673068469,3.66153368277991,4.53487090782536,24.0837778522715,68.1592657600627,154.153284752079,6.06264631169995,0.0146704208022861,-0.00684511800710705,-5.48192088944008,45.6142414835171,57.2775885945349,0.247893982473069,4.30185349477967,4.44747279757266,4.51093385461098,-4.79730027727215,14.3380455615814,16.543975625796,-0.255658255480023,-1.49717590861489,-0.61686771676442,-0.613051163574674,-1.36570154903622,10.0532238382229,-1.14095494844848,6.38064777766092,-19.6161166853294,-72.1255221409918,-2.98576019823681,10.1064476764457,0.394955421626761,16.1566585928128,-5.86634989242035,-33.5735034315416,-1.68527169292795,9.79360697944783,-0.853349095776083,-11.814117374509,-0.515597115635631,6.39925153089685,1059.58212133287,-0.0236240168139288,0.0373303411619295
10.12,-18.9165127204028,-27.6693861715251,-30.2089403837224,-0.17346482460605,-1.6250262836366,-1.85465380553467,-1.86060150645832,-66.4645763657241,-6.78500036140145,-67.6070043423636,0.0564354916443898,0.474152867621136,-0.0821894825938879,-0.525162242513237,1.78954360769683,10.0219878363529,-1.21128127156109,-14.0272644129406,-8.75973926208598,107.005584311558,-4.16601589451356,2.00444049778959,0.299131168067868,-47.4537078838138,44.9389287497875,14.4282906062989,4.31201191648882,3.10489361524929,4.39048726400341,24.8335060680336,63.707295909257,156.975776747033,2.3615618531674,0,0,-5.00314242811215,43.010920250117,55.242323640294,0.242002183614954,4.37384917955269,4.42299430420838,4.495493780099,-4.62220285990978,14.2964665788909,16.8427925345555,-0.258181242523549,-1.53907983498722,-0.767761138744341,-0.761181760218918,-1.27849053228733,9.91167173485294,-1.26896890092761,4.42649142383379,-21.1771842967935,-71.8107788791185,-2.47160580584164,10.1468187974344,0.471715687527168,15.384953118094,-6.014755946246,-33.4438809971566,-1.81744057461751,9.77722661418991,-0.885603454884441,-11.0196396073907,-0.495206199016931,5.55219153203012,1061.57437456878,-0.0212193711743646,0.036331363689268
10.125,-19.185922203449,-28.6306741123893,-29.5650160539755,-0.172540131639358,-1.59341823791934,-1.79340626874629,-1.78451924885897,-66.4880026550976,-3.13210640333055,-56.2247840561652,0.0663775191186175,0.467341777975818,0.0191045285418919,-0.434303234048358,1.61269133467917,10.4400022998492,-1.23807707050316,-13.7196089436057,-10.7578457510995,104.385550637222,-4.50096338128943,1.84634528403139,0.197307132088005,-47.8539908062817,32.146415847444,33.2482042089449,4.943508367256,3.86602646267649,4.43926128299183,24.1957662780916,62.8350923674827,148.647641945192,1.55768788490532,0,0,-4.65759392697669,40.7038293964787,52.9521446675262,0.236556159321762,4.45645660165675,4.35232406945256,4.431445861331,-4.48749786284201,14.6809815508008,16.9341325495969,-0.255583934431388,-1.57085459979769,-0.920879996686826,-0.912725826117712,-1.16326859683643,9.73749904172948,-1.45653949352209,2.3986118248846,-21.9909826350341,-71.2616304069724,-1.91961234763501,10.205769555107,0.54942350445916,14.6571659863341,-4.77420969892797,-33.2255448576286,-1.97980703452593,9.73294507019045,-0.92410933836608,-10.1755720429334,-0.457692084331204,4.69874535105789,1061.03845858994,-0.0190750313613615,0.0348135302726653
10.13,-19.4553188403441,-29.5919162165216,-28.9211224282306,-0.171615482764454,-1.56181169935666,-1.73216165240121,-1.71165945360829,-66.5114278274442,0.520613375169581,-44.8431065041021,0.0763190725308829,0.460531013101128,0.120393709713379,-0.342659264025988,1.43584749444202,10.8579968313188,-1.26487159175122,-13.4119681440911,-12.7558569651518,101.765641892968,-4.83589489689007,1.68825760866789,0.0954879513454106,-48.2542546422094,19.354512925689,52.0672204287184,5.57497470661508,4.62712301729197,4.48803297630702,23.5580568972566,61.9629304146622,140.319904250676,0.753852247463777,0,0,-4.31206190250063,38.3968485509871,50.6620748965022,0.231110394709302,4.53906008482213,4.281657204439,4.36512244158546,-4.35279928886202,15.0654781880278,17.0254682093067,-0.252986750185693,-1.60262784950397,-1.07399155352031,-1.06518396900123,-1.04805215546981,9.56333465361714,-1.64410114225845,0.370828920556746,-22.8047421692342,-70.7125081196666,-1.36764520992515,10.2647175018527,0.627127616078499,13.9294135573746,-3.53372260411078,-33.0072191289408,-2.14216575237542,9.68866563765121,-0.962613385786138,-9.33154472583272,-0.420179758416919,3.8453398646394,1060.50256816498,-0.0169307937961084,0.0332957692303435
10.135,-19.727741257778,-30.5406031154305,-28.3320558412579,-0.170593581814268,-1.53219522634492,-1.67327898890676,-1.64427191657779,-66.5280025682088,4.19408636569959,-33.5670501058504,0.0859627851753036,0.452849412523979,0.215384617447853,-0.255979698994295,1.26193865587533,11.2378257251995,-1.27716765629139,-13.0566343608715,-14.7547439652504,99.1372190868932,-5.16168072311938,1.54756779244357,0.00131613781626992,-48.6938116589416,7.09276605122703,70.2591593396152,6.18833474468019,5.43392233363277,4.56265380415811,23.2335108503858,60.4574829509275,133.099048568768,0,0,0,-3.96500208354232,36.280534253377,48.3737098145853,0.225479662829821,4.61863416416206,4.21712004958508,4.30285406121254,-4.21640806138752,15.4732822760715,17.0968167954859,-0.250556700909157,-1.63539812667117,-1.22409083764693,-1.21527061534269,-0.925357966793992,9.41266782648158,-1.83020006807609,-1.58448462708264,-23.59857049541,-70.1447228653965,-0.869742067244075,10.3139128625997,0.698519344956685,13.210151088774,-2.21357123546906,-32.7332094142981,-2.28741523357127,9.64513002715697,-0.995886250431493,-8.450173555265,-0.35736109718451,2.96438663347844,1059.60515865512,-0.0146620194075795,0.0320287469034386
10.14,-20.0455549422169,-31.2993498549312,-28.5697114290895,-0.168106826715711,-1.53259272702156,-1.65003725213789,-1.61543907775303,-66.4413251919894,8.17750567653684,-23.8913977600183,0.0911104992803789,0.432049770445132,0.215384617447853,-0.262412431458646,1.13239501783844,11.0421883942866,-1.07095533451837,-11.9828158445163,-16.7652977831068,96.3824992455444,-5.34938681088712,1.66918018733534,0.0224661195365738,-49.7251996564134,2.83013084648592,78.9867906853102,6.52835379608905,6.92886679597788,5.02677678380204,27.6287409223824,49.4092610077392,142.564989360163,0,0,0,-3.5951835869873,37.0392814971326,46.1127887830513,0.217065696844102,4.65249264264803,4.24501013370772,4.33120247046298,-4.05461221701727,16.2320287634448,16.8668955550643,-0.250647320971885,-1.68316899295443,-1.32867865310684,-1.32020073746454,-0.690064420155568,9.61623640053955,-1.99411242640848,-2.44615054902111,-24.0914172916703,-69.2961124877299,-1.18699179304869,10.2160941971433,0.674725615521345,12.6193877104752,0.30614880898741,-31.6202242651276,-2.17470869427031,9.61283754598802,-0.950297088644117,-7.00668729276888,0.0867885050749515,1.66895022789682,1053.26016413903,-0.0105181515868846,0.034541452805217
10.145,-20.363383781569,-32.058132775193,-28.8073783495036,-0.165619953036489,-1.53299024665299,-1.62679440708917,-1.58925374721213,-66.3546436825681,12.1611149363184,-14.2152840316891,0.0962584588536772,0.411249136537471,0.215384617447853,-0.266449611481815,1.00284520252636,10.8465417344276,-0.864733179531792,-10.9089461232345,-18.7759474740174,93.6276480456605,-5.53710184940055,1.79079838130178,0.0436171097916028,-50.7566368355169,-1.43270762158095,87.7148382072175,6.86838906127175,8.42388254459748,5.49092189510301,32.0241805804776,38.3605122312124,152.031381533982,0,0,0,-3.22534745567492,37.7980649216733,43.851759939728,0.208651329639272,4.6863527356721,4.27290154776619,4.35805622402313,-3.89280865742865,16.9908114315671,16.6369633508717,-0.250737945355821,-1.7309421371866,-1.43327145582609,-1.42520841423939,-0.454759653568327,9.81981468174426,-2.15803260088498,-3.30785755941135,-24.5842875892798,-68.4474616441637,-1.50425664687419,10.1182708672138,0.650930751484439,12.0285961616849,2.82598900603767,-30.5071860433735,-2.0619967805695,9.5805435249554,-0.904705752942202,-5.56313219777728,0.530959286562979,0.373452049562094,1046.91486706252,-0.00637408616627458,0.0370542785251205
10.15,-20.6811974660079,-32.8168795146937,-29.0450339373352,-0.163133197937931,-1.53338774732964,-1.6035526703203,-1.56540364836696,-66.2679663063486,16.1445342471557,-4.53963168585693,0.101406172958753,0.390449494458625,0.215384617447853,-0.267630313927041,0.873301564489467,10.6509044035147,-0.65852085775878,-9.83512760687938,-20.7865012918739,90.8729282043117,-5.72480793716829,1.91241077619354,0.0647670915119067,-51.7880248329887,-5.69534282632206,96.4424695529125,7.20840811268061,9.91882700694259,5.95504487474695,36.4194106524743,27.3122902880241,161.497322325377,0,0,0,-2.8555289591199,38.5568121654289,41.5908389081939,0.200237363653553,4.72021121415807,4.30079163188883,4.38376506014504,-3.7310128130584,17.7495579189404,16.4070421104501,-0.250828565418549,-1.77871300346987,-1.537859271286,-1.53001320513284,-0.219466106929903,10.0233832558022,-2.32194495921737,-4.16952348134982,-25.0771343855401,-67.598851266497,-1.82150637267881,10.0204522017574,0.627137022049099,11.4378327833862,5.34570905049414,-29.394200894203,-1.94929024126854,9.54825104378645,-0.859116591154825,-4.11964593528116,0.975108888822441,-0.921984356019521,1040.56987254642,-0.00223021834557971,0.0395669844268989
10.155,-21.0030965850348,-33.14529127343,-29.3776561757439,-0.160576490757697,-1.54319572339138,-1.58881710151402,-1.55204902153127,-66.1108783097065,21.1396317924194,4.10401482394625,0.10543617791183,0.380013282849428,0.206701093232186,-0.27426031531202,0.806593292761855,10.5054411498122,-0.533554059303371,-8.81221108025889,-22.3002303524985,88.5249313018833,-5.88811290949114,2.07522102809789,0.0594851741551065,-52.1650305404891,-10.1302730500365,105.163533968601,7.45330095291138,10.9955348968506,6.2893214225769,39.5849990844727,19.3549995422363,168.315002441406,0,0,0,-2.46794173986881,39.6484425204044,39.8330958297954,0.191065781808142,4.73674125655226,4.34225380998903,4.42227835823912,-3.54639311533494,19.0047347521606,16.4254466061697,-0.252706690680018,-1.84751529171339,-1.62521017668054,-1.61713265707088,0.0328191117441319,10.1320095817688,-2.41568613233199,-4.94865137484155,-25.9883535311392,-67.2015263051044,-2.09026984332514,9.92720574906123,0.587205749061258,11.0686277800957,5.48985346000324,-28.5728938572134,-1.89231805865295,9.52371915137847,-0.823188200618078,-2.87789090578071,1.31361526238028,-1.96935118664489,1033.87253657905,0.000921887218328483,0.041567552699784
10.16,-21.3354565944669,-32.3659818390468,-29.954662134002,-0.157840165388224,-1.57722421960318,-1.59597858391354,-1.56222355189557,-65.7725829301627,28.7378978712948,10.0898460996167,0.106588556921363,0.396253910031161,0.175668000811128,-0.299736352591435,0.901632137770277,10.4891487763822,-0.617731322025111,-7.92048858388363,-22.5348941673341,87.2242232996517,-5.9885825456429,2.34404518969313,-0.0138305062799526,-50.8576178578337,-15.007928058405,113.86620915879,7.45330095291138,10.9955348968506,6.2893214225769,39.5849990844727,19.3549995422363,168.315002441406,0,0,0,-2.03468458190231,41.5967148115609,39.3708124561067,0.17994568967593,4.70866577257076,4.41864295558393,4.4953346328452,-3.30305718357106,21.5374897665053,17.0830285923768,-0.259185463589157,-1.97043990357645,-1.66817907107767,-1.65919846999828,0.328797229056066,9.99623980318531,-2.32879347403859,-5.51519687065892,-27.9762912768178,-67.965859873426,-2.23418580862359,9.84574388191116,0.505743881911184,11.2697681928119,-0.480664457456706,-28.5024947127627,-1.97881361556674,9.51916688823737,-0.812132376093607,-2.15559570896538,1.38014245518097,-2.37801825125631,1026.26942897838,0.00152069877540816,0.0422495580355395
10.165,-21.6678324524522,-31.5866352433725,-30.5316956067305,-0.155103709537355,-1.61125433846036,-1.60314040780762,-1.57367715295683,-65.4342714190381,36.3365262727146,16.0759628090421,0.107740990881971,0.412495311645549,0.144633428580219,-0.321571947827808,0.996675514696348,10.472855626052,-0.701912598731055,-7.02872356581191,-22.7695691720898,85.9234532732914,-6.08905697267903,2.61288217014114,-0.0871496827657692,-49.5501428313375,-19.8858156572559,122.569299335159,7.45330095291138,10.9955348968506,6.2893214225769,39.5849990844727,19.3549995422363,168.315002441406,0,0,0,-1.60140676411233,43.5450800058833,38.9085070384824,0.168825067283257,4.68058894981267,4.49503574378747,4.56838517543471,-3.05970964835806,24.070365555015,17.740641935314,-0.265664545437923,-2.09337037708711,-1.71115001444216,-1.70040541938844,0.624789460054391,9.86046355043378,-2.24189667227761,-6.08176938214058,-29.9643238171055,-68.7302298889161,-2.3781086365402,9.76427813026024,0.424278130260268,11.4709181968882,-6.45146707845571,-28.432092211336,-2.06531329701235,9.51461440802207,-0.80107602437327,-1.43326606957711,1.44667282032408,-2.78670480311511,1018.66595882429,0.00211953888675597,0.0429315958926499
10.17,-22.0001924618844,-30.8073258089893,-31.1087015649887,-0.152367384167882,-1.64528283467216,-1.61030189020714,-1.58607349455154,-65.0959760394943,43.93479235159,22.0617940847125,0.108893369891503,0.428735938827282,0.113600336159162,-0.339775410509477,1.09171435970477,10.456563252622,-0.786089861452796,-6.13700106943665,-23.0042329869254,84.6227452710599,-6.18952660883078,2.88170633173638,-0.160465363200828,-48.2427301486821,-24.7634706656244,131.271974525348,7.45330095291138,10.9955348968506,6.2893214225769,39.5849990844727,19.3549995422363,168.315002441406,0,0,0,-1.16814960614582,45.4933522970399,38.4462236647937,0.157704975151045,4.65251346583118,4.57142488938237,4.64177146011236,-2.81637371659418,26.6031205693598,18.3982239215211,-0.272143318347062,-2.21629498895017,-1.75411890883929,-1.74059964407401,0.920767577366326,9.72469377185033,-2.15500401398421,-6.64831487795795,-31.9522615627842,-69.4945634572377,-2.52202460183865,9.68281626311017,0.342816263110194,11.6720586096044,-12.4219849959157,-28.3616930668853,-2.15180885392613,9.51006214488098,-0.790020199848799,-0.710970872761779,1.51320001312477,-3.19537186772654,1011.06285122362,0.00271835044383565,0.0436136012284053
10.175,-22.1340810394287,-30.49338722229,-31.3871143393724,-0.148435361180843,-1.6863115019475,-1.61318683624268,-1.59482970417678,-64.9596964454651,46.9956932067871,26.447350384844,0.104213937175803,0.466529553135919,0.101098902523518,-0.33599148129181,1.20854851715796,10.3240730121753,-0.758906708877134,-4.96812619978272,-23.188042602296,83.1044024674889,-6.30106770600008,2.9775319814035,-0.224910452070206,-46.5477498623772,-28.8571937924644,141.001012245143,6.78530704952698,10.9597015429659,5.87096675141129,31.5032294682696,7.62945120583537,186.010236312516,0,0,0,-0.99361541748047,46.2781982421875,38.7660936674799,0.151108054985566,4.60595896028377,4.60219764709473,4.67018745217805,-2.71834777832031,27.623420715332,19.3167089873654,-0.282752671590466,-2.32748879477469,-1.77142858505249,-1.75401821091648,1.03750639628072,9.6101535107368,-2.12374040557895,-6.3393409271384,-33.3133776258181,-70.4797442200569,-2.31567800575415,9.69862527252634,0.251400312596441,12.2210219325107,-18.161201022225,-27.9854602218754,-2.18665289878845,9.50822830200195,-0.785566449165344,-0.420000016689301,1.53999996185303,-3.3600001335144,1008,0.00295957690104842,0.0438883416354656
10.18,-22.1340810394287,-30.49338722229,-31.4640903818696,-0.143697100454247,-1.73205882272632,-1.61318683624268,-1.6010680491699,-64.9596964454651,46.9956932067871,29.7530992313145,0.0956010593928662,0.518858606731825,0.101098902523518,-0.316597126003347,1.34007526207328,10.1132126750888,-0.656608129498542,-3.61239294825492,-23.3375341015139,81.4393764589585,-6.4200680942568,2.95665472030583,-0.283366783143692,-44.5914731743361,-32.4217928169187,151.421600716487,5.66677461996182,10.8996998450806,5.17044648560053,17.9705888884713,-12.0045694076,215.640286576893,0,0,0,-0.99361541748047,46.2781982421875,39.6135356801959,0.147562744026022,4.54694324268883,4.60219764709473,4.66872669373089,-2.71834777832031,27.623420715332,20.4111115501523,-0.296147439502557,-2.43076076706203,-1.77142858505249,-1.74895209936652,1.03333094406117,9.50994265746798,-2.13000358390825,-5.43981449218934,-34.2515656553925,-71.6138176623995,-1.87308007048351,9.78004659080727,0.153277185437379,13.0045635835838,-23.7439352861209,-27.4029588628539,-2.18665289878845,9.50822830200195,-0.785566449165344,-0.420000016689301,1.53999996185303,-3.3600001335144,1008,0.00295957690104842,0.0438883416354656
10.185,-22.1340810394287,-30.49338722229,-31.5410700949615,-0.13895861378417,-1.77780832496148,-1.61318683624268,-1.607447052523,-64.9596964454651,46.9956932067871,33.0590057120821,0.0869877709057296,0.571190155633325,0.101098902523518,-0.294613586513542,1.47160827882806,9.90234228314866,-0.554304672022607,-2.25659504872505,-23.4870327292187,79.7742710538325,-6.53907415703493,2.93577646367808,-0.341825901701375,-42.6351032014403,-35.9865618189146,161.842686092531,4.54818885329163,10.8396952860205,4.4698928155522,4.43730300608471,-31.6395262673094,245.2717497472,0,0,0,-0.99361541748047,46.2781982421875,40.461018103098,0.144017264008687,4.48792471093541,4.60219764709473,4.66834257261563,-2.71834777832031,27.623420715332,21.5055662994139,-0.309542846142792,-2.53403766386287,-1.77142858505249,-1.74270140096772,1.02915529273562,9.40972702565482,-2.13626706089656,-4.54024516341381,-35.1897984223675,-72.7479451829188,-1.43046102997539,9.86147179165547,0.0551493792869889,13.7881425977607,-29.3269357621317,-26.8204297273145,-2.18665289878845,9.50822830200195,-0.785566449165344,-0.420000016689301,1.53999996185303,-3.3600001335144,1008,0.00295957690104842,0.0438883416354656
10.19,-22.1340810394287,-30.49338722229,-31.6180461374588,-0.134220353057574,-1.8235556457403,-1.61318683624268,-1.61378610208821,-64.9596964454651,46.9956932067871,36.3647545585525,0.0783748931227932,0.623519209229232,0.101098902523518,-0.270726993713042,1.60313502374338,9.69148194606218,-0.452006092644015,-0.900861797197248,-23.6365242284366,78.1092450453021,-6.65807454529165,2.91489920258041,-0.400282232774861,-40.6788265133993,-39.5511608433688,172.263274563875,3.42965642372646,10.7796935881352,3.76937254974144,-9.09533757371359,-51.2735468807448,274.901800011576,0,0,0,-0.99361541748047,46.2781982421875,41.308460115814,0.140471953049143,4.42890899334047,4.60219764709473,4.66913703452699,-2.71834777832031,27.623420715332,22.5999688622008,-0.322937614054883,-2.63730963615022,-1.77142858505249,-1.7353057124172,1.02497984051607,9.30951617238599,-2.14253023922586,-3.64071872846475,-36.1279864519419,-73.8820186252615,-0.987863094704756,9.9428931099364,-0.0429737478720727,14.5716842488338,-34.9096700260276,-26.237928368293,-2.18665289878845,9.50822830200195,-0.785566449165344,-0.420000016689301,1.53999996185303,-3.3600001335144,1008,0.00295957690104842,0.0438883416354656
10.195,-22.1340810394287,-30.49338722229,-31.6950258505507,-0.129481866387497,-1.86930514797546,-1.61318683624268,-1.61995102990108,-64.9596964454651,46.9956932067871,39.6706610393201,0.0697616046356566,0.675850758130732,0.101098902523518,-0.245774147376721,1.73466804049815,9.48061155412199,-0.34970263516808,0.454936102332627,-23.7860228561414,76.4441396401761,-6.77708060806978,2.89402094595266,-0.458741351332543,-38.7224565405035,-43.1159298453647,182.684359939919,2.31107065705627,10.719689029075,3.06881887969311,-22.6286234561002,-70.9085037404542,304.533263181883,0,0,0,-0.99361541748047,46.2781982421875,42.1559425387161,0.136926473031807,4.36989046158704,4.60219764709473,4.67112775641324,-2.71834777832031,27.623420715332,23.6944236114625,-0.336333020695118,-2.74058653295105,-1.77142858505249,-1.72685231958967,1.02080418919052,9.20930054057283,-2.14879371621418,-2.74114939968922,-37.066219218917,-75.0161461457808,-0.545244054196637,10.0243183107846,-0.141101554022463,15.3552632630108,-40.4926705020384,-25.6553992327536,-2.18665289878845,9.50822830200195,-0.785566449165344,-0.420000016689301,1.53999996185303,-3.3600001335144,1008,0.00295957690104842,0.0438883416354656
10.2,-22.4634368438193,-28.0221573188113,-31.1011839099148,-0.126330336074175,-1.94880355293586,-1.62832645568739,-1.6409925304292,-64.0516181870065,57.9617745434006,44.0225218011463,0.0618647100519165,0.761874049641151,0.0840668294453187,-0.237749419017736,1.75999999999999,9.10203163140765,-0.084596216436114,0.577853619825414,-23.4321188560408,73.6385906689168,-7.07984641985355,3.21289971521561,-0.495831977217266,-35.5870789761826,-41.8252066821364,195.364323097168,1.74041614175128,10.2332950630161,2.06155904332756,-30.6371131086854,-78.36675261714,314.632502430915,0,0,0,-0.424302824243868,44.4247759172255,42.7855936091047,0.136654747321955,4.26350724197184,4.64383160056769,4.71588090420512,-2.38899300040027,25.76999839037,24.3900442784887,-0.339682357407659,-2.80662317572966,-1.74493425102424,-1.69097861544143,0.886534784377523,8.93813822213181,-2.11555736371032,-1.81845498196868,-36.1147713688736,-73.9217081537735,0.299890663140779,10.121801261188,-0.246106590724186,15.0729822750605,-42.3837877577876,-26.2076125827482,-2.14231409276764,9.55411379384839,-0.779379641708438,-0.487808956371346,1.2762985354588,-3.41274039569766,1002.18780512612,0.00561215152428902,0.0452426492374472
10.205,-22.8713774255391,-24.9612883407959,-30.3472874865629,-0.123557176018035,-2.03635719747294,-1.64707841050635,-1.66533705409946,-62.9268711260337,71.5443789487549,48.6241440324951,0.0541382394039923,0.855939330974919,0.0629708787840863,-0.234737608913555,1.75999999999999,8.68342351505289,0.219361269324664,0.40668414549619,-22.9581110809752,70.5608318516509,-7.42646460537024,3.61284377542716,-0.527827502034176,-32.1702729309185,-39.3761665109645,208.583873268441,1.3004327621508,9.64516041606689,0.981077291914076,-37.3281775615,-82.9207807700745,320.073074471184,0,0,0,0.280848587601042,42.1291243108527,43.3633198518455,0.137163934789648,4.14581925283777,4.69539947631982,4.77154669003114,-1.98105369006841,23.4743467839973,24.9905671875724,-0.340635478250767,-2.86378033886304,-1.71211833009107,-1.64802855707829,0.721224572823413,8.62618185516679,-2.07289666395443,-0.890189755798656,-34.7124983676381,-72.2955981476459,1.2410923515053,10.2231204231082,-0.352758340113928,14.5364318074516,-43.3943460004621,-27.0305427477925,-2.08739598268799,9.61094763125706,-0.771716652930607,-0.571797208380078,0.949677562488105,-3.47806456168557,994.988812042311,0.00889763433781382,0.0469200966168919
10.21,-23.2793180072589,-21.9004193627805,-29.5933910632109,-0.120784015961896,-2.12391084201001,-1.6658303653253,-1.68936508394207,-61.8021240650608,85.1269833541091,53.2257662638439,0.0464117687560681,0.950004612308687,0.0418749281228539,-0.233774646753748,1.75999999999999,8.26481539869813,0.523318755085441,0.235514671166965,-22.4841033059096,67.4830730343851,-7.77308279088692,4.01278783563872,-0.559823026851087,-28.7534668856543,-36.9271263397925,221.803423439713,0.860449382550317,9.0570257691177,-0.0994044594994106,-44.0192420143146,-87.474808923009,325.513646511453,0,0,0,0.985999999445952,39.83347270448,43.9410460945864,0.137673122257342,4.0281312637037,4.74696735207195,4.82796760737913,-1.57311437973654,21.1786951776245,25.5910900966561,-0.341588599093875,-2.92093750199643,-1.6793024091579,-1.60452793999075,0.555914361269303,8.31422548820177,-2.03023596419854,0.0380754703713666,-33.3102253664025,-70.6694881415182,2.18229403986981,10.3244395850285,-0.45941008950367,13.9998813398427,-44.4049042431365,-27.8534729128369,-2.03247787260835,9.66778146866573,-0.764053664152776,-0.655785460388811,0.623056589517412,-3.54338872767348,987.789818958503,0.0121831171513386,0.0485975439963367
10.215,-23.6808944090095,-18.9822654552956,-28.7955533565019,-0.118073314638027,-2.21067515353098,-1.68594211052374,-1.7144640274774,-60.6305322681618,98.5210603239216,58.0096003916029,0.0386218921909477,1.04157589848884,0.02861652943406,-0.228117949110818,1.76755130159116,7.87508260684022,0.803610437115164,-0.126720270230601,-21.9931132742204,64.3220827566171,-8.07052088032679,4.39203304273607,-0.595663476193355,-25.3433366224035,-34.36485677492,234.891378195648,0.390591057793277,8.48750313072388,-1.16859187134474,-50.6105617242027,-91.457416411027,330.128087880296,0,0,0,1.67455992529539,37.3140471630472,44.3815508951691,0.138310504003512,3.91013590161715,4.7906253525624,4.87694873376079,-1.18455258815323,18.6071735309754,26.0407269116301,-0.342787956786711,-2.97643442407546,-1.66252232741228,-1.57674212556755,0.396805218557559,8.02275912942753,-1.99029043467659,0.947464292514983,-31.8375964047528,-68.9043511311917,3.09570346887764,10.4108513076876,-0.559419130646835,13.4079517221707,-44.9290060610713,-28.7660622153581,-1.98078552108563,9.71755921462029,-0.757800057112702,-0.775660870065487,0.293653049337016,-3.60144219594722,980.157739437908,0.0158793339719389,0.0503915263097664
10.22,-23.9771123696269,-18.4318579299984,-27.2672736493646,-0.116397645239425,-2.28440315711994,-1.7286539946403,-1.76193181750342,-58.6799644272526,108.795339982193,65.8236067654757,0.0297724363489977,1.09180406724475,0.145512219423809,-0.0964838167209402,1.90052014875326,7.96458086935318,0.691098335670307,-3.66245409790289,-21.2196714994171,59.7761392638956,-7.55143095775165,4.42783234774125,-0.695390111564944,-22.0412137797738,-29.9199342487034,245.804799483383,-0.57582165279207,8.22660854152156,-2.05110182790344,-55.5508657368815,-85.9532748272061,321.026114270583,0,0,0,2.08814837082198,31.076092771044,42.5434665932423,0.14107745771442,3.78693665005762,4.70295365139427,4.79473955020924,-1.1174842970358,11.4518727757499,23.9848412205797,-0.348077796633458,-3.00440483806633,-1.91204965040901,-1.81518906589175,0.340549167835137,8.07134390050599,-1.9954046211059,1.54411937593469,-29.1952667496084,-64.8287865137588,3.54830896787172,10.2497544351643,-0.549190757788206,11.8957941298001,-37.3745319096251,-31.1684670750533,-1.98262281851718,9.65019194695932,-0.77494805978361,-1.49164698845888,-0.0822396452918341,-3.53879344145176,965.326598792904,0.0264000804959594,0.0541224145648727
10.225,-24.2733162057946,-17.8814766495764,-25.7390668146146,-0.114722055741137,-2.3581276451642,-1.77136384214213,-1.80924851509765,-56.7294895945373,119.069129735845,73.637240547017,0.0209234024723272,1.14202984098975,0.262402335520272,0.0300574537478187,2.03348265561176,8.0540748643541,0.57859159909773,-7.19801933250691,-20.4462666043474,55.2304125336904,-7.03236578674633,4.46362994574161,-0.795111991708832,-18.7392483910275,-25.4752236680583,256.717700390549,-1.54218828228307,7.96572639245795,-2.93356970407131,-60.4909341828994,-80.4493956953013,311.92457466686,0,0,0,2.50171709536605,24.8384358210774,40.705469935999,0.143844279489714,3.66374327296173,4.61528613064294,4.71231584111629,-1.05041920391051,4.29691320404311,21.9290535595546,-0.353367384246759,-3.03237391835445,-2.1615650752881,-2.05380398271465,0.284295799548856,8.11992635493505,-2.00051856367738,2.14074600927413,-26.5530630876767,-60.7534162299429,4.00089288544777,10.0886652441627,-0.538962872645239,10.3837086410721,-29.8204179753327,-33.5707573817798,-1.98446002834157,9.58282789154648,-0.792095244792746,-2.20759896675508,-0.458114416370492,-3.47614767421333,950.496165335609,0.0369203253631744,0.0578531249214355
10.23,-24.569534166412,-17.3310691242791,-24.2107871074773,-0.113046386342535,-2.43185564875316,-1.81407572625868,-1.85651928555474,-54.7789217536281,129.343409394116,81.4512469208898,0.0120739466303772,1.19225800974565,0.379298025510021,0.150787977259739,2.16645150277386,8.14357312686706,0.466079497652872,-10.7337531601792,-19.6728248295441,50.6844690409689,-6.51327586417119,4.49942925074679,-0.894838627080421,-15.4371255483979,-21.0303011418417,267.631121678284,-2.50860099286842,7.70483180325562,-3.81607966063001,-65.4312381955783,-74.9452541114804,302.822601057147,0,0,0,2.91530554089264,18.6004814290742,38.8673856340722,0.146611233200623,3.5405440214022,4.52761442947481,4.6293032296851,-0.983350912793078,-2.85838755118238,19.8731678685042,-0.358657224093506,-3.06034433234531,-2.41109239828483,-2.29286480117793,0.228039748826435,8.16851112601351,-2.00563275010668,2.73740109269384,-23.9107334325323,-56.6778516125099,4.45349838444185,9.92756837163935,-0.528734499786611,8.87155104870157,-22.2659438238865,-35.973162241475,-1.98629732577312,9.51546062388551,-0.809243247463653,-2.92358508514848,-0.834007110999342,-3.41349891971787,935.665024690605,0.047441071887195,0.0615840131765418
10.235,-24.8497249997194,-16.8339564840867,-22.7039454654114,-0.110928548845113,-2.49646992757636,-1.86980340787733,-1.91687153878657,-52.9102044718768,138.68606802242,89.5490710789178,0.00338223169418299,1.22942974643848,0.502690372324485,0.271706310363834,2.25696580300655,8.20187473023471,0.360937365117344,-13.9619372647855,-19.3074407346051,46.4253255339469,-6.14892044543649,4.58059971142816,-0.914673506887511,-11.8960958763645,-16.902644236808,277.828443491978,-3.33386731147766,7.48204135894775,-4.56969738006592,-69.6500015258789,-70.245002746582,295.049987792969,0,0,0,3.28004332315306,13.0026602070749,36.7090125180563,0.147755366710671,3.41956506050087,4.43548517531543,4.54089393797549,-0.948362240457254,-9.51050676480534,17.4154542046245,-0.364098449567346,-3.09538421140721,-2.63114704415857,-2.50313273125105,0.179244780426453,8.21226565872064,-2.02548200125787,3.11778035686747,-21.1886022506288,-52.4679514613496,4.7826033124098,9.77602843788925,-0.516223902132208,7.47115964184453,-14.5407314231323,-38.3342381461979,-1.9778276317814,9.46751892430108,-0.825062450057569,-3.63544429235455,-1.12724565377218,-3.29920495280159,922.244780426445,0.0572397857966914,0.0649332861019355
10.24,-25.0362680106352,-16.6483921733201,-21.3219984888327,-0.106223870616386,-2.50780103117064,-2.00167597687236,-2.05355376788238,-51.519603763175,142.582920521704,99.309530939295,-0.00438972812566765,1.19024927213161,0.664120609217537,0.424144191250783,2.09920186461787,8.07773261478131,0.298866307390647,-15.3923813934666,-21.328581657496,43.8422244176457,-6.68945590647314,4.92716311706888,-0.467244632440911,-6.95659349451272,-14.6292598180113,283.84077897034,-3.33386731147766,7.48204135894775,-4.56969738006592,-69.6500015258789,-70.245002746582,295.049987792969,0,0,0,3.35918287201976,11.1470163594643,32.6766319740071,0.139408336653215,3.31153260725364,4.31725453455438,4.42511977658539,-1.10098914750989,-13.2217944600265,12.6067298029715,-0.370426875048074,-3.17178336213344,-2.67889400879471,-2.54200312995954,0.174072192282566,8.22778342315232,-2.13152005820765,2.23333164337494,-17.9988395618958,-47.4709758778991,4.38948661347406,9.68033555722726,-0.490360961412761,6.72400802106023,-5.81438364704901,-40.4543606940644,-1.90907172645936,9.53317766788555,-0.833114944168056,-4.32339853769043,-0.937153051199966,-2.88281157268759,917.072192282554,0.0628186814894659,0.0660516642961414
10.245,-25.2228021266908,-16.4628367107468,-19.9401174071126,-0.101519416719064,-2.51913159446816,-2.13354225783721,-2.19053269172493,-50.1290693619646,146.479587208834,109.06952539533,-0.012161317358077,1.15107066605259,0.825543148693227,0.570164091987694,1.94144544882783,7.95359641874979,0.236798209374884,-16.8227573148175,-23.3496262070832,41.2592464703849,-7.22996559336039,5.27370999765689,-0.0198370925772998,-2.01732664109805,-12.3559838001501,289.852827764768,-3.33386731147766,7.48204135894775,-4.56969738006592,-69.6500015258789,-70.245002746582,295.049987792969,0,0,0,3.43831864730507,9.29146099382245,28.644443704445,0.131061704604058,3.20350530527729,4.19902953134057,4.30780983225349,-1.25360877691104,-16.9329051913102,7.79823469391817,-0.376754998772867,-3.24817886994765,-2.72663869673025,-2.58199028515648,0.168899850781257,8.24330044765626,-2.23755305898458,1.34892510271826,-14.8092289694192,-42.4742385633588,3.99638865937425,9.58464723945296,-0.464499253906203,5.97689202642607,2.91154803387041,-42.5743821489237,-1.84031909959933,9.5988332806888,-0.841167054314491,-5.01131997956239,-0.747069512741931,-2.46643804730276,911.89985078124,0.0683973111658522,0.0671699891631399
10.25,-25.4093451376067,-16.2772723999802,-18.5581704305338,-0.0968147384903377,-2.53046269806244,-2.26541482683224,-2.32792966077343,-48.7384686532628,150.376439708118,118.829985255707,-0.0199332771779276,1.11189019174572,0.986973385586279,0.710226523346247,1.78368151043916,7.82945430329639,0.174727151648186,-18.2532014434985,-25.3707671299741,38.6761453540836,-7.77050105439704,5.62027340329761,0.427591781869301,2.92217574075367,-10.0825993813534,295.865163243131,-3.33386731147766,7.48204135894775,-4.56969738006592,-69.6500015258789,-70.245002746582,295.049987792969,0,0,0,3.51745819617177,7.43581714621189,24.6120631603958,0.122714674546601,3.09547285203006,4.08079889057952,4.18873483592675,-1.40623568396367,-20.6441928865313,2.98951029226512,-0.383083424253595,-3.32457802067388,-2.77438566136639,-2.62328117406226,0.163727262637371,8.25881821208793,-2.34359111593435,0.464476389225724,-11.6194662806863,-37.4772629799082,3.60327196043852,9.48895435879097,-0.438636313186755,5.22974040564177,11.6378958099537,-44.6945046967903,-1.77156319427729,9.66449202427326,-0.849219548424978,-5.69927422489827,-0.556976910169717,-2.05004466718876,906.727262637349,0.0739762068586267,0.0682883673573458
10.255,-25.5437642669678,-16.1435585021973,-17.4718722838048,-0.0915563250076329,-2.52900765932522,-2.36043953895569,-2.42898242066897,-47.7364298439026,153.184432983398,126.968998243665,-0.0265841508975416,1.06343005307401,1.10329675674438,0.800001451154711,1.66601166299836,7.75152186244924,0.118921286106505,-19.3703919405023,-26.5393874810876,35.9378183520363,-8.21495042091173,5.93248394635929,0.746011662998345,6.82779387133723,-6.52851081209867,300.72821493712,-3.39722988736472,7.84565970627776,-4.65248264532515,-68.2587366148487,-67.6516972935843,294.780110484809,0,0,0,3.57448455810547,6.09867763519287,21.120822018247,0.114738294221343,2.9969067617869,3.9956042766571,4.10078854529966,-1.51621555328369,-23.3184719085693,-1.26160523788903,-0.39045425119305,-3.39759429889579,-2.8087911605835,-2.65268406739841,0.171078713893515,8.27265889133442,-2.40714869188357,-0.235755659148239,-9.17874243889842,-33.5805637424011,3.20167933561752,9.409807583218,-0.438612239341077,4.59725734371947,18.379469324331,-46.8152753511379,-1.71894116570028,9.70893877687736,-0.858206062054407,-6.31753074140671,-0.412244916435583,-1.67244900274557,904.019241678201,0.0787197649795052,0.0689482459913965
10.26,-25.5437642669678,-16.1435585021973,-17.1479497674809,-0.0848687759093626,-2.49457333436982,-2.36043953895569,-2.43558148800499,-47.7364298439026,153.184432983398,130.927235310303,-0.0303445651064788,0.99102679304708,1.10329675674438,0.769380523492971,1.65173560845001,7.79276379781111,0.0792655790277764,-19.6798043710425,-25.5093182503018,32.7986529966189,-8.41164272802222,6.15614213428331,0.731735608450006,8.06740190002047,0.329478629368444,302.627772263854,-3.62403308611937,9.14721355167883,-4.9488083976748,-63.2787728472901,-58.3690890054346,293.814098041265,0,0,0,3.57448455810547,6.09867763519287,19.0247348956198,0.10771656185182,2.92274024683433,3.9956042766571,4.09605819331082,-1.51621555328369,-23.3184719085693,-4.07521707277755,-0.400514981131519,-3.46189766484477,-2.8087911605835,-2.64925352127379,0.210734420972244,8.28217626103331,-2.36114807167224,-0.46096090922497,-8.66958274307276,-32.5211199137792,2.77815638401669,9.37332433270557,-0.505233827233336,4.26042862186558,20.0029054314059,-48.9380796214264,-1.70792393714755,9.69868145695327,-0.869603207102829,-6.75612284051902,-0.384485919589541,-1.39485905319447,907.667566729444,0.0813095634437234,0.0684256386253733
10.265,-25.5437642669678,-16.1435585021973,-16.8240426966327,-0.0781815456909845,-2.46014065133342,-2.36043953895569,-2.44278728685667,-47.7364298439026,153.184432983398,134.88528363781,-0.0341048000089975,0.918626985397607,1.10329675674438,0.736085216040526,1.63746023462141,7.83400376664928,0.0396117628372354,-19.989202047986,-24.4792981359204,29.6596373248442,-8.6083256563273,6.37978965759796,0.717460234621415,9.3069508209396,7.18714106390053,304.52723901471,-3.85082547030226,10.4487053355767,-5.24512002043488,-58.2990465374737,-49.0869233364098,292.84813165973,0,0,0,3.57448455810547,6.09867763519287,16.9287477199276,0.100695164296926,2.84857726833583,3.9956042766571,4.0893570781506,-1.51621555328369,-23.3184719085693,-6.8886947472696,-0.41057523134798,-3.52619796464049,-2.8087911605835,-2.64747803280047,0.250388237162785,8.29169317691905,-2.31514964489121,-0.686155420924338,-8.16044732531766,-31.4617266022196,2.35465362710171,9.33684282181027,-0.571852238433438,3.92361596088914,21.6262641287866,-51.0607826708362,-1.69690723392519,9.68842462612511,-0.880999808705464,-7.19469402640898,-0.356728246365321,-1.11728233986068,911.315717818974,0.0838992384195541,0.067903056178641
10.27,-25.5437642669678,-16.1435585021973,-16.5001201803088,-0.0714939965927142,-2.42570632637803,-2.36043953895569,-2.45059765229664,-47.7364298439026,153.184432983398,138.843520704448,-0.0378652142179347,0.846223725370678,1.10329675674438,0.70175356890744,1.62318418007306,7.87524570201115,-4.39442414936486e-05,-20.2986144785262,-23.4492289051346,26.5204719694268,-8.80501796343779,6.60344784552199,0.703184180073077,10.5465588496228,14.0451305053676,306.426796341444,-4.07762866905691,11.7502591809778,-5.54144577278453,-53.3190827699151,-39.8043150482601,291.882119216187,0,0,0,3.57448455810547,6.09867763519287,14.8326605973004,0.0936734319274033,2.77441075338326,3.9956042766571,4.08077146288772,-1.51621555328369,-23.3184719085693,-9.70230658215812,-0.420635961286449,-3.59050133058947,-2.8087911605835,-2.64740361493261,0.290043944241514,8.30121054661794,-2.26914902467988,-0.911360671001069,-7.65128762949199,-30.4022827735977,1.93113067550088,9.30035957129784,-0.638473826325696,3.58678723903524,23.2497002358615,-53.1835869411247,-1.68589000537246,9.67816730620103,-0.892396953753885,-7.63328612552129,-0.32896924951928,-0.839692390309576,914.964042870217,0.0864890368837724,0.0673804488126179
10.275,-25.5437642669678,-16.1435585021973,-16.1762131094606,-0.0648067663743361,-2.39127364334162,-2.36043953895569,-2.458967716995,-47.7364298439026,153.184432983398,142.801569031954,-0.0416254491204534,0.773823917721205,1.10329675674438,0.668199912829453,1.60890880624446,7.91648567084931,-0.0396977604320347,-20.6080121554697,-22.4192087907532,23.3814562976522,-9.00170089174286,6.82709536883663,0.688908806244486,11.786107770542,20.9027929398997,308.3262630923,-4.3044210532398,13.0517509648756,-5.83775739554461,-48.3393564600987,-30.5221493792354,290.916152834652,0,0,0,3.57448455810547,6.09867763519287,12.7366734216082,0.0866520343725085,2.70024777488476,3.9956042766571,4.07046170031687,-1.51621555328369,-23.3184719085693,-12.5157842566502,-0.43069621150291,-3.6548016303852,-2.8087911605835,-2.64903866149682,0.329697760432055,8.31072746250367,-2.22315059789885,-1.13655518270044,-7.14215221173689,-29.3428894620381,1.5076279185859,9.26387806040254,-0.705092237525799,3.2499745780588,24.8730589332421,-55.3062899905344,-1.6748733021501,9.66791047537287,-0.90379355535652,-8.07185731141125,-0.30121157629506,-0.562115676975789,918.612193959747,0.0890787118596031,0.0668578663658856
10.28,-25.5437642669678,-16.1435585021973,-15.8522905931367,-0.0581192172760658,-2.35683931838623,-2.36043953895569,-2.46780693940017,-47.7364298439026,153.184432983398,146.759806098592,-0.0453858633293906,0.701420657694275,1.10329675674438,0.637341224366865,1.59463275169612,7.95772760621119,-0.0793534675107637,-20.9174245860099,-21.3891395599674,20.2422909422347,-9.19839319885335,7.05075355676066,0.674632751696148,13.0257157992252,27.7607823813668,310.225820419034,-4.53122425199445,14.3533048102767,-6.13408314789426,-43.3593926925401,-21.2395410910857,289.950140391108,0,0,0,3.57448455810547,6.09867763519287,10.640586298981,0.0796303020029862,2.62608125993218,3.9956042766571,4.05865503179153,-1.51621555328369,-23.3184719085693,-15.3293960915387,-0.440756941441379,-3.71910499633418,-2.8087911605835,-2.65235410243415,0.369353467510784,8.32024483220257,-2.17714997768752,-1.36176043277717,-6.63299251591122,-28.2834456334163,1.08410496698507,9.2273948098901,-0.771713825418057,2.9131458562049,26.496495040317,-57.4290942608229,-1.66385607359737,9.65765315544878,-0.915190700404941,-8.51044941052356,-0.273452579449018,-0.284525727424686,922.26051901099,0.0916685103238214,0.0663352589998625
10.285,-25.5437642669678,-16.1435585021973,-15.5283835222885,-0.0514319870576876,-2.32240663534982,-2.36043953895569,-2.47697839302832,-47.7364298439026,153.184432983398,150.717854426099,-0.0491460982319093,0.629020850044803,1.10329675674438,0.611117664473515,1.58035737786752,7.99896757504935,-0.119007283701305,-21.2268222629534,-20.359119445586,17.1032752704601,-9.39507612715843,7.27440108007531,0.660357377867557,14.2652647201444,34.6184448158989,312.125287169889,-4.75801663617734,15.6547965941745,-6.43039477065434,-38.3796663827237,-11.9573754220609,288.984174009573,0,0,0,3.57448455810547,6.09867763519287,8.5445991232888,0.0726089044480914,2.55191828143369,3.9956042766571,4.04563593744017,-1.51621555328369,-23.3184719085693,-18.1428737660307,-0.45081719165784,-3.78340529612991,-2.8087911605835,-2.65728440713849,0.409007283701325,8.3297617480883,-2.13115155090649,-1.58695494447654,-6.12385709815612,-27.2240523218566,0.660602210070091,9.1909132989948,-0.838332236618159,2.57633319522846,28.1198537376977,-59.5517973102326,-1.65283937037501,9.64739632462063,-0.926587302007576,-8.94902059641352,-0.245694906224798,-0.00694901409089874,925.90867010052,0.0942581852996521,0.0658126765531302
10.29,-25.7314524659509,-13.5493830032469,-15.0588410833314,-0.0345954166968774,-2.23963401406462,-2.4021582103551,-2.5280192895414,-45.2767341360222,155.454335413565,152.825768872967,-0.0575796501074178,0.495060391895589,1.0953503431445,0.583465198082097,2.03195230043211,7.90057049390493,0.166989710774391,-21.1452933727542,-18.5032054994847,15.1303974568308,-8.88929390051168,7.36587093708209,0.359451720212652,16.0064614824993,38.3555249379769,312.895405221061,-5.84558762561031,16.4044915815617,-3.59588065979571,-33.2959540895709,-12.9430116932094,278.757169652072,0,0,0,3.60905888150355,6.5850855143076,7.54543480656117,0.0711514778479498,2.43070116057439,3.85852864205902,3.89465894458737,-1.89652987804779,-23.9670158910608,-20.0198414968415,-0.448444928405652,-3.86747319366179,-2.86441605578272,-2.71935438465952,0.504909983090762,8.55371638871389,-1.98989478686604,-0.82817944247901,-6.05531453081083,-25.1135285899827,0.649999999999977,9.19,-0.839999999999975,2.55953174752287,28.7909951845535,-59.4738163078994,-1.65743452972529,9.64551569910824,-0.880327915196214,-9.59273330185348,-0.379455820612158,0.403367420592904,931.197451454969,0.0978070480747097,0.0643838475625716
10.295,-25.9239505938365,-10.8887259685481,-14.5855822543992,-0.017499073899797,-2.15562425799391,-2.44494601579928,-2.580058662703,-42.7540032371147,157.782409158516,154.886075934801,-0.0661327822567536,0.359525845564528,1.08720028496465,0.563872737917366,2.49548688703954,7.7985928848513,0.461334173270104,-21.0537309852761,-16.6261765561855,13.1875580475318,-8.36549981764529,7.45394250853751,0.0512012201187027,17.760453467625,42.0122977878799,313.636488294711,-6.95520689580656,17.1399818928029,-0.681117661763462,-28.2098204666896,-14.1922372626569,268.292877774004,0,0,0,3.64451924908711,7.08395868068483,6.57448153131998,0.0698369838138495,2.3082817994051,3.71794013845672,3.73964975890132,-2.28659060600926,-24.6321802602507,-21.8726714720811,-0.44575356223823,-3.9520445352644,-2.92146646304162,-2.78423282852736,0.602252246278313,8.78316600908457,-1.84619906501773,-0.0441764996985391,-5.99808803863708,-22.9761191072929,0.649999999999977,9.19,-0.839999999999975,2.55094777369681,29.4376545461169,-59.339334051291,-1.6624303166831,9.64385023417767,-0.832590407656602,-10.24168176731,-0.517357366758784,0.817072031403966,936.528099200955,0.101380365524381,0.0629318195400514
10.3,-26.1164579009757,-8.22794206068937,-14.112300858168,-0.000401915865350841,-2.07161049592654,-2.48773586157561,-2.63177526497896,-40.2311520420412,160.110593917427,156.946481242168,-0.0746863222613251,0.223984836282424,1.07904983815011,0.554080907218384,2.95904357724654,7.69661041300576,0.755692671551545,-20.962164231655,-14.7490581069522,11.2446259941333,-7.84168075771138,7.54201827967685,-0.257063978868962,19.5145290916799,45.6692450106241,314.377606706832,-8.06487907808474,17.8755072758247,2.23378432644561,-23.1234443120443,-15.4415224012985,257.828086907244,0,0,0,3.67998130759469,7.5828556357782,5.60348195627071,0.068522427098235,2.18585660068103,3.57734493090593,3.58449656757599,-2.67666993397682,-25.2973763477359,-23.7255897993294,-0.443062067733286,-4.03661990964281,-2.97851959074339,-2.85033705992582,0.699599151221773,9.01262657073703,-1.70249649105356,0.739863828182441,-5.94085881762388,-20.8386077024495,0.649999999999977,9.19,-0.839999999999975,2.54236339054483,30.0843447435662,-59.20484538191,-1.6674263418645,9.64218468982956,-0.784850623758803,-10.890661177808,-0.655265488726598,1.23079636967728,941.859001138335,0.10495385336733,0.0614797222777227
10.305,-26.3089560288612,-5.5672850259905,-13.6390420292359,0.0166944269317296,-1.98760073985583,-2.53052366701979,-2.6828878361019,-37.7084211431337,162.438667662378,159.006788304002,-0.0832394544106608,0.0884502899513639,1.07089977997027,0.555355048530005,3.42257816385397,7.59463280395213,1.05003713404726,-20.870601844177,-12.872029163653,9.30178658483423,-7.31788667484498,7.63008985113228,-0.565314478962912,21.2685210768055,49.3260178605271,315.118689780483,-9.17449834828098,18.6109975870659,5.14854732447786,-18.037310689163,-16.690747970746,247.363795029177,0,0,0,3.71544167517825,8.08172880215542,4.63252868102952,0.0672079330641347,2.06343723951174,3.43675642730363,3.42959992288886,-3.06673066193828,-25.9625407169259,-25.578419774569,-0.440370701565863,-4.12119125124542,-3.0355699980023,-2.91747807897739,0.796941414409324,9.24207619110772,-1.55880076920526,1.52386677096291,-5.88363232545013,-18.7011982197597,0.649999999999977,9.19,-0.839999999999975,2.53377941671878,30.7310041051296,-59.0703631253016,-1.67242212882231,9.64051922489899,-0.737113116219191,-11.5396096432645,-0.793167034873224,1.64450098048834,947.189648884321,0.108527170817001,0.0600276942552025
10.31,-26.3770155528016,-3.78238813469606,-12.7475472026801,0.0327955443138306,-1.91789960943114,-2.54613475075314,-2.70593323835248,-35.9845063477966,164.286876121601,160.220113041736,-0.0882109301520412,-0.0171170348054749,1.06273273274553,0.568615877761543,3.75933413742948,7.55140178793147,1.11560715172583,-21.0882022538342,-12.5257242887406,7.15738102026489,-6.54917999929049,7.87372698570366,-1.11219376352479,25.2670878098409,37.9784203539687,317.719335184156,-9.55133819580078,18.8607788085938,6.13843536376953,-16.3099994659424,-17.1149997711182,243.809997558594,0,0,0,3.75970064821365,8.07489074817119,4.45774057392862,0.0600629169886581,1.98819591678148,3.33933834966337,3.3185020800577,-3.33343609468516,-26.1884384155273,-26.3564911141589,-0.44098516080389,-4.19734359220486,-3.10353771043554,-2.99637359535739,0.691200290893596,9.3470229522154,-1.47806378374542,1.71733435991362,-5.82022078483465,-18.2285540415248,0.330637837454308,9.23421937635248,-0.782269147539799,2.33524349967527,29.2688858581997,-59.6706945928037,-1.67353038556689,9.63024564161344,-0.749142565510586,-11.8631787924469,-1.08934819449461,1.47116523256256,957.598212068537,0.112147615840377,0.058959494488905
10.315,-26.381080867585,-2.4479568490491,-11.6410498288138,0.048383730539046,-1.85556134781378,-2.54776978949673,-2.7138256616123,-34.6714862964611,165.888192972636,160.997811682938,-0.0913402738780283,-0.107266878018894,1.0545575390276,0.594441796068646,4.0308732129554,7.53838279115968,1.06353116463867,-21.4647658288913,-12.9665792058806,4.90948016672294,-5.65458893540032,8.19734204831673,-1.78174216893115,30.4195796539146,18.9160374263842,321.276024072957,-9.55133819580078,18.8607788085938,6.13843536376953,-16.3099994659424,-17.1149997711182,243.809997558594,0,0,0,3.80848087822052,7.80800442896238,4.6923721863658,0.0499202234429571,1.93722009810071,3.26412656745845,3.23059576713559,-3.53669003877133,-26.1884384155273,-26.5818397768941,-0.44329950986707,-4.26916118407249,-3.17711445389687,-3.08149948108022,0.481036485863265,9.38793979921246,-1.42970751002163,1.60712063062862,-5.75363332339163,-18.6120059746622,-0.152924899783616,9.30117421689312,-0.69485588350064,2.03904410222184,26.7224894878442,-60.6488414402081,-1.6726395016302,9.61554630054156,-0.791904739502425,-12.0194067820875,-1.46689911772666,0.995971860147545,970.617208840328,0.115792033581075,0.0580887454836604
10.32,-26.3851463762227,-1.11346193118214,-10.5344996917329,0.0639726600853346,-1.79322011360276,-2.54940490620697,-2.72027079722119,-33.3584036338981,167.489586182301,161.775547408619,-0.0944697668264523,-0.197421020018409,1.04638195547639,0.633012014813442,4.3024252367945,7.52536317357835,1.01145269431338,-21.8413473603441,-13.4074551451424,2.66147212225765,-4.75995521302634,8.52097254248111,-2.45132250168505,35.5723171940373,-0.147254488989443,324.832882562106,-9.55133819580078,18.8607788085938,6.13843536376953,-16.3099994659424,-17.1149997711182,243.809997558594,0,0,0,3.85726343430769,7.54110538330661,4.92701498718753,0.0397770462439471,1.88624184864322,3.18891119878735,3.14399428528586,-3.73995367500112,-26.1884384155273,-26.8071991853575,-0.445613969289749,-4.34098220055469,-3.25069470585773,-3.16702614594773,0.270862659193289,9.42885859732521,-1.38134893043385,1.49690164581316,-5.68704268673229,-18.995476192666,-0.636510695661434,9.36813225016851,-0.607438451168885,1.74283058053029,24.175971692837,-61.6270349304453,-1.67174857521181,9.6008462585331,-0.834668952604177,-12.175642221444,-1.84446804443605,0.520755828184946,983.636826421654,0.119436625105462,0.0572179549568382
10.325,-26.3892116910062,0.220969354464825,-9.42800231786656,0.07956084631055,-1.7308818519854,-2.55103994495055,-2.72502831829749,-32.0453835825626,169.090903033335,162.553246049821,-0.0975991105524393,-0.287570863231828,1.03820676175847,0.684084292920335,4.57396431232042,7.51234417680656,0.959376707226219,-22.2179109354012,-13.8483100622824,0.413571268715701,-3.86536414913617,8.84458760509418,-3.12087090709141,40.7248090381109,-19.2096374165739,328.389571450907,-9.55133819580078,18.8607788085938,6.13843536376953,-16.3099994659424,-17.1149997711182,243.809997558594,0,0,0,3.90604366431456,7.27421906409781,5.1616465996247,0.0296343526982461,1.83526602996246,3.11369941658243,3.05898371605336,-3.94320761908728,-26.1884384155273,-27.0325478480927,-0.447928318352929,-4.41279979242232,-3.32427144931907,-3.25271957216226,0.0606988541629586,9.46977544432226,-1.33299265671006,1.38668791652815,-5.62045522528927,-19.3789281258034,-1.12007343289936,9.43508709070915,-0.520025187129727,1.44663118307685,21.6295753224815,-62.6051817778496,-1.67085769127512,9.58614691746121,-0.877431126596015,-12.3318702110846,-2.2220189676681,0.0455624557699325,996.655823193444,0.12308104284616,0.0563472059515937
10.33,-26.3932771996438,1.55546427233179,-8.32145218078565,0.0951497758568386,-1.66854061777439,-2.55267506166079,-2.72790205121583,-30.7323009199996,170.692296243001,163.330981775503,-0.100728603500863,-0.377725005231342,1.03003117820726,0.746997766552906,4.84551633615951,7.49932455922524,0.90729823690092,-22.594492466854,-14.2891860015443,-1.83443677574959,-2.9707304267622,9.16821809925856,-3.79045123984532,45.8775465782336,-38.2729293319476,331.946429940056,-9.55133819580078,18.8607788085938,6.13843536376953,-16.3099994659424,-17.1149997711182,243.809997558594,0,0,0,3.95482622040173,7.00732001844204,5.39628940044643,0.019491175499236,1.78428778050496,3.03848404791133,2.97578260879867,-4.14647125531708,-26.1884384155273,-27.257907256556,-0.450242777775608,-4.48462080890451,-3.39785170127993,-3.33836199483837,-0.149474972507018,9.51069424243501,-1.28463407712228,1.27646893171269,-5.55386458862993,-19.7623983438071,-1.60365922877718,9.50204512398454,-0.432607754797971,1.15041766138531,19.0830575274744,-63.5833752680868,-1.66996676485673,9.57144687545274,-0.920195339697767,-12.488105650441,-2.59958789437748,-0.429653576192667,1009.67544077477,0.126725634370546,0.0554764154247715
10.335,-26.3819113821327,2.92781970464227,-6.93522944429653,0.111952173266413,-1.60830923415844,-2.54874165203472,-2.72318312201017,-29.1811323149801,171.787128522401,164.244079637453,-0.107465190780942,-0.46466297393706,0.992911006615665,0.791742707253841,5.09080541904961,7.49508054190497,0.797420829929157,-22.4242423147557,-15.4077893380677,-4.41485482946579,-2.30677466557731,9.46749862816587,-4.16185703659442,49.4675448512601,-55.7466368047172,334.084337275032,-9.80738767015253,18.4964342487234,6.48157290667388,-13.3556643537459,-24.4131981013079,240.108823135221,0,0,0,4.01514578024385,7.07654348449445,5.71370769359564,0.0102553107075129,1.74871419860487,2.9488840443303,2.88017545620743,-4.38088332455786,-25.9801386283212,-27.3377867764783,-0.453001547900358,-4.56309173775062,-3.48181423548772,-3.43411461837915,-0.266613581767419,9.56830587632765,-1.25145158340142,1.27727834736178,-6.23286057935133,-20.1015518548778,-1.95145158340141,9.56887058421843,-0.320646164351828,0.96246466162856,17.1651751499081,-64.3565297873548,-1.73155931157883,9.55240118510112,-0.932049289714423,-12.5618962756524,-2.84967794113011,-0.86907054876539,1019.72579170071,0.130504167537861,0.0541758458260379
10.34,-26.3316066800033,4.39564696616205,-4.84334663995486,0.131815835728349,-1.55340472200838,-2.53075680405133,-2.70231456456602,-27.0292513262696,171.603652149548,165.498706934515,-0.123303602925801,-0.543481101736463,0.882753797475197,0.772781639245734,5.26981086980381,7.51298108698039,0.541698757423151,-20.874124566602,-18.2365174487514,-7.83395365074979,-2.22494360237539,9.70532015559645,-3.78083114856047,49.1139538374246,-69.2083518314531,332.641559656079,-10.7095404804063,17.212719570457,7.6905677676025,-2.94649741189897,-50.1273306924383,227.068277296421,0,0,0,4.10457495274823,7.99393559153431,6.23998662619404,0.00330939950274166,1.75201446919599,2.82299010844659,2.75035341639795,-4.69388420894532,-25.2462248451391,-27.0505583655253,-0.456881360628374,-4.65833932158461,-3.59197142938597,-3.55558430237665,-0.148981428414647,9.66803748460499,-1.25656602485153,1.55825692085604,-8.79323836703492,-20.328860363772,-1.95656602485154,9.63535832306999,-0.146755155047742,1.04770535246389,16.8336835744374,-64.6122518598608,-1.95081979108796,9.52239058875296,-0.86590368024565,-12.4276420412614,-2.7780757071758,-1.21813118017484,1022.28301242577,0.134620509034245,0.0517908332258583
10.345,-26.2812995790994,5.86354422087536,-2.75136408439464,0.151680445387007,-1.49849759174225,-2.5127710984623,-2.67934658271335,-24.8772677253333,171.420167027643,166.753394058352,-0.139142770323731,-0.622302987970266,0.772591335499426,0.761361779039475,5.44882485641471,7.53088248564148,0.285964490836153,-19.3239329012414,-21.0653804470471,-11.253215511413,-2.14310863706756,9.94315302352236,-3.39978709134584,48.7603459626376,-82.6707087786995,331.198713238421,-11.611736309725,15.9289436783869,8.89962027932797,7.46316589001383,-75.8426894593635,214.027109620519,0,0,0,4.1940083896736,8.91137144432341,6.76629065434976,-0.00363684291709818,1.75531489716017,2.69709016932337,2.62263708882476,-5.00690001874809,-24.5122760653529,-26.7633162581146,-0.460761358364865,-4.75359144728994,-3.70213387611879,-3.67639286636189,-0.0313436657846183,9.76777384857391,-1.26168071018327,1.83924889278497,-11.3537382460727,-20.5561797118493,-1.96168071018329,9.70184923238261,0.0271441462314187,1.13295010799289,16.5021761918246,-64.8679861264478,-2.17009072601072,9.49237856135256,-0.799754916630225,-12.2933814049709,-2.70647005887626,-1.56720845650497,1024.84035509164,0.138737046817954,0.0494057068965957
10.35,-26.2309948769701,7.33137148239514,-0.659481280052977,0.171544107848943,-1.44359307959219,-2.49478625047891,-2.65435843467577,-22.7253867366228,171.23669065479,168.008021355415,-0.15498118246859,-0.701121115769669,0.662434126358958,0.755422551252647,5.62783030716891,7.54878303071689,0.0302424183301471,-17.7738151530877,-23.8941085577308,-14.672314332697,-2.06127757386564,10.1809745509529,-3.01876120331189,48.4067549488022,-96.1324238054355,329.755935619468,-12.5138891199788,14.6452290001205,10.1086151402566,17.8723328318607,-101.556822050494,200.986563781718,0,0,0,4.28343756217798,9.82876355136328,7.29256958694816,-0.0105827541218694,1.75861516775128,2.57119623343966,2.49700292378864,-5.31990090313556,-23.7783622821708,-26.4760878471615,-0.464641171092882,-4.84883903112393,-3.81229107001703,-3.79636230671399,0.0862884875681536,9.86750545685125,-1.26679515163338,2.12022746627923,-13.9141160337562,-20.7834882207436,-1.96679515163342,9.76833697123417,0.201035155535504,1.21819079882822,16.1706846163539,-65.1237081989538,-2.38935120551984,9.4623679650044,-0.733609307161452,-12.1591271705799,-2.63486782492195,-1.91626908791442,1027.3975758167,0.142853388314338,0.0470206942964162
10.355,-26.0102711832983,10.7788339336856,1.72126956582255,0.192205270676458,-1.39261606707592,-2.40210715420142,-2.55281112392075,-20.2505484335098,167.07742863535,168.361575886941,-0.170203408677962,-0.770546883697303,0.527925217390338,0.72831389477861,5.90406850899744,7.57811799485861,-0.106849228791767,-15.613242724301,-25.8766763464407,-18.4066633342855,-2.11468174807197,10.4699111825193,-2.60888560411308,47.7490112348852,-105.51108080231,325.158663873814,-13.4622658855811,13.9890777138879,11.026034997386,27.3119975839237,-127.569469862989,187.079650943432,0,0,0,4.40547698415643,10.692504337171,7.853672728996,-0.0157903654099658,1.74907916669499,2.40824371136553,2.33628435490188,-5.69643754152528,-23.6073498997774,-26.161072884792,-0.459808768187817,-4.92253745037505,-3.94591510335706,-3.93882280246167,0.202275321336782,9.91590822622109,-1.30522943444728,1.75325351486877,-15.755866736488,-20.9880589672792,-1.99315077120825,9.77779023136247,0.38649820051414,1.43563616744421,15.0769457932654,-65.3249584245771,-2.52674579620361,9.44356250762939,-0.692160665988922,-12.0749998092651,-2.58999991416931,-2.13499999046326,1029,0.14543280005455,0.0455261804163456
10.36,-25.5035999421657,17.5478311271962,4.5864584378698,0.214202060006495,-1.34823620047971,-2.1840973929084,-2.32429976983893,-17.2340797855799,156.247033948334,167.203018202092,-0.184389685250703,-0.824202708215048,0.352569522757974,0.661099207560526,6.343435218509,7.62663701799486,-0.0448526992287805,-12.4285578723539,-26.4390710590625,-22.6695487003713,-2.39501388174807,10.8445858611825,-2.15065038560409,46.5809606779015,-108.036865340062,315.268503602145,-14.4880887781746,14.3861082289581,11.4540531759581,35.1235601854692,-154.079726649581,171.720685771167,0,0,0,4.5822232442037,11.4661039209488,8.47314183110425,-0.0180803152478883,1.71800416554707,2.1831249361173,2.11520929417337,-6.17954381427912,-24.3809497406182,-25.7994702507073,-0.440357237044801,-4.96006535880985,-4.11890117386619,-4.11955718931963,0.315486375321347,9.87817120822623,-1.39957197943444,0.299013932527211,-16.3914725951316,-21.1544479355105,-2.05514730077122,9.69153419023137,0.591356298200513,1.87490304357484,12.7042391062871,-65.4347751436098,-2.52674579620361,9.44356250762939,-0.692160665988922,-12.0749998092651,-2.58999991416931,-2.13499999046326,1029,0.14543280005455,0.0455261804163456
10.365,-24.9969045404665,24.3171510996488,7.4517839361567,0.236199898251192,-1.30385421763409,-1.96607723584212,-2.09444470928442,-14.2174672976496,145.416122815051,166.044405271537,-0.198576638294599,-0.877861091305323,0.177205466307163,0.592106787039423,6.78282287917738,7.67515835475579,0.0171467866324069,-9.24372115903392,-27.0014925894189,-26.9326373417119,-2.67535938303342,11.2192784061697,-1.69239331619535,45.4128544225459,-110.562770319591,305.377871719191,-15.5139605870284,14.7831576763879,11.8820917645334,42.9354952805821,-180.591247575069,156.360988208212,0,0,0,4.75897793237838,12.239740393744,9.09264047253357,-0.0203703742818357,1.68692768259088,1.9579954261032,1.89571240090165,-6.66267312390639,-25.1545864704887,-25.4378503736378,-0.420904778357502,-4.99759505675914,-4.29189549319848,-4.29913231126138,0.428702827763495,9.84043239074552,-1.49391902313624,-1.15529499508078,-17.0271087625758,-21.3208448379828,-2.11714678663239,9.60527403598972,0.796224164524418,2.31419086610173,10.331419277032,-65.5445970992415,-2.52674579620361,9.44356250762939,-0.692160665988922,-12.0749998092651,-2.58999991416931,-2.13499999046326,1029,0.14543280005455,0.0455261804163456
10.37,-24.4902332993338,31.0861482931593,10.3169728082039,0.258196687581229,-1.25947435103788,-1.7480674745491,-1.8636249452674,-11.2009986497197,134.585728128036,164.885847586687,-0.21276291486734,-0.931516915823067,0.00184977167479905,0.518857163686766,7.22218958868895,7.72367737789204,0.0791433161953938,-6.05903630708686,-27.5638873020407,-31.1955227077978,-2.95569151670952,11.5939530848329,-1.23415809768636,44.2448038655622,-113.088554857342,295.487711447523,-16.5397834796219,15.180188191458,12.3101099431055,50.7470578821275,-207.10150436166,141.002023035947,0,0,0,4.93572419242565,13.0133399775218,9.71210957464182,-0.0226603241197583,1.65585268144296,1.73287665085498,1.67754567829978,-7.14577939666022,-25.9281863113295,-25.0762477395531,-0.401453247214485,-5.03512296519394,-4.46488156370761,-4.47748798700393,0.54191388174806,9.80269537275066,-1.5882615681234,-2.60953457742234,-17.6627146212193,-21.4872338062141,-2.17914331619536,9.51901799485862,1.00108226221079,2.75345774223236,7.95871259005365,-65.6544138182741,-2.52674579620361,9.44356250762939,-0.692160665988922,-12.0749998092651,-2.58999991416931,-2.13499999046326,1029,0.14543280005455,0.0455261804163456
10.375,-24.0926623800964,34.8544616958409,13.8933124876943,0.276308051254254,-1.19493423029189,-1.63666258630981,-1.73883791047806,-9.51620931681904,125.226284403685,160.420837233804,-0.217971005907774,-0.980242922208642,-0.0982505864059492,0.514196678936999,7.41676003932354,7.85083861172987,0.0151391878943454,-3.27718191774903,-29.8120675751515,-34.7677201336779,-2.89066949563833,12.0854210480469,-1.27916313045209,43.0671726368661,-111.210068121773,281.461488944903,-17.5987281851534,15.99607275706,11.0073418932335,45.270792430695,-225.760815001844,139.811340429821,0,0,0,5.10495817020556,14.6404410196701,10.5748328084425,-0.027327951175861,1.58510537660484,1.660187894203,1.61281973244155,-7.4635019084823,-26.1884384155273,-24.967779098558,-0.388744306496207,-5.04633508531309,-4.5854998106153,-4.60225832583975,0.529776254059896,9.7744133202255,-1.82955425030177,-3.34036965905624,-19.1936069603703,-21.8831662666869,-2.04932876217971,9.51770965293247,0.966088801503253,3.00813909310363,6.82908979903303,-66.0377286863472,-2.46784669525255,9.47052328780526,-0.688427624088569,-11.5476504636812,-2.5960614156129,-2.55324259909676,1026.92177603007,0.14832640920812,0.0460650795274101
10.38,-23.7504266869773,37.1013557942398,17.8299016898428,0.292448459306534,-1.12017882946354,-1.57930733407555,-1.66796030788632,-8.50661451987174,116.613188202888,154.279994549051,-0.218627375526818,-1.02646633515247,-0.160194265624175,0.538798726971013,7.48722097089311,8.0178571161911,-0.112734354583786,-0.699735861248556,-32.914668265664,-37.9895277043035,-2.65058039547531,12.6360601799425,-1.57927450565587,41.8847692584466,-107.099041661654,265.339563861493,-18.6743873726546,17.0242300424965,8.82727312671119,33.0588691041235,-240.438873621222,145.80312704743,0,0,0,5.27037175671048,16.7000940261615,11.5608078332798,-0.0332005681829017,1.49425191704735,1.66477631438174,1.62604448759471,-7.69736294470725,-26.1884384155273,-24.9876404704886,-0.379454327076145,-5.04420603286006,-4.67956236206023,-4.69928694766353,0.454095994225911,9.75092634303563,-2.14532361029878,-3.70443391453692,-21.1782404238756,-22.3954336704163,-1.82228798267772,9.55946427904777,0.809508953570859,3.16922947163492,6.32970962558607,-66.5596615127885,-2.37909387165229,9.51114946593762,-0.682802444689825,-10.7530077155141,-2.60519526247455,-3.18347653928885,1023.79017907142,0.15268667920593,0.0468771261795716
10.385,-23.4081746743841,39.3483570355551,21.7666786078465,0.308589637012529,-1.04541986393151,-1.52194934686193,-1.59738333699729,-7.49697158049934,107.999681287476,148.13885903884,-0.219283776444781,-1.07269195225503,-0.222140898620437,0.552517842717284,7.55768526238504,8.1848835849127,-0.240613994698773,1.87783310050472,-36.0174169033745,-41.211488906495,-2.41047984668799,13.1867255690091,-1.87940019164002,40.7023094972423,-102.987819167658,249.216870005726,-19.7500978528546,18.0524363555085,6.64710040383167,20.8463634532314,-255.117632162331,151.795199382774,0,0,0,5.43579323094544,18.7598452469968,12.5468298742358,-0.0390734652250866,1.40339412515188,1.66936495335883,1.63958877181081,-7.93123513257189,-26.1884384155273,-25.0075027895066,-0.370163904664359,-5.04207687888339,-4.77362939886836,-4.79520234683234,0.37841212558644,9.72743824587165,-2.46110802772557,-4.06851553038456,-23.1629685244256,-22.9077255015648,-1.59523637675928,9.60122089622816,0.652921639144357,3.33032753174451,5.83030563924637,-67.0816192275435,-2.29033681588267,9.55177758132514,-0.677176997054974,-9.95832707488841,-2.61432954488276,-3.81374053212221,1020.65843278289,0.157047157122771,0.0476892115540952
10.39,-23.065938981265,41.5952511339541,25.7032678099949,0.324730045064809,-0.970664463103165,-1.46459409462768,-1.52754953523584,-6.48737678355205,99.3865850866801,141.998016354087,-0.219940146063826,-1.11891536519886,-0.284084577838662,0.553675392383022,7.62814619395462,8.35190208937393,-0.368487537176905,4.45527915700519,-39.1200175938869,-44.4332964771206,-2.17039074652497,13.7373647009047,-2.17951156684381,39.5199061188227,-98.8767927075397,233.094944922315,-20.8257570403558,19.080593640945,4.46703163730933,8.63444012665986,-269.795690781709,157.786986000383,0,0,0,5.60120681745036,20.8194982534881,13.532804899073,-0.0449460822321274,1.31254066559439,1.67395337353757,1.65309309135434,-8.16509616879684,-26.1884384155273,-25.0273641614372,-0.360873925244296,-5.03994782643036,-4.8676919503133,-4.89009818101394,0.302731865752455,9.70395126868178,-2.77687738772258,-4.43257978586525,-25.147601987931,-23.4199929052943,-1.36819559725729,9.64297552234346,0.496341791211962,3.4914179102758,5.33092546579941,-67.6035520539849,-2.20158399228241,9.5924037594575,-0.671551817656231,-9.1636843267213,-2.62346339174441,-4.4439744723143,1017.52683582424,0.16140742712058,0.0485012582062568
10.395,-22.6757570326257,41.3403032483618,29.0866876498477,0.337002519406565,-0.824820596610601,-1.39871896634729,-1.45034876053279,-5.69570169455797,89.8674923543852,132.94553152704,-0.223775032388379,-1.2016613849795,-0.348792802650586,0.538167737949545,7.19229948417113,8.19253919287953,0.0180029331445394,2.61812181352995,-41.6459136389348,-47.2787486248934,-2.68135531506018,12.8353550116314,-2.60051077172046,34.5235157277233,-90.2320549368356,215.255159849509,-21.0067176818848,19.2535629272461,4.10027360916138,6.57999992370605,-272.265014648438,158.794998168945,0,0,0,5.79774847950264,20.6912869674028,14.6573109230017,-0.0499997756876642,1.22380802885734,1.66890879882845,1.65657310000818,-8.40207453427354,-26.0302013919244,-25.1878738010925,-0.354077565736442,-5.03889500082754,-4.90678229278436,-4.929139648676,0.404681905532534,9.62942651967229,-2.63371750783856,-4.36313553025733,-28.8032270833255,-23.7866152960553,-1.32779457873975,9.65220542126023,0.379577728330152,3.45044996110369,6.03650884625904,-67.7213081899539,-2.16182735509574,9.63938193544527,-0.623595442274372,-8.7366787221852,-2.45518256716797,-4.86647812895988,1015.89728936988,0.164483999845333,0.0488237186249402
10.4,-22.2759004561759,40.5793794643726,32.3580365810775,0.348492011484789,-0.664607648313585,-1.33112449344627,-1.37295214273649,-4.94814563816812,80.1657100629069,123.304694200956,-0.228252544948355,-1.29178925587804,-0.414056439560065,0.507250263053779,6.65407846161626,7.96717571052896,0.508499924142811,-0.111771349583607,-44.0550279891165,-50.0479208263251,-3.34418908667947,11.6396028876302,-3.04593506624863,28.7560436013371,-80.6708823595518,197.068965108192,-21.0067176818848,19.2535629272461,4.10027360916138,6.57999992370605,-272.265014648438,158.794998168945,0,0,0,6.00057444038943,20.1205936237089,15.8097699885935,-0.0548875544457027,1.13550940929224,1.66191626714903,1.65738189563204,-8.63966978574168,-25.8399704459271,-25.3768199563917,-0.347785923461435,-5.03805989943666,-4.93475241950203,-4.95633652913735,0.542551330029343,9.54458379690502,-2.3977486851421,-4.2060193769846,-32.7965959790072,-24.123760374953,-1.32514324365327,9.65485675634672,0.270872989784581,3.36861863127414,6.98575227228172,-67.7573139750789,-2.13198233808246,9.68764209207153,-0.567080450574407,-8.38405117591182,-2.25102977056625,-5.2469446986983,1014.57162182664,0.167300772033967,0.0490471431176819
10.405,-21.876024812606,39.8184193958102,35.6295415062481,0.359982051438273,-0.50438706027844,-1.26352679730969,-1.29738881310404,-4.20055393464382,70.4634651429277,113.663397152526,-0.232730271018062,-1.38192142451492,-0.479323188559425,0.460924364622929,6.11583177404673,7.74180148174368,0.999020304440162,-2.84179468737472,-46.4642572176708,-52.8172250754514,-4.00705446545969,10.4437937443107,-3.49138060078894,22.9882964536297,-71.109253858727,178.881903160029,-21.0067176818848,19.2535629272461,4.10027360916138,6.57999992370605,-272.265014648438,158.794998168945,0,0,0,6.20341007301151,19.549873066561,16.9622840090785,-0.0597755662769737,1.04720657921645,1.65492340203145,1.65716638015711,-8.8772763669152,-25.6497304287865,-25.5657751215691,-0.341493981170106,-5.03722475822406,-4.96272387997234,-4.9829863736525,0.680427328815623,9.45973702842115,-2.16176861029634,-4.0488957316441,-36.7901552980781,-24.4609215305795,-1.32249178213815,9.65750821786185,0.162163067664619,3.28678339932596,7.93504096288054,-67.7933214771361,-2.10213589791257,9.73590454997845,-0.510562763962817,-8.03140681462979,-2.0468672389592,-5.62742941094636,1013.24589106908,0.170117678540096,0.0492705782643977
10.41,-21.4790349045549,38.8829512912532,38.7209769032761,0.370940399494015,-0.339028499005203,-1.19360601081539,-1.22158081880589,-3.47431566396989,60.614934148002,103.952905176303,-0.237619782070169,-1.47536815016451,-0.541369816472062,0.402272285699843,5.59739309178931,7.54131389198394,1.42832110244488,-5.69314803035339,-48.4753789235332,-55.2425619738666,-4.62789884863154,9.27797697263098,-3.88721058900375,17.2073332836856,-61.2047767426071,160.987974501313,-21.1319445023547,18.9669541545314,4.0965574511455,7.78210097783028,-270.085393180158,158.324340341332,0,0,0,6.40392174688605,18.9323469126982,18.0635269306583,-0.0646566627240991,0.959043709486212,1.64181554371979,1.6495530630161,-9.11611728953884,-25.4825438618671,-25.74684473512,-0.335717100352746,-5.03315946962812,-4.98957916959916,-5.00815828131269,0.80983837297166,9.37692908646149,-1.9346663080647,-3.93655306668714,-40.5132789453687,-24.7699957356724,-1.32872785953048,9.65773722160323,0.055797697263101,3.21546365036245,8.82576371703899,-67.8327476009797,-2.0779191951289,9.78075725562846,-0.461668140167425,-7.68642314412512,-1.85217154684819,-6.04100389359429,1012.27476594818,0.172963505817053,0.0493436518411655
10.415,-21.1267977472442,35.2214020856468,39.0026667418534,0.373603852728402,-0.0932977720340093,-1.08734948054391,-1.11167559386342,-3.0809843424063,48.4740095063923,93.154082515554,-0.248944126505133,-1.6206532679607,-0.553176095834517,0.378577407592338,5.38789065201522,7.72932890203761,0.901879074294628,-10.4416047216558,-44.2707398979945,-52.2979882714389,-4.59298177533587,8.57963550671739,-3.50849464018137,11.2153910761553,-45.9380905647048,147.65780976735,-23.2129721401476,14.2040704925875,4.03480208988639,27.7586963083321,-233.86429854247,150.502917234588,0,0,0,6.5682984038974,17.5833555989251,18.3649276609537,-0.0694336274678353,0.872996779202004,1.5331977735852,1.54493950257246,-9.37442451688754,-25.6752568700989,-25.8049070052536,-0.337979498227646,-4.97864486243726,-4.99902419308912,-5.01574707942868,0.80715244425661,9.3258964408755,-1.84603066046798,-4.52347823034673,-40.0158847388775,-24.6406732419847,-1.47376801014331,9.62013421959249,-0.0140364493282568,3.30831056890746,8.80255198740275,-67.9255945195247,-2.14160445545316,9.7723944664087,-0.531786234613459,-7.46080521915177,-1.80516780714228,-6.97167810626887,1016.84084476377,0.176263251714869,0.047068545458717
10.42,-20.7745773855255,31.5600274723162,39.2843431487199,0.376267178962348,0.152421237851215,-0.981098016862661,-1.0040847067358,-2.68767177591241,36.3336637759327,82.3557747710109,-0.260267930965634,-1.76593145818119,-0.564981812242586,0.340249515459899,5.17839820186729,7.91733494704217,0.375462148281903,-15.189834994081,-40.0663013606794,-49.3535549740132,-4.55806636697788,7.88132733955765,-3.12979674952935,5.22373458015504,-30.6721323424661,134.328280650625,-25.2939005490812,9.44141393743656,3.97304967328498,47.734339102341,-197.644931021636,142.681867073825,0,0,0,6.73266722299835,16.2344286085981,18.6663140196712,-0.0742103644333555,0.786953951861257,1.42458518263096,1.43869242995647,-9.63271942746973,-25.8679606892688,-25.8629665068257,-0.340241788225478,-4.92413285464595,-5.00846876621558,-5.02334519268725,0.80446664361369,9.27486622865998,-1.75739923925155,-5.11037540787416,-39.5185142494475,-24.5113569147329,-1.61880124486111,9.58253301059157,-0.0838672660442288,3.40115306026773,8.7793413645627,-68.018437010885,-2.20528667909707,9.76403207594867,-0.601900985644728,-7.2351980522332,-1.75816630869804,-7.90230794195449,1021.40670585674,0.179562840272141,0.0447935475593117
10.425,-20.4223402282148,27.8984782667098,39.5660329872972,0.378930632196735,0.398151964822409,-0.874841486591184,-0.898775502020266,-2.29434045434882,24.192739134323,71.5569521102624,-0.271592275400598,-1.91121657597738,-0.576788091605041,0.288294905212017,4.9688957620932,8.10534995709585,-0.150979879868346,-19.9382916853834,-35.8616623351407,-46.4089812715855,-4.5231492936822,7.18298587364406,-2.75108080070696,-0.768207627375263,-15.4054461645638,120.998115916662,-27.3749281868742,4.67853027549267,3.91129431202587,67.7109344328429,-161.423836383948,134.860443967081,0,0,0,6.8970438800097,14.885437294825,18.9677147499666,-0.0789873291770917,0.700907021577049,1.31596741249638,1.33071832223346,-9.89102665481844,-26.0606736975007,-25.9210287769593,-0.342504186100379,-4.86961824745509,-5.01791378970554,-5.03112116222423,0.801780714898641,9.22383358307398,-1.66876359165483,-5.69730057153375,-39.0211200429563,-24.3820344210452,-1.76384139547394,9.54493000858082,-0.153701412635587,3.49399997881275,8.75612963492645,-68.1112839294301,-2.26897193942133,9.75566928672891,-0.672019080090762,-7.00958012725985,-1.71116256899213,-8.83298215462908,1025.97278467233,0.182862586169957,0.0425184411768633
10.43,-20.1007894267225,25.5337640740141,39.1065309580508,0.37793446649227,0.650132883455357,-0.758215059555121,-0.785267125142766,-2.06801457429889,12.3117315205662,60.6496780192202,-0.279770453068273,-2.04881974878807,-0.622329533602993,0.190306148807873,4.69342100372897,8.27640183847671,-0.478112340341184,-23.5663269574575,-32.4677048361187,-42.8992534534146,-4.13754035605,6.94675615406536,-2.04911421102838,-7.21593780833037,5.44478566782279,102.110545209498,-29.0724894690764,0.964961171382072,3.82694689672422,66.825641827874,-123.994619010126,125.97029756416,0,0,0,7.04812126408345,13.8026335901538,18.9111036429095,-0.0834242868036459,0.606834368512604,1.22086580685625,1.23452455659267,-10.1426497097515,-26.3140720323055,-25.9890661239289,-0.341179950585273,-4.79044006722374,-5.01878793350741,-5.03064797529159,0.749220629591559,9.17949392336376,-1.70367918333975,-6.59659137575119,-37.9369093115134,-24.0174312991617,-1.85912449361366,9.56640183847668,-0.226265191590569,3.61932700838864,8.12248190988431,-68.4819689216011,-2.33866274966335,9.73817281835617,-0.717667172011938,-6.77726476497501,-1.82708514550908,-9.79932692087589,1035.04099406583,0.185417696648451,0.0398627510060446
10.435,-19.8395671296165,25.720178975038,37.18870273208,0.36973802657081,0.914446424952839,-0.621169830900004,-0.653304674883807,-2.17023225345738,0.940417602529234,49.5274872788368,-0.281759848430199,-2.17132851663122,-0.734249812833993,0.0152403018474773,4.28810973872321,8.41410374261327,-0.413158611974876,-24.9904975942299,-30.6682459910077,-38.2771140669529,-3.06190661430395,7.6196767799403,-0.711067406682449,-14.5613223988906,37.2833391376485,72.2863592169084,-30.0158384056083,-0.684654905558604,3.69813871068213,24.8954114632631,-84.1831789476672,114.976228866565,0,0,0,7.17305431342668,13.2433886393032,18.1501125729746,-0.0871929237849941,0.496958160589031,1.15234318091406,1.16323101003484,-10.3811575658433,-26.6869018343534,-26.0767386068365,-0.332798990167073,-4.66272622861749,-5.00279938634571,-5.01374706865912,0.598527979781729,9.14831613374794,-1.98168114074754,-8.1105745752029,-35.6980104275784,-23.1898726859021,-1.85652634447901,9.70410374261325,-0.304209665630142,3.80857490832011,6.28773955800637,-69.39934009754,-2.42017906674941,9.70270377726356,-0.715178109976172,-6.53173962715019,-2.26357421747519,-10.8359886139141,1052.96822309493,0.186508132475783,0.0364579038119247
10.44,-19.5783572882752,25.9065849873103,35.2709659531923,0.361541977477116,1.17874736328698,-0.484131136921057,-0.523024667333177,-2.27244505860867,-10.4303541014166,38.4058268736975,-0.283749148932533,-2.2938314429348,-0.846164755412349,-0.168696896638478,3.88281780002228,8.55179908076166,-0.348207980772804,-26.4146003228086,-28.868872948817,-33.6551950762277,-1.98632416159765,8.29256531919376,0.626915596080215,-21.906356742236,69.1203744616861,42.4635953197796,-30.9591423607872,-2.33419232447539,3.5693366665524,-17.0328195579201,-44.3736371991538,103.982684395019,0,0,0,7.29798140563424,12.6841703547195,17.3891577890911,-0.0909613810678404,0.387087191851416,1.08382382231051,1.09038964237193,-10.6196540492546,-27.0597138588979,-26.1644069092901,-0.324418429375061,-4.53501847974224,-4.98681160155989,-4.99735722414004,0.447842515392927,9.11713983077094,-2.25966984229241,-9.62448558396228,-33.4592183002181,-22.3623535328091,-1.85392831923093,9.84179908076166,-0.38215042307263,3.99781378441503,4.45308469145896,-70.3166675308137,-2.50169149692353,9.66723642742792,-0.712689166625417,-6.2862261966083,-2.7000424764968,-11.872600876202,1070.89459730671,0.187598516308273,0.0330532189698549
10.445,-19.3171349911692,26.0929998883342,33.3531377272215,0.353345537555656,1.44306090478447,-0.34708590826594,-0.394052869260091,-2.37466273776716,-21.8016680194536,27.2836361333141,-0.285738544294459,-2.41634021077795,-0.958085034643349,-0.359531327886476,3.47750653501652,8.68950098489822,-0.283254252406497,-27.838770959581,-27.0694141037059,-29.033055689766,-0.910690419851595,8.9654859450687,1.96496240042615,-29.2517413327962,100.958927931512,12.6394093271904,-31.9024912973192,-3.98380840141607,3.44052848051031,-58.963049922531,-4.56219713669494,92.9886156974237,0,0,0,7.42291445497748,12.1249254038688,16.6281667191563,-0.0947300180491885,0.277210983927842,1.01530119636832,1.01618952949389,-10.8581619053463,-27.4325436609458,-26.2520793921977,-0.316037468956861,-4.40730464113599,-4.97082305439819,-4.98150863270643,0.297149865583097,9.08596204115511,-2.5376717997002,-11.138468783414,-31.2203194162832,-21.5347949195494,-1.85133017009628,9.97950098489823,-0.460094897112203,4.1870616843465,2.61834233958102,-71.2340387067527,-2.58320781400958,9.63176738633532,-0.710200104589651,-6.04070105878347,-3.1365315484629,-12.9092625692402,1088.82182633581,0.188688952135605,0.0296483717757351
10.45,-19.0392374066025,27.7027704756601,31.832072959157,0.344832252945127,1.7173699138993,-0.200385111218794,-0.256320128391187,-2.65476720098645,-31.7878345097028,16.0305013849911,-0.28541231486475,-2.51223943510624,-1.10119997504532,-0.58636507219974,3.19481013637182,8.65710860766672,-0.178767497615424,-29.7925661132419,-25.4723025036672,-25.7432823764963,0.132031914619359,9.57514320332036,2.68957361243585,-30.274763682934,117.440027612361,-12.6223739056183,-31.7466417416223,-5.673477478344,2.45616862820053,-94.9548342636599,23.7472539869625,75.2036463396814,0,0,0,7.54742329621787,12.2171927104678,15.8595498938125,-0.101192289642475,0.16661687914923,0.925715468618587,0.919829522402236,-11.1042476924777,-27.7180666892423,-26.414292657608,-0.307968108800546,-4.27795111812589,-4.94872142971661,-4.96007277639562,0.242425047047017,9.11748833492304,-2.6615323141966,-11.4233885866997,-30.0594171805793,-20.9140573207925,-1.88429713077778,10.0763824082906,-0.460426387564124,4.15041003210939,1.17253524824866,-71.8698151633111,-2.62494158744812,9.61360836029053,-0.708925783634186,-5.91499996185303,-3.3600001335144,-13.4400005340576,1098,0.189247220754623,0.0279051978141069
10.455,-18.7438177916419,30.8060118246053,30.7271239017405,0.335985718900247,2.00219247048497,-0.0435398409820568,-0.108874226758275,-3.12152893457159,-40.3217495082902,4.63888716158544,-0.282656616056771,-2.58023063036526,-1.27705677512418,-0.84861780871462,3.04072748833491,8.44625866824779,-0.0327944626330768,-32.3022076840402,-24.0873274346761,-23.8510393304289,1.14032713773813,10.1184872779769,2.7706697429816,-24.6647803311892,117.8104667272,-33.0999811907497,-30.4375529773446,-7.40533325938958,0.574110651934483,-124.719815480909,39.9921608674321,50.29226645259,0,0,0,7.67149924576794,12.9930030477041,15.0828574037579,-0.110481219150553,0.0552587864248187,0.814022636136072,0.800580451059981,-11.3583079110492,-27.9120197246973,-26.6547262273956,-0.30022487554004,-4.14686468081374,-4.9202041107849,-4.93268019302573,0.288379521022929,9.21480369157794,-2.62368745327526,-10.4188645005157,-30.0293815766735,-20.5102453127252,-1.95458044391742,10.1304464953211,-0.379330257018376,3.87675230763404,0.134638268836041,-72.2102186742438,-2.62494158744812,9.61360836029053,-0.708925783634186,-5.91499996185303,-3.3600001335144,-13.4400005340576,1098,0.189247220754623,0.0279051978141069
10.46,-18.4483981766813,33.9092531735504,29.6221748443239,0.327139184855366,2.28701502707064,0.11330542925468,0.0386293623517193,-3.58829066815673,-48.8556645068777,-6.75272706182018,-0.279900917248792,-2.64822182562429,-1.45291357520303,-1.11144167687433,2.88664484029799,8.23540872882886,0.11317857234927,-34.8118492548386,-22.7023523656849,-21.9587962843615,2.1486223608569,10.6618313526333,2.85176587352735,-19.0547969794444,118.180905842039,-53.5775884758811,-29.1284642130669,-9.13718904043516,-1.30794732433157,-154.484796698158,56.2370677479016,25.3808865654985,0,0,0,7.79557519531801,13.7688133849403,14.3061649137033,-0.119770148658631,-0.056099306299593,0.702329803653556,0.680911596123825,-11.6123681296207,-28.1059727601522,-26.8951597971831,-0.292481642279534,-4.01577824350159,-4.89168679185319,-4.90562810039019,0.33433399499884,9.31211904823284,-2.58584259235391,-9.41434041433181,-29.9993459727677,-20.106433304658,-2.02486375705707,10.1845105823516,-0.298234126472628,3.60309458315868,-0.903258710576578,-72.5506221851766,-2.62494158744812,9.61360836029053,-0.708925783634186,-5.91499996185303,-3.3600001335144,-13.4400005340576,1098,0.189247220754623,0.0279051978141069
10.465,-18.1529926481033,37.0123465518037,28.5172784737784,0.318293072636447,2.57182400256932,0.270143220697299,0.186679267880489,-4.05503014531742,-57.3891725860011,-18.1437981031629,-0.277145349839765,-2.71620977888468,-1.62876198996813,-1.37280344186526,2.73256953932612,8.02456884328841,0.25914464695421,-37.3213711593404,-21.3174433359399,-20.0666434654087,3.15686950581321,11.2051495192184,2.93285813719676,-13.445081126429,118.551327293368,-74.0542193349546,-27.8194378695771,-10.8689622420519,-3.18991555913394,-184.248358642986,72.481200028577,0.470694518378781,0,0,0,7.91964522860117,14.5445867295037,13.529509458385,-0.129058635246172,-0.16745208917789,0.590642296978426,0.561227361397552,-11.8664162339342,-28.2999165474175,-27.1355819024671,-0.284738778236712,-3.88469805673481,-4.8631708327021,-4.87874860894649,0.380286277744826,9.40942976463613,-2.54799953597486,-8.40986422649264,-29.9693118010383,-19.702640551407,-2.09514371890388,10.2385720914645,-0.217141862803217,3.32944990740183,-1.94110620033731,-72.8910094647766,-2.62494158744812,9.61360836029053,-0.708925783634186,-5.91499996185303,-3.3600001335144,-13.4400005340576,1098,0.189247220754623,0.0279051978141069
10.47,-17.7405637628429,38.2893204447653,29.2051374376847,0.311703847138702,2.87040284049121,0.60195639164163,0.51074261224504,-4.67867045288522,-60.4350845511396,-27.4867947620682,-0.271904309370976,-2.7706109698104,-1.88850211069354,-1.71471523425236,2.97697355854146,8.19205788075832,0.564809702615379,-37.6568376757955,-18.5696498813695,-21.1893800961481,3.43924338963537,10.7920191540303,2.23809140031138,-8.57001847660331,103.073909805296,-86.7122256513532,-26.1662601911494,-9.37867346738307,-4.07592879564696,-149.559809276182,73.4763343623078,-37.3458860768986,0,0,0,8.04992192499288,13.9323010976734,13.1885964867281,-0.136477099938625,-0.249080077945905,0.506159680449799,0.469151500574547,-12.0809226351175,-26.9436202181577,-27.1297781252425,-0.2873528922125,-3.80629192156568,-4.72968938935767,-4.74685762385209,0.690775973728608,9.61392775371894,-2.40151322072928,-6.96333155819677,-30.9700909680761,-19.5585125550934,-2.17707953370928,10.1504626273992,-0.0398746614682007,3.39983343759635,-3.89424999511395,-73.7750767920198,-2.56067884739604,9.72088573750474,-0.704261564982909,-4.40030081357938,-4.33698105526032,-17.4539531118937,1089.7773474808,0.197881667953528,0.027307154467752
10.475,-17.2967936773112,39.0767565995208,30.3734726419115,0.305719940466792,3.17265440477409,0.980648699423748,0.88317694009511,-5.3443276744676,-62.0099547673658,-36.2802747189962,-0.265997396658796,-2.82136716898205,-2.17071228356244,-2.07405451988923,3.32816846126673,8.46094147815734,0.913260895163096,-37.4095650301652,-15.4567243836408,-23.1201391099734,3.52704211531668,10.1225538707103,1.33541075190036,-3.89216198872149,83.3496821956388,-97.2738161866287,-24.4209385082414,-7.02485543144694,-4.69493952169058,-97.5980559130608,70.3841718199795,-78.6195199313446,0,0,0,8.18185433580892,12.9480066892108,12.9644975511704,-0.143393888258528,-0.322735901511692,0.42897398396688,0.385212530242391,-12.2848175799626,-25.1718901782608,-27.05797800402,-0.292742861405806,-3.7420089181982,-4.56808178905179,-4.58653392769324,1.07215168840682,9.84714311880993,-2.22591576936663,-5.39840056804369,-32.2471017544132,-19.4839920317528,-2.26213454921305,10.0242519592323,0.163159891669844,3.56242367033953,-6.09260543366233,-74.8048149327265,-2.47919544926845,9.85691051999214,-0.698347463203119,-2.4797036893006,-5.57576616378765,-22.543535281904,1079.35124880614,0.208829911027973,0.0265488518487055
10.48,-16.8530024306481,39.8642303030891,31.5418635580836,0.299735748452901,3.47492038189204,1.35935906511001,1.25752682719327,-6.01001663784682,-63.5849000811179,-45.0741739921207,-0.260090202276084,-2.8721257884579,-2.45293591359471,-2.4268940330341,3.67938011068519,8.72983789724333,1.26172870357045,-37.162280593364,-12.3436504463766,-25.0509901918456,3.61484502767129,9.45305666400638,0.432687059254527,0.785917562270716,63.6245140381966,-107.835910350274,-22.6755335998465,-4.6709251539374,-5.31397976519766,-45.6338247590201,67.2918618281952,-119.895121914819,0,0,0,8.31379303780853,11.9636653447696,12.7403879294777,-0.150311006404778,-0.396395237347927,0.351784606891882,0.302545155375046,-12.4887222475174,-23.4000756535974,-26.986174459016,-0.298133087619245,-3.67772284950225,-4.40646648250393,-4.42559875780787,1.45354558894716,10.0803696047519,-2.0503099446574,-3.83339495431567,-33.5241734348795,-19.4094679549086,-2.34719362055658,9.89803527272253,0.366204126489885,3.72502165618141,-8.29106570056598,-75.8346021763917,-2.39770816561331,9.99294178880744,-0.692433079409989,-0.559014981543475,-6.81461034365676,-27.6333601481219,1068.92465296403,0.219778676168274,0.0257905130700758
10.485,-16.421591186931,40.4039722164728,32.746549182701,0.294764301502889,3.77058649120399,1.72432484807107,1.62037108802009,-6.63545229933071,-63.2945555853787,-52.860629167268,-0.253636590704966,-2.92282142945316,-2.71754242245126,-2.75439747499403,4.08257211210692,8.98208669567263,1.43122333370521,-36.4135856796061,-8.88732978264789,-26.7697927909853,3.69449220928935,8.87026687987306,-0.390911705279313,4.39497541744886,43.6752238460617,-117.002251124147,-20.5092094791234,-2.15560713027768,-5.14783467466006,1.98954657578364,63.7658339700175,-156.970229229641,0,0,0,8.44309035425488,11.416570403084,12.5803446858623,-0.157367155096762,-0.466849772621974,0.263335526037927,0.210313718356138,-12.6902557452469,-21.9372082822416,-26.8408654445765,-0.302781999527616,-3.61904942559761,-4.25233495396363,-4.27121819642101,1.82005553283004,10.2994662402538,-1.8741697965862,-2.50214606658522,-34.4088491368829,-19.3295033616124,-2.41925129845179,9.80422532941631,0.55609708328687,3.98389734629039,-10.6340766327958,-76.8135654485652,-2.34454574821154,10.0975430220014,-0.693915671983243,1.38635241844793,-8.03222731798719,-32.7617238833834,1058.31542151649,0.230188427682697,0.024905034339729
