time,hip_angle_l,hip_angle_l_velocity,hip_angle_l_velocity_filt,hip_angle_l_torque_estimated,hip_angle_l_torque_desired,hip_angle_l_torque_measured,hip_angle_l_torque_interaction,knee_angle_l,knee_angle_l_velocity,knee_angle_l_velocity_filt,knee_angle_l_torque_estimated,knee_angle_l_torque_desired,knee_angle_l_torque_measured,knee_angle_l_torque_interaction,thigh_imu_l_accel_x,thigh_imu_l_accel_y,thigh_imu_l_accel_z,thigh_imu_l_gyro_x,thigh_imu_l_gyro_y,thigh_imu_l_gyro_z,shank_imu_l_accel_x,shank_imu_l_accel_y,shank_imu_l_accel_z,shank_imu_l_gyro_x,shank_imu_l_gyro_y,shank_imu_l_gyro_z,foot_imu_l_accel_x,foot_imu_l_accel_y,foot_imu_l_accel_z,foot_imu_l_gyro_x,foot_imu_l_gyro_y,foot_imu_l_gyro_z,insole_l_force_y,insole_l_cop_x,insole_l_cop_z,hip_angle_r,hip_angle_r_velocity,hip_angle_r_velocity_filt,hip_angle_r_torque_estimated,hip_angle_r_torque_desired,hip_angle_r_torque_measured,hip_angle_r_torque_interaction,knee_angle_r,knee_angle_r_velocity,knee_angle_r_velocity_filt,knee_angle_r_torque_estimated,knee_angle_r_torque_desired,knee_angle_r_torque_measured,knee_angle_r_torque_interaction,thigh_imu_r_accel_x,thigh_imu_r_accel_y,thigh_imu_r_accel_z,thigh_imu_r_gyro_x,thigh_imu_r_gyro_y,thigh_imu_r_gyro_z,shank_imu_r_accel_x,shank_imu_r_accel_y,shank_imu_r_accel_z,shank_imu_r_gyro_x,shank_imu_r_gyro_y,shank_imu_r_gyro_z,foot_imu_r_accel_x,foot_imu_r_accel_y,foot_imu_r_accel_z,foot_imu_r_gyro_x,foot_imu_r_gyro_y,foot_imu_r_gyro_z,insole_r_force_y,insole_r_cop_x,insole_r_cop_z
41.27,-18.5054201450333,-9.04266502507811,-24.0099737161128,-0.0769866932537419,1.26489809961326,1.33057393595532,1.31697196824306,-47.1091699882391,-105.828881748754,-130.369288826713,0.495620136739142,1.56088953640052,-0.739188487515686,-0.715959613709163,1.78957495292581,8.22690497607311,0.713141438491693,31.7750635614646,-13.2544651456927,55.2873654866763,-7.97251933940202,3.86810275968767,-1.09770865565671,3.18123046348378,-35.2645017197243,-164.316345309437,-3.63897222662454,8.93646767973281,0.97706344303844,-18.6724181927555,9.82257168209989,-132.738179930828,730.12441981794,0.239582663772239,-0.015424498265231,-26.8059342199332,20.403871594279,15.4111479891054,0.0949023379130017,3.48708988416732,3.01759255793243,3.00359663241678,-10.0897494939481,-16.8915463988048,-7.52835000025657,-0.0853055554782983,-2.21064438902497,-2.9915789995292,-2.97971800371239,5.3171020280886,7.18857422132673,0.174567217164996,12.8405938730761,-7.71777140201245,-7.99106015829254,3.24594658127345,8.27667698101441,1.75998452847838,7.65502667501173,70.5119803236715,-31.8797922442205,-13.1323268325329,0.463217941006938,5.34513697856223,13.4633673120482,-39.830605828723,-121.956063021007,0,0,0
41.275,-18.6837730347351,-3.73906089259501,-21.7827136936897,-0.0899597012197467,1.2725064839462,1.24415132365067,1.2253380190402,-48.4728107768377,-97.746375913383,-126.553371555413,0.520182599355587,1.85604185935742,-0.688358445786699,-0.690700703240562,1.7148986003999,8.44399742930591,0.8297779205941,32.5056800349812,-13.788009422352,49.8329533713472,-8.1324300199943,3.69312196515279,-1.10199871465298,2.33042058530014,-33.7335919895903,-158.451489168879,-3.58352204877218,8.61433648463829,1.26852781152642,-17.8315021139457,9.68327349882336,-137.640167236328,727.421308197658,0.254500050117921,-0.0116365276353811,-26.5312556894396,21.9950276569311,14.4655239898203,0.085789276102047,3.47927888667907,3.09655256795393,3.0849807243773,-10.2683019701095,-21.3731405543654,-10.3216540492468,-0.078907736242187,-2.10527149968517,-3.01450882396232,-3.0100512025532,5.43822979148814,7.42555198514712,0.0508947443587564,13.2077149033257,-7.03218128153862,-6.65922434859884,2.50404241645244,8.3446700942588,1.66487932019421,5.21189095884421,84.6154802331609,-35.2392649719128,-12.2599816495301,1.12847595616975,6.04142812186396,-8.96575817166993,-28.0097090546079,-133.089066828772,0,0,0
41.28,-18.6619521030476,-1.41098793550274,-18.6779791967546,-0.115860725024045,1.25351371455397,1.24634556838765,1.21995656651389,-49.3893165673731,-95.5973864252722,-121.740925066613,0.545143179695625,2.20251875212409,-0.569869218832023,-0.623805264278985,1.54517375987815,8.48892459297344,0.827281967057018,31.5288685889863,-12.3767171754572,44.4866825233943,-8.38452132723985,3.50342949633436,-1.12446229648673,0.493891809865019,-29.2131428057592,-155.20058672243,-3.80530060615061,8.90426266716626,0.936158934274784,-14.8700534183389,10.7315739367924,-138.653523763021,743.395410835,0.260435885894381,-0.00736365393412879,-26.2584859502346,23.2486053343944,15.4901479255206,0.0768870795598564,3.43225155491955,3.16896264427425,3.16131972640865,-10.5301607674053,-23.7012134519495,-12.4827447413247,-0.0727956080721306,-1.99834341005001,-2.95526421606387,-2.96904513433005,5.30594425402266,7.48795082357423,-0.0514393506617202,12.6284071687924,-5.59007479344527,-7.26934632433063,1.7627442159383,8.28476720936877,1.83210820717888,3.56949190296012,87.3702733963136,-39.454653167878,-11.6394799679311,2.12916932290002,5.73177510013606,-30.6655778803168,-21.4316236813852,-139.597268723538,0,0,0
41.285,-18.6401322118394,0.916974012961015,-15.5733927417085,-0.141760513799552,1.23452185078683,1.24853970849729,1.21759595022067,-50.3057786565071,-93.4484994066201,-116.928708047891,0.570102569849685,2.5489791239632,-0.451385641754657,-0.555526559442306,1.37545701228222,8.53384961439589,0.824786132533551,30.5521037199248,-10.9654922226806,39.1406665996664,-8.63660061411026,3.31374607255068,-1.14692480719795,-1.34254939505821,-24.6929091688089,-151.94983928754,-4.02706858854538,9.19417502525295,0.603805905243505,-11.9087459323781,11.7798243890453,-139.666831970215,759.368751785204,0.266371438634614,-0.00309098397470852,-25.9857292174067,24.5021232379841,16.5147230044625,0.0679853074977604,3.38522646554663,3.2413692678921,3.23584958359646,-10.7920070785865,-26.029175340908,-14.6437323869268,-0.0666837713443864,-1.89142041902678,-2.89602243310382,-2.93147201764262,5.17366502427878,7.55034668666097,-0.153768566123975,12.0491270571724,-4.14803706877402,-7.87943920784538,1.02148136246787,8.2248671808055,1.99932912025134,1.92717116097341,90.1249352036984,-43.6698403630709,-11.0190078734807,3.12981497394429,5.4221368434769,-52.3643628846097,-14.8538519685369,-146.105160290158,0,0,0
41.29,-18.6183112801519,3.24504697005329,-12.4686582447734,-0.16766153760385,1.2155290813946,1.25073395323426,1.21572763415372,-51.2222844470425,-91.2995099185093,-112.11626155909,0.595063150189722,2.89545601672987,-0.33289641479998,-0.483065901137526,1.20573217176046,8.57877677806341,0.822290178996468,29.5752922739299,-9.55419997578585,33.7943957517135,-8.88869192135581,3.12405360373225,-1.16938838903171,-3.17907817049333,-20.1724599849779,-148.698936841091,-4.24884714592381,9.48410120778092,0.271437027991872,-8.9472972367714,12.8281248270143,-140.680188496908,775.342854422546,0.272307274411074,0.00118188972654378,-25.7129594782018,25.7557009154475,17.5393469401628,0.0590831109555698,3.33819913378711,3.31377934421243,3.30864813030131,-11.0538658758823,-28.3572482384921,-16.8048230790047,-0.06057164317433,-1.78449232939162,-2.83677782520537,-2.89371425374745,5.0413794868133,7.61274552508809,-0.256102661144452,11.4698193226392,-2.70593058068067,-8.48956118357717,0.280183161953743,8.16496429591547,2.16655800723602,0.284772105089311,92.8797283668511,-47.885228559036,-10.3985061918816,4.13050834067456,5.112483821749,-74.0641825932566,-8.2757665953142,-152.613362184924,0,0,0
41.295,-18.5755625676375,5.77801744577888,-9.29011943381951,-0.19196739563802,1.1924135848897,1.25158035558847,1.21328228487165,-52.1613905457876,-88.3752945483401,-107.183210971889,0.620223742423907,3.24008878181047,-0.180804489619956,-0.371899548956583,1.06747738410555,8.67265338502681,0.817787672898027,28.7016818703041,-8.04021156348427,28.2953843465959,-9.10584110654742,2.96482259158317,-1.17960206262076,-5.03790617738899,-15.789256054087,-145.404684827624,-4.44810269903441,9.70196095528567,-0.0139785651192638,-6.07203986299089,13.8341358850055,-141.12992569674,791.614998784436,0.277831803293293,0.00532194772943088,-25.4191585267383,26.953549361117,18.620564405041,0.0505046844303691,3.28679659479095,3.37905275625376,3.37267919807907,-11.3347541364883,-30.3346546262614,-18.9486568908704,-0.0546036216680116,-1.67643833584472,-2.76744178398425,-2.84532158816789,4.89146098038465,7.6841588934526,-0.365486289713789,10.9317165616732,-1.25707772013525,-9.21981384094161,-0.467697209320157,8.11398218878355,2.30252261589446,-1.26100622820732,94.9791445807551,-52.0128300091321,-9.82916069030762,5.04870128631592,4.82835960388184,-93.9749984741211,-2.24000000953674,-158.585006713867,0,0,0
41.3,-18.2999101190434,10.5911765389849,-5.29036220417149,-0.198519456614014,1.12341726173564,1.23742654739902,1.19686110060724,-53.3519712372732,-76.823711189234,-100.908189703562,0.647609072099165,3.56418177267536,0.345245417407536,0.11911520458314,1.27946016147813,9.31128504344044,0.790954409939481,28.9766399969164,-5.38338725573592,21.0967818269735,-8.93410822361267,3.14460545340549,-1.05348572671555,-7.14481423191262,-12.9336668355346,-141.628151522346,-4.3966896967557,9.11778123189643,0.22316367578025,-4.15614487559468,14.3694594503204,-135.307108453619,811.203280744181,0.278778624466653,0.00798369923285552,-24.8913147191425,27.5311287337938,20.3315610573724,0.0455299112267427,3.18670472059474,3.3648989480643,3.35580957786729,-11.827408356911,-28.4093907330771,-20.9003362455927,-0.0502396512475261,-1.55585928297486,-2.58580124555295,-2.68371281769866,4.54531188821927,7.85589177638735,-0.553319130423676,10.8522105973515,0.26678659602965,-11.2869689133044,-1.28879505585196,8.16228206210896,2.09053983852186,-1.73141651711039,89.7847549117408,-55.1632538453773,-9.82916069030762,5.04870128631592,4.82835960388184,-93.9749984741211,-2.24000000953674,-158.585006713867,0,0,0
41.305,-18.0242445259904,15.4045651471923,-1.29041424650718,-0.205071830024368,1.05441764849895,1.22327206428667,1.18168277188951,-54.5426087014779,-65.2715769940514,-94.632869211485,0.674995707641081,3.88829021788151,0.871320409071289,0.616673963326459,1.49145304722786,9.94994715493967,0.764119867439522,29.2516112348791,-2.72643625759095,13.8978360427228,-8.76236715161287,3.32439688815528,-0.92736337696571,-9.25182275413233,-10.0779414485009,-137.851438133462,-4.34527424285321,8.53357365195656,0.460317224783378,-2.24015852894104,14.9048085424851,-129.484013550051,830.792496769158,0.279725490789085,0.0106455776616296,-24.3634457413686,28.1087356482843,22.042639298405,0.0405549008015627,3.0866080735277,3.35074446495195,3.33767232760307,-12.3200860695001,-26.48403503388,-22.8521086659464,-0.0458754727315554,-1.43527448030513,-2.40415204561108,-2.52081523817277,4.19914628996968,8.02763284838715,-0.741160927923449,10.7727008417961,1.79072357750932,-13.3542225577464,-2.10993205635098,8.2105842386089,1.87854695277211,-2.20184923748019,84.5901175487841,-58.3138279092625,-9.82916069030762,5.04870128631592,4.82835960388184,-93.9749984741211,-2.24000000953674,-158.585006713867,0,0,0
41.31,-17.7485920773963,20.2177242403984,2.70934298314084,-0.211623891000362,0.985421325344892,1.20911825609721,1.16792625371267,-55.7331893929636,-53.7199936349453,-88.3578479431583,0.70238103731634,4.2123832087464,1.39737031609878,1.12118134306612,1.70343582460044,10.5885788133533,0.737286604480975,29.5265693614914,-0.0696119498426055,6.69923352310038,-8.59063426867812,3.50417974997761,-0.801247041060506,-11.358730808656,-7.22235222994846,-134.074904828184,-4.29386124057449,7.94939392856732,0.697459465682891,-0.324263541544824,15.4401321078,-123.661196306931,850.380778728904,0.280672311962445,0.0133073291650542,-23.8356019337728,28.6863150209611,23.7536359507364,0.0355801275979363,2.98651619933148,3.3365906567625,3.31851948380088,-12.8127402899228,-24.5587711406956,-24.8037880206687,-0.0415115023110699,-1.31469542743527,-2.22251150717978,-2.35628412378856,3.85299719780431,8.1993657313219,-0.928993768633335,10.6931948774744,3.31458789367422,-15.4213776301092,-2.93102990288279,8.2588841119343,1.66656417539951,-2.67225952638326,79.3957278797699,-61.4642517455077,-9.82916069030762,5.04870128631592,4.82835960388184,-93.9749984741211,-2.24000000953674,-158.585006713867,0,0,0
41.315,-17.4828444854817,23.3873815320098,6.53499970674598,-0.214546755254223,0.902306316538255,1.19915572055726,1.15991344913016,-56.6618262831957,-46.347108048814,-81.9760807727493,0.729796434755019,4.5071796589798,1.89415292463076,1.60366680582334,1.88417941952504,11.0096042216359,0.782427440633271,29.7084465292029,2.03681553145053,1.22936251995178,-8.5645171503958,3.71700263852243,-0.695989445910318,-12.9247337046809,-5.50602951236199,-130.093442783153,-4.27960168617067,7.54176879998562,0.852072134653308,1.87138261678665,16.2085460068997,-119.284768628445,869.722955145119,0.282424878492204,0.0152974248143763,-23.3737999063054,29.9542281953515,25.3986286432126,0.0309679719918869,2.87607375199559,3.31480754145217,3.29101019551902,-13.1930950453162,-22.4915583507367,-26.0008474350906,-0.0371378476275777,-1.19832719272686,-2.06918843276897,-2.21808017676305,3.51474934036939,8.4098839050132,-1.00293931398418,10.8115313202384,4.70773640835207,-18.0466920746604,-3.59734036939312,8.43310290237469,1.45892875989444,-3.15553601094496,71.0208019805205,-64.6261767484283,-9.63433121552882,5.28562497815859,4.62087886956248,-97.8776741410308,-1.26517152723348,-158.484162093593,0,0,0
41.32,-17.2350653150801,23.5810432464523,10.0449336357434,-0.210898543311318,0.79364047308171,1.19678284677424,1.16112537503504,-57.1160877523846,-46.5407702780773,-75.4019046811447,0.75726259607555,4.7488950236622,2.33788032205541,2.04042739801546,2.0083400476221,11.0365956625266,0.957871806422569,29.7217756358156,3.14646365695553,-1.10989569057228,-8.80204183023362,3.98961619151812,-0.628510843683662,-13.5112143956385,-5.85258628429148,-125.741489474115,-4.33261060407243,7.45385155145999,0.857243751703185,4.57322586345599,17.3988685089922,-117.527625249864,888.616963768582,0.285636017415213,0.0160712164319945,-23.0316288425959,32.4718253348952,26.9239002836471,0.0270129560131317,2.7469063246718,3.27921443470688,3.24928485666509,-13.3700799096211,-20.1676231830459,-25.8315020715881,-0.03274724564597,-1.08959826672869,-1.96715486009913,-2.1288489910519,3.19085204968145,8.69059489027609,-0.870681253619932,11.2880468816415,5.86403640700143,-21.6822059032669,-3.98331797412959,8.83527537164554,1.25919209730355,-3.66204206222653,56.8886166944343,-67.8085009522039,-9.0867878068467,5.95146881917075,4.03778070829053,-108.845646723551,1.47445968455717,-158.200751140527,0,0,0
41.325,-16.9872743293541,23.7747141956339,13.5550349355829,-0.207250157403798,0.684969447905483,1.19440985984098,1.16400603712318,-57.5703708829855,-46.7344417421044,-68.8274151006224,0.784730067117187,4.99062191451716,2.78162887857583,2.48444007824649,2.13250659630607,11.0635883905013,1.13332453825859,29.7351053780253,4.25616469591842,-3.44926544838596,-9.03957783641162,4.26224274406332,-0.561029023746729,-14.0977230528682,-6.19915958174535,-121.389328642627,-4.38562204969904,7.36593011060931,0.862415615361095,7.27519794724547,18.5892477714921,-115.770398082079,907.511873350923,0.288847309461055,0.0168450449477871,-22.6894414624941,34.9895425258022,28.4492446565045,0.0230577514398422,2.61773273801239,3.24361963070791,3.20749747788738,-13.5470732134313,-17.8435771987432,-25.6621486328691,-0.0283564342989539,-0.980864156002765,-1.86511642196877,-2.03699902019083,2.86693931398417,8.97131926121374,-0.738416886543541,11.7645851656406,7.0203915436985,-25.3178930909802,-4.36931398416885,9.23746701846965,1.05944591029024,-4.16857226619759,42.7557575165315,-70.9909769047852,-8.53921828861287,6.61734441087869,3.45465474204212,-119.814142312727,4.21422153538324,-157.91732667304,0,0,0
41.33,-16.7394951589525,23.9683759100764,17.0649688645803,-0.203601945460893,0.576303604448939,1.19203698605796,1.16854235881326,-58.0246323521744,-46.9281039713678,-62.2532390090178,0.812196228437718,5.23233727919956,3.22535627600048,2.9353869464707,2.25666722440312,11.090579831392,1.30876890404789,29.748434484638,5.36581282142341,-5.78852365891002,-9.27710251624945,4.53485629705901,-0.493550421520074,-14.6842037438258,-6.54571635367484,-117.037375333589,-4.4386309676008,7.27801286208368,0.867587232410973,9.97704119391481,19.7795702735846,-114.013254703497,926.405881974387,0.292058448384064,0.0176188365654053,-22.3472703987847,37.507139665346,29.974516296939,0.019102735461087,2.4885653106886,3.20802652396262,3.16601366826534,-13.7240580777363,-15.5196420310524,-25.4928032693666,-0.0239658323173462,-0.872135230004603,-1.76308284929893,-1.94227924973061,2.54304202329623,9.25203024647663,-0.606158826179294,12.2411007270436,8.17669154234786,-28.9534069195866,-4.75529158890532,9.6396394877405,0.859709247699353,-4.67507831747915,28.6235722304452,-74.1733011085608,-7.99167487993074,7.28318825189085,2.87155658077017,-130.782114895247,6.95385274717389,-157.633915719974,0,0,0
41.335,-16.5247494312516,23.3979859967933,19.3829682675394,-0.203168615295625,0.442815298288547,1.16150437348483,1.14651745252406,-58.4669198409636,-46.4853096245313,-57.264562930686,0.840500690020342,5.46080961654082,3.58033403715454,3.30410144542734,2.28043804462507,11.0039685827049,1.4642530577156,29.3886324812301,5.8672527137482,-8.83776752147145,-9.40090227032942,5.12082724395295,-0.416649212613835,-15.2401697934893,-3.1714216658924,-114.842302777163,-4.55509315603415,7.36701297927707,0.953724428859369,12.3764766669116,21.3402633590224,-113.04521830132,945.626353014732,0.293589501054424,0.0188517362352598,-22.0062945429072,38.8961784971272,31.5177299821658,0.0134250611700529,2.35675347934497,3.12994182070238,3.082709908084,-13.8441310745482,-13.1774258587314,-24.0523882733865,-0.0184313517478852,-0.783819761676095,-1.67119039774062,-1.85460806247852,2.48512914696574,9.54917627290847,-0.444406627329927,11.6104388550952,6.17836372837481,-33.0039278855269,-4.8722164042046,9.84935602360203,0.759767887147843,-4.99455971934577,18.8041624394378,-76.3048607462789,-7.61445174152568,8.05947223855026,2.46701742478158,-112.3271550448,-5.25430653309618,-144.41426554457,0,0,0
41.34,-16.3277277578137,22.4180506741926,21.0618343814429,-0.204458727088951,0.296030125782055,1.11587833121916,1.11090141456474,-58.9027560113589,-45.7013607412465,-53.1261954492357,0.869252468321392,5.68216599479271,3.88770954491188,3.63114888607229,2.25039089263153,10.8564643820093,1.60902569913901,28.8288314452113,6.04261207442879,-12.267391940936,-9.46372813358863,5.87473760306357,-0.334702434449633,-15.7797370571219,2.19727260725179,-113.80363579467,-4.70556237770798,7.55084714023961,1.08325874963365,14.6136238566752,23.0993876761616,-112.500271476283,965.020423846925,0.294219793281231,0.0203306608765234,-21.6659843796963,39.6801263384049,33.0704488759292,0.00682433271412628,2.22353370973211,3.02908425358879,2.97767262548271,-13.9336863806563,-10.8255812928913,-21.9306931027117,-0.0122840745107373,-0.706453858436032,-1.5847410545004,-1.76911792436119,2.56980748440208,9.85511091138814,-0.266855274640837,10.3862956257287,2.48907256328703,-37.2766261544174,-4.84490081148321,9.9558868352155,0.71333137952146,-5.21375892019651,11.2974328841496,-77.8729781062111,-7.32856027244576,8.89490330951391,2.15822849942544,-78.100717312786,-25.4746734199078,-124.260819484149,0,0,0
41.345,-16.1306966894174,21.4380686234759,22.740780551906,-0.205748900401126,0.149237953839557,1.07025011328031,1.07665548244311,-59.3386129645575,-44.917374475439,-48.9876306301533,0.898005617648063,5.90353292840096,4.195099709839,3.96344262274366,2.2203423078426,10.708953147591,1.75380524403109,28.2690037151371,6.21797979710264,-15.6971799016919,-9.52655699269273,6.62868391231291,-0.252751748661658,-16.3193300499645,7.56622288603583,-112.764919283448,-4.85603877449133,7.73469006731541,1.21279924723883,16.8508777245748,24.8585958769646,-111.955298665512,984.415419483412,0.294850115563459,0.0218096560401579,-21.32565798883,40.4641115621555,34.623241810935,0.000223289503135226,2.09030758754809,2.92822187709238,2.87402532059363,-14.0232459572001,-8.47362457958253,-19.8088967592187,-0.00613650414130012,-0.62908426601075,-1.49828758893205,-1.68024479169471,2.65448985971631,10.1610601383299,-0.0892954554335696,9.16209402321707,-1.20039452527436,-41.5495281664899,-4.81758391622056,10.0624227267399,0.666892657574938,-5.43296857353883,3.79034537122666,-79.44117024166,-7.04265517066024,9.73037421792311,1.84942484950084,-43.8726474965733,-45.6960045128559,-104.106412408705,0,0,0
41.35,-15.9336750159796,20.4581333008753,24.4196466658095,-0.207039012194452,0.00245278133306519,1.02462407101464,1.04362601190374,-59.7744491349528,-44.1334255921541,-44.8492631487029,0.926757395949113,6.12488930665286,4.50247521759634,4.30015384999513,2.19029515584906,10.5614489468954,1.8985778854545,27.7092026791183,6.39333915778323,-19.1268043211565,-9.58938285595194,7.38259427142353,-0.170804970497456,-16.8588973135971,12.93491715918,-111.726252300955,-5.00650799616515,7.91852422827795,1.34233356801311,19.0880249143384,26.6177201941038,-111.410351840475,1003.80949031561,0.295480407790267,0.0232885806814214,-20.9853478256191,41.2480594034331,36.1759607046984,-0.00637743895279141,1.95708781793522,2.82736430997879,2.77211032974751,-14.1128012633082,-6.12178001374244,-17.6872015885439,1.07730958478141e-05,-0.551718362770687,-1.41183824569184,-1.58793593698254,2.73916819715265,10.4669947768096,0.0882558972555206,7.93795079385065,-4.88968569036214,-45.8222264353804,-4.79026832349917,10.1689535383533,0.620456149948554,-5.65216777438957,-3.71638418406163,-81.0092876015922,-6.75676370158033,10.5658052888868,1.5406359241447,-9.64620976455947,-65.9163713996675,-83.9529663482845,0,0,0
41.355,-15.7838011661465,18.6064460923707,23.9066790723997,-0.206538434376499,-0.145689152364009,0.917480264080567,0.950113037306395,-60.2480522479595,-45.1304858607735,-44.2253038971089,0.930911425822977,6.34470009873897,4.73324861743864,4.56382726270328,2.16199240218943,10.4993168714104,1.7879696087577,27.7411624250553,5.59113993938789,-19.6330500042113,-9.33559765322062,7.42734346374742,-0.0533016757893003,-17.3857381896825,16.6009802113639,-113.179820955532,-5.21984311451825,8.32895135951868,1.33354417915958,20.4415284717891,28.2115943930943,-111.298802876903,1007.96774302316,0.296277671081672,0.024772897352095,-20.5381885730676,42.7629013501419,37.4692713162568,-0.0132586507883565,1.84451586918637,2.70121142586426,2.64692700550543,-14.0881743601489,-4.08915633329827,-15.3517317931475,0.00361758782385347,-0.507532012276363,-1.27761952675105,-1.44441459137973,2.81935486046329,10.47,0.108671731873699,6.76182412392274,-4.85100848322276,-49.8088890331968,-4.58461094938916,10.1583301675789,0.680683128589575,-5.22786785226702,-13.5582054092426,-81.9265821105668,-6.75786828649609,10.4152588291483,1.20444487388807,-2.31743682400724,-74.0061397577572,-76.8196167002992,0,0,0
41.36,-15.6344022429006,16.7462002206047,23.3719930557927,-0.20602011691287,-0.29383741134624,0.809731356707573,0.856832969992819,-60.7220072047043,-46.1451658358854,-43.6362378389369,0.934821244476293,6.56448497338589,4.9632510066082,4.82938630656867,2.13370831600598,10.4380346846796,1.67483326402391,27.778990935383,4.77928191004817,-20.1102712114217,-9.07868387038763,7.46505557865869,0.0645486833084035,-17.9124274488599,20.249976515278,-114.65804274372,-5.43379159315245,8.7416065426108,1.32338303383901,21.7862010511113,29.8037525466964,-111.191558618543,1011.97465523249,0.297076552343606,0.0262571960338149,-20.0899909042033,44.2849208632462,38.7599463014669,-0.0201423136671832,1.73215416906734,2.57481368561863,2.52378181802808,-14.0624159483598,-2.05979722600598,-13.0142538063374,0.00719902731870825,-0.463676932812383,-1.14293339604702,-1.2970377352378,2.89949310464972,10.47,0.127527789329341,5.58623041835552,-4.77535146256745,-53.7925221592401,-4.3771943173772,10.1465451316692,0.741965315320378,-4.79720481161367,-23.4227169485319,-82.8373762438404,-6.76181983676571,10.2549386611913,0.867998182358241,4.74415670211843,-81.9751822627565,-69.8157707222845,0,0,0
41.365,-15.4849961955824,14.8858656432036,22.8372815427375,-0.205501774733326,-0.441992734763118,0.701977311338899,0.764178738452919,-61.195984761943,-47.1598941959086,-43.04714369121,0.938731249568914,6.78428032845218,5.19326436341826,5.09669407288865,2.10542288109875,10.376749575714,1.56169152439505,27.8168212495593,3.96738516734096,-20.5875151748769,-8.82175783664707,7.50276949186832,0.182404662088483,-18.439141823161,23.8991468212093,-116.136335020764,-5.64775027389808,9.15428140312331,1.31322140398525,23.1309377510086,31.3959866221979,-111.084309246252,1015.98175851101,0.297875471700112,0.0277415654941664,-19.6417718630788,45.8070129536961,40.0506828323823,-0.0270263047927735,1.61978711099207,2.44840991810964,2.40311652410787,-14.0366563082834,-0.0303413489312596,-10.6766643571275,0.0107806375941407,-0.419819762123403,-1.00824084284856,-1.14637900845854,2.97963517022017,10.47,0.146384745934164,4.41058065472214,-4.69969083421481,-57.7763452444236,-4.16976779472427,10.1347595337912,0.803250424286018,-4.36652123483708,-33.2876988760496,-83.7482138082395,-6.7657715754646,10.0946108483835,0.531535447402177,11.8060869596125,-89.9446047707363,-62.8115907665873,0,0,0
41.37,-15.3355972723366,13.0256197714376,22.3025955261305,-0.204983457269698,-0.590140993745349,0.594228403965905,0.671947755033161,-61.6699397186878,-48.1745741710204,-42.458077633038,0.94264106822223,7.0040652030991,5.42326675258782,5.36482611144178,2.0771387949153,10.3154673889832,1.44855517966126,27.8546497598869,3.15552713800124,-21.0647363820873,-8.56484405381408,7.5404816067796,0.300255021186187,-18.9658310823384,27.5481431251234,-117.614556808953,-5.86169875253228,9.56693658621543,1.30306025866468,24.4756103303309,32.9881447758,-110.977064987892,1019.98867072033,0.298674352962046,0.0292258641758863,-19.1935741942145,47.3290324668005,41.3413578175925,-0.0339099676716002,1.50742541087303,2.32201217786401,2.28508439722959,-14.0108978964943,1.99901775836103,-8.33918637031739,0.0143620770889955,-0.375964682659422,-0.873554712144527,-0.992619713939789,3.0597734144066,10.47,0.165240803389806,3.23498694915492,-4.6240338135595,-61.7599783704669,-3.96235116271231,10.1229744978814,0.864532611016821,-3.93585819418373,-43.1522104153389,-84.6590079415132,-6.76972312573422,9.9342906804265,0.195088755872346,18.8676804857382,-97.9136472757356,-55.8077447885726,0,0,0
41.375,-15.2978895568848,12.5561008453369,20.9845684523856,-0.201970286751249,-0.789332985794211,0.567032992839813,0.660474071077199,-61.7895641326904,-48.4306755065918,-42.9175528296757,0.945863610432198,7.28153969551635,5.48131847381592,5.46098233886496,2.15582483610209,10.0864358729553,1.56370670231049,28.5270422311646,4.05946529560559,-21.0890850241751,-8.23054993316784,7.58592667557763,0.48368633441537,-18.7390058549841,26.7417970109799,-117.238565886447,-5.92764923519275,9.35415636438604,1.28519872351338,26.7151221975031,34.8989200380073,-112.493846156691,1018.20570301063,0.298656262379692,0.0311824184800024,-19.0804508209228,47.7131843566895,42.5337968637883,-0.0400720187161985,1.38253080398977,2.29010987281799,2.2642471037305,-14.004396572113,2.5112202167511,-6.16798614447179,0.0164981457831292,-0.334714514564526,-0.839560449123383,-0.93666664572783,3.09397148494684,10.5298777926294,-0.013625230730049,3.3128158222084,-5.16429049081757,-65.8529577845514,-3.72637476926996,10.3575152440965,0.977800394627965,-4.17213543078646,-51.247818034231,-84.6375500062471,-6.77072048187256,9.89382648468018,0.110170900821686,20.6499996185303,-99.9250030517578,-54.0400009155273,0,0,0
41.38,-15.2978895568848,12.5561008453369,19.402181012013,-0.198115082681639,-1.00574388766702,0.567032992839813,0.676187669753762,-61.7895641326904,-48.4306755065918,-43.7309708406835,0.948853932681911,7.57847165794865,5.48131847381592,5.49826652671914,2.27061740182038,9.80078925593535,1.75591751002483,29.4136112859513,5.54257337982118,-20.9605489902097,-7.87015466870345,7.63397937750622,0.68924511488766,-18.2578196765497,24.4314441953463,-116.236643980666,-5.94363356292168,8.93025191154526,1.2647387891122,29.2565758236345,36.9171338856209,-114.558777705284,1014.46827063841,0.298362375261767,0.0332982745543231,-19.0804508209228,47.7131843566895,43.6929968472728,-0.0459900711964996,1.25341323767694,2.29010987281799,2.27800935536656,-14.004396572113,2.5112202167511,-4.05305732554058,0.0181461422968361,-0.294346357187447,-0.839560449123383,-0.912092528479499,3.11265864680795,10.609965629177,-0.259227929476155,3.81377677509901,-5.91243612441076,-69.9825898501561,-3.48077207052385,10.6751969957355,1.10861052765578,-4.63354683476465,-58.7457533488764,-84.3013788404916,-6.77072048187256,9.89382648468018,0.110170900821686,20.6499996185303,-99.9250030517578,-54.0400009155273,0,0,0
41.385,-15.2978895568848,12.5561008453369,17.8197181156563,-0.194259694777016,-1.22216510907165,0.567032992839813,0.691686889377136,-61.7895641326904,-48.4306755065918,-44.5444276394465,0.951844397524835,7.87541777955134,5.48131847381592,5.5340200530453,2.38541544141047,9.51512901788557,1.94813748329196,30.300222616693,7.02575218589477,-20.8320068270167,-7.50974221882756,7.68203437082301,0.894813697409471,-17.7766105528013,22.1209812107739,-115.234674298341,-5.95961865286165,8.5063272448638,1.24427787908113,31.7981506387233,38.9354439715563,-116.623807719927,1010.7306600471,0.298068474129864,0.0354142315230254,-19.0804508209228,47.7131843566895,44.8522521070905,-0.0519084058785308,1.12428951440611,2.29010987281799,2.29438904535361,-14.004396572113,2.5112202167511,-1.93802765644396,0.019794217395089,-0.253976274858893,-0.839560449123383,-0.885217605486615,3.13134669976448,10.690057284705,-0.504842339761946,4.31476161626165,-6.66061743325231,-74.1124188368455,-3.23515766023806,10.9928938959964,1.23942689835148,-5.09498024109866,-66.244046201804,-83.9651916444482,-6.77072048187256,9.89382648468018,0.110170900821686,20.6499996185303,-99.9250030517578,-54.0400009155273,0,0,0
41.39,-15.2977498790852,12.5486939786682,16.2369591951195,-0.190405121132302,-1.43867933718439,0.566479824814281,0.706220884302099,-61.7913047485405,-48.4324390454656,-45.3580859456728,0.954823509175329,8.17235029363254,5.48213958275124,5.56845402185894,2.50067838708426,9.2301720546953,2.13989676718282,31.1821142971494,8.5032233304442,-20.7031210846297,-7.14971979663909,7.73054074332805,1.1001179803625,-17.2950339549694,19.8159497082193,-114.236922653325,-5.97577063485019,8.08339577796004,1.22363132112009,34.3346377693125,40.9522718843921,-118.687939694183,1006.99311781219,0.297775085993728,0.0375293873524601,-19.0787961626612,47.7121262314899,46.0102228077221,-0.0578270614221729,0.995188856803361,2.28970796171702,2.31282622193179,-14.0040957252416,2.51439458801312,0.175296944531736,0.021427425339008,-0.21360290418857,-0.839322759747942,-0.856157283557451,3.14972962833596,10.7698328611531,-0.749641143064126,4.81679936103555,-7.41059967441686,-78.2378147887822,-2.9885891514987,11.3100393267875,1.36992626227345,-5.55945788956141,-73.7310714680995,-83.6305460408814,-6.77215921008891,9.89099729969295,0.107683148889578,20.6588604351498,-99.9033929806052,-54.0399837101328,0,0,0
41.395,-15.2206624366704,8.46088324770598,14.4494783513096,-0.18689766140953,-1.71212576658772,0.261189302933669,0.415418959348225,-62.7519414750505,-49.4057268681168,-46.3041604107878,0.951626903312983,8.46960086736127,5.93530528252773,6.05259313849534,2.87507664842628,9.32512813547044,2.08292311871773,29.4873073528028,6.87540480287017,-20.3815766841213,-6.99507703651956,8.02897414004994,1.16523072146545,-16.5983544205344,20.4422914050431,-115.536497938714,-6.08428322827991,8.19645692894381,1.10017385063757,34.1352298340944,42.2056918608411,-120.311688841028,1003.19487458118,0.297756570285539,0.0392588828540172,-18.1655989768025,47.1281525029601,46.4910433308843,-0.0640782235880619,0.875396961631103,2.06789534041151,2.11207813930651,-13.83805992031,4.26631338030593,1.40496716723521,0.0149137666058377,-0.170355632756835,-0.708143244438792,-0.694592868146487,3.00051292997502,10.6775898112573,-0.551589888875947,5.91205997526745,-9.17239503553607,-80.0297549374491,-2.20994928914245,11.3317435738218,1.32923079908411,-7.7131354888003,-75.2081660579352,-84.1363085875145,-7.5661857404403,8.32958499569274,-1.26529404900934,25.5490984915762,-87.9769084486924,-54.0304881434529,0,0,0
41.4,-15.1435786699871,4.37326743428768,12.6620827392775,-0.183390368931643,-1.98555915734765,-0.0440866618936389,0.123860092015727,-63.7125323958802,-50.3789682818502,-47.2501897645893,0.948430449873194,8.76683726740253,6.38844937417435,6.53368967891108,3.24945705747662,9.42007968849045,2.02595218690573,27.7925812212993,5.24766389395567,-20.0600476156937,-6.84044165017268,8.32739330668426,1.23034035782202,-15.901708105608,21.0686032362509,-116.836011256942,-6.19279064754439,8.30951268887517,0.976722266931241,33.93583140717,43.4590520709362,-121.935360563253,999.396812460382,0.297738055460228,0.0409882958886898,-17.2524453345823,46.5442066198302,46.9718409272621,-0.0703290876821329,0.755610778450795,1.84609329571393,1.91326158824215,-13.6720320324013,6.0181486365129,2.63457875603525,0.00840041846101057,-0.127110423468503,-0.576969984113207,-0.531883484308647,2.85130334665787,10.5853511597521,-0.353548078291345,7.00726836459881,-10.9341063896287,-81.8216096417068,-1.43134655437835,11.3534467859407,1.28853727636125,-9.86671039503904,-76.6851902160242,-84.642047018062,-8.36017440952284,6.76824714392904,-2.63820577975216,30.4391033686178,-76.0509926028626,-54.0209930295465,0,0,0
41.405,-15.0664912275723,0.285456703325469,10.8746018954676,-0.179882909208871,-2.25900558675098,-0.34937718377425,-0.16864189577236,-64.6731691223901,-51.3522561045014,-48.1962642297043,0.945233844010848,9.06408784113125,6.84161507395085,7.01152380019622,3.62385531881864,9.51503576926559,1.96897853844064,26.0977742769526,3.61984536638164,-19.7385032151853,-6.68579889005315,8.62582670340616,1.29545309892497,-15.205028571173,21.6949449330747,-118.13558654233,-6.30130324097411,8.42257383985894,0.853264796448714,33.736423471952,44.7124720473852,-123.559109710098,995.598569229376,0.297719539752039,0.0427177913902469,-16.3392481487236,45.9602328913003,47.4526614504244,-0.0765802498480219,0.635818883278537,1.62428067440842,1.7159885704602,-13.5059962274697,7.77006742880571,3.86424897873872,0.00188675972784027,-0.083863152036768,-0.445790468804058,-0.368446223361954,2.70208664829693,10.4931081098563,-0.155496824103166,8.10252897883071,-12.6959017507479,-83.6135497903737,-0.652706692022101,11.375151032975,1.24784181317191,-12.0203879942779,-78.1622848058599,-85.1478095646951,-9.15420093987423,5.20683483992882,-4.01118297765108,35.3293414250442,-64.1245080709497,-54.0114974628665,0,0,0
41.41,-15.0330652013311,-2.98671594562091,9.021878674159,-0.176399533477,-2.49822518915642,-0.613913479058927,-0.421457215212707,-65.4848959850382,-52.5464599100596,-49.1125926701706,0.936156265812761,9.3199707689113,7.24227685413988,7.43342215846067,3.89693617068588,9.56232747406689,1.89539130338104,24.7937277971522,2.37162891779334,-19.4439739132452,-6.48206475212077,8.90731730095726,1.2744643829981,-14.4574890571985,22.2570916312842,-119.014691471951,-6.38682910631358,8.48951952390867,0.727886150821227,33.6335027726999,45.6009267612737,-126.327166012345,990.643663208921,0.297704747939469,0.0441506264844091,-15.6114792889414,44.1342199232318,47.4680422612798,-0.0808703092581024,0.531203652942305,1.45634387312504,1.57372685844761,-13.382746097302,7.96481885831889,4.73821280443427,-0.0035186075030947,-0.0417989637450618,-0.334034224758762,-0.224151664664021,2.52415540953717,10.3828732641784,-0.000118408325255823,8.89094231559274,-14.0648690672817,-84.8340516895268,0.0508344173532075,11.3539185928866,1.03885660918584,-13.3447379499472,-76.5983233825868,-84.9901965346228,-9.02991740382746,5.83481046658123,-3.75814574251722,23.5233858186411,-48.4961488576435,-52.9947215790531,1.69361706858788,0,0
41.415,-15.0942217771179,-4.49239259153028,7.02753528743102,-0.17296780710731,-2.66333226035799,-0.790200173422089,-0.587209350289405,-65.9741485913329,-54.2194341710844,-49.9646179801494,0.914336838203317,9.48627388374494,7.52925517117618,7.73816559362252,3.95056524687858,9.50636669890929,1.78580145203073,24.3360239262644,1.94559009457704,-19.2079253760578,-6.17194878978908,9.15214569227176,1.066943175122,-13.5996541293711,22.6802518138031,-118.98302642428,-6.42256967061521,8.45657123636163,0.598326560059282,33.7395955025497,45.6988585803252,-131.574655671377,983.182226521241,0.297698021303185,0.0449409958243499,-15.285310588254,39.6171900410957,46.4751015242917,-0.0809125033079338,0.459451199570735,1.40509774508285,1.54883312866086,-13.3521678094086,4.78616811816086,4.84170985971705,-0.00652379941969457,-0.00229144353501615,-0.264339484540997,-0.122083652513024,2.28399041615247,10.2336445304248,0.0628374637270397,9.01472386558126,-14.583024392815,-84.8167798453424,0.591788577210004,11.2396653436065,0.465258663820436,-12.8726408755724,-68.446012927529,-83.3954295882591,-6.91619749208737,11.2059487090619,0.017510867883054,-24.4548169008354,-24.8457261855051,-49.7956303145791,7.05652468785787,0,0
41.42,-15.1553783529048,-5.99806923743965,5.03319190070305,-0.169536080737619,-2.82843933155956,-0.966486867785251,-0.754244781100871,-66.4634011976277,-55.8924084321091,-50.8166432901283,0.892517410593874,9.65257699857858,7.81623348821248,8.0394960292475,4.00419432307128,9.45040592375169,1.67621160068042,23.8783200553766,1.51955127136074,-18.9718768388704,-5.86183282745738,9.39697408358626,0.859421967245905,-12.7418192015437,23.1034119963219,-118.951361376609,-6.45831023491684,8.42362294881459,0.468766969297337,33.8456882323995,45.7967903993768,-136.822145330409,975.720789833561,0.2976912946669,0.0457313651642906,-14.9591418875667,35.1001601589596,45.4821607873037,-0.0809546973577652,0.387698746199165,1.35385161704065,1.52413202007886,-13.3215895215152,1.60751737800283,4.94520691499982,-0.00952899133629444,0.0372160766750296,-0.194644744323232,-0.0206244555768391,2.04382542276776,10.0844157966712,0.125793335779335,9.13850541556979,-15.1011797183484,-84.7995080011579,1.1327427370668,11.1254120943264,-0.108339281544971,-12.4005438011975,-60.2937024724713,-81.8006626418954,-4.80247758034728,16.5770869515425,3.79316747828332,-72.4330196203119,-1.19530351336669,-46.5965390501051,12.4194323071278,0,0
41.425,-15.2165320125856,-7.50367408873497,3.03894360950181,-0.166104518001649,-2.99353853002266,-1.14276515633617,-0.922628520327839,-66.9526304750742,-57.5653029213305,-51.6686279733042,0.870699023392002,9.81887218364326,8.10319812136946,8.33754384798763,4.05782084208889,9.39444781695071,1.56662697486184,23.4206380090106,1.09353276279364,-18.7358395570967,-5.55173165226866,9.64179080084052,0.651910654525629,-11.884025177537,23.5265520014528,-118.91969783881,-6.49404909501457,8.39067623232838,0.339213556276703,33.9517759034695,45.8947175487821,-142.069384775363,968.259708926765,0.297684568351359,0.046521696817347,-14.632988739459,30.5833456606631,44.4892673963359,-0.0809968893956735,0.315949714172883,1.30260793254834,1.4991277911047,-13.2910126916747,-1.57098179574569,5.04869903527138,-0.0125340399574567,0.0767217130628261,-0.124953327333591,0.079786302236977,1.80367188108024,9.93519417853531,0.188746205930427,9.26228106332915,-15.6193103368759,-84.7822369805403,1.67367110280955,11.0111642929411,-0.681909876254962,-11.9284692376502,-52.1417807409713,-80.2059717382051,-2.68885845631994,21.9479690840554,7.56864405546738,-120.408934613166,22.4539914445493,-43.3976003266984,17.7820842088879,0,0
41.43,-15.27603515625,-8.96864318847656,1.04163447738102,-0.162651113724536,-3.15463888312737,-1.31428575515747,-1.0876602897806,-67.4286556243896,-59.1930465698242,-52.5285558806332,0.848841045041511,9.98214854786351,8.38241767883301,8.62479312527818,4.09937674454175,9.34737123848122,1.46317974993307,22.9678142818636,0.580515041354433,-18.3782334061716,-5.26279126677628,9.90196918135586,0.448410125033446,-10.973636147778,23.7741986496368,-118.891565446072,-6.53304655275778,8.36498811308505,0.212793274758988,34.0259128227492,45.9897487449157,-147.377350774772,960.754292050625,0.297667656402508,0.0473078494002756,-14.3156383514404,26.1884384155273,43.4522585150763,-0.0803569424048445,0.24466603835733,1.25274729728699,1.47470161130546,-13.2612611198425,-4.66369438171387,5.11716037124838,-0.0154867269729609,0.115939736710419,-0.0571428574621677,0.176846800201646,1.56465223874889,9.79614269873439,0.257588039613046,9.34916986602582,-16.1410328489567,-84.6183998908606,2.19732611937444,10.9292681527932,-1.27237563568234,-11.3431591777352,-43.9948597828637,-78.8037620970236,-0.68327483751439,27.30309793871,11.0715466690661,-167.414764450972,45.166284326212,-37.9706477930007,24.2863533820212,0.00157936036117272,0.00122833020228189
41.435,-15.27603515625,-8.96864318847656,-1.06230454862198,-0.158417774275072,-3.17154604418443,-1.31428575515747,-1.082601539588,-67.4286556243896,-59.1930465698242,-53.6728251652759,0.825596824346694,10.0364966657087,8.38241767883301,8.63004074145569,3.70646617978818,9.62000305892248,1.58078563326066,22.6906286982632,-3.06249548596509,-13.6462795147076,-5.73588766107138,10.7145189207102,0.389607183369655,-8.1720818563883,17.7058142658138,-118.990560297357,-6.68924451755267,8.60056518759914,0.199350010170025,32.9500863783617,45.9803937722538,-154.861361531983,951.666564702584,0.29728421723012,0.0479422205395721,-14.3156383514404,26.1884384155273,40.8294655588233,-0.0551695405032687,0.190255161758242,1.25274729728699,1.49884129072952,-13.2612611198425,-4.66369438171387,3.92482520834313,-0.0165498350634734,0.144738084895041,-0.0571428574621677,0.2042188708173,1.36686052587975,10.0233358824354,0.538238443008453,8.10843439657642,-16.7910990390672,-79.1802827268909,2.09843026293987,12.011776851604,-2.46981735683607,-6.68380151054751,-36.0422733962332,-84.3309746271506,-2.56917281953675,32.0818586036737,4.75897374550182,-179.42660236885,34.1180134356834,47.627724222982,71.863278910004,0.0599934099804904,0.0466592167491134
41.44,-15.27603515625,-8.96864318847656,-3.16634390074324,-0.154184232959246,-3.18845401145774,-1.31428575515747,-1.07897325968613,-67.4286556243896,-59.1930465698242,-54.8171490142828,0.802351495253578,10.0908473751384,8.38241767883301,8.6328169496446,3.31353687913432,9.89264787978434,1.69839712461283,22.4134298970965,-6.70567972987073,-8.9140999805041,-6.20900661491988,11.5271074064161,0.330801437693577,-5.37039397316739,11.6371405116992,-119.089559869203,-6.84544993063161,8.83615349558204,0.185906104540358,31.8742086332997,45.971038353501,-162.345729163485,942.578404007189,0.296900759773474,0.0485766219287918,-14.3156383514404,26.1884384155273,38.2065475349552,-0.0299809375429974,0.135841690582042,1.25274729728699,1.52121528857451,-13.2612611198425,-4.66369438171387,2.73243318905701,-0.0176129938481869,0.173537806325964,-0.0571428574621677,0.229322040694478,1.16905938133291,10.2505398998203,0.818902229189774,6.86763976278247,-17.4411962275177,-73.7419062468579,1.99952969066645,13.0943371697319,-3.66731617787636,-2.02422166236385,-28.0893077913305,-89.8584507218443,-4.45516073041239,36.8608471433533,-1.5539001924597,-191.439013069995,23.0692157094822,133.23017798862,119.442473138837,0.118410245067817,0.0920922696631447
41.445,-15.27603515625,-8.96864318847656,-5.27028292674624,-0.149950893509782,-3.2053611725148,-1.31428575515747,-1.07675363741418,-67.4286556243896,-59.1930465698242,-55.9614182989254,0.77910727455876,10.1451954929836,8.38241767883301,8.63345426171134,2.92062631438075,10.1652797002256,1.81600300794043,22.1362443134961,-10.3486902571903,-4.18214608904015,-6.68210300921499,12.3396571457704,0.271998496029786,-2.56883968177764,5.56875612787619,-119.188554720489,-7.00164789542651,9.07173057009612,0.172462839951395,30.7983821889123,45.9616833808391,-169.829739920696,933.490676659147,0.296517320601085,0.0492109930680883,-14.3156383514404,26.1884384155273,35.5837545787022,-0.00479353564142161,0.0814308139829542,1.25274729728699,1.54137891955036,-13.2612611198425,-4.66369438171387,1.54009802615176,-0.0186761019386994,0.202336154510586,-0.0571428574621677,0.251783890913552,0.971267668463769,10.4777330835213,1.09955263258518,5.62690429333307,-18.0912624176282,-68.3037890828881,1.90063383423188,14.1768458685428,-4.86475789903009,2.63513600482381,-20.1367214047,-95.3856632519713,-6.34105871243475,41.639607808317,-7.86647311602402,-203.450850987872,12.0209448189537,218.828550004602,167.01939866682,0.176824294687135,0.137523156209976
41.45,-15.4603696087598,-11.4763072939,-7.4675884875855,-0.144635362925786,-3.19874732791786,-1.43518453733536,-1.19680040425621,-67.8488060796861,-62.191340382088,-57.5131664554413,0.752513473551038,10.168063955257,8.51266776614504,8.7625386709138,2.51159513246291,10.3615195842312,1.97142045886675,22.4992045495447,-14.715961434033,1.3999899844916,-6.76698922550385,13.2945775129928,0.162378501711258,-0.175810982317929,0.495412114696365,-119.20579240668,-7.28316987649707,9.41012903042567,0.174143578016738,29.4981462057227,45.31145781639,-178.961806677684,922.061351248574,0.296301136686709,0.0498358196846311,-14.299031521283,23.0266011502719,32.57953540768,0.0175082869720483,0.0246764656754953,1.19730751971537,1.5034794570696,-13.4472564510085,-7.28038745579845,-0.139888656728521,-0.0151787469194648,0.218840229960925,-0.0491274680224061,0.279265497152292,0.572430472810227,10.8139923944733,0.924662694891633,6.38508096130104,-18.4035971324347,-61.7567286219756,2.06857472429965,14.9955875269362,-5.41912232222084,6.78466406576436,-19.019294876911,-101.502023915156,-7.68801307678223,45.0527153015137,-12.3750667572021,-212.029998779297,4.13000011444092,279.964996337891,201,0.218545034527779,0.169971004128456
41.455,-16.1052941672487,-20.2497847638425,-9.89783476467709,-0.136616505134181,-3.1333595412387,-1.85816891522201,-1.62024426012743,-69.3187719118551,-72.6813669982013,-60.0828770401789,0.717554070253417,10.1122662264034,8.96836923111345,9.21559158471014,2.06234947395106,10.3668361009,2.22129674229938,24.4617211964151,-20.8923098109729,9.10565735380877,-5.8817892001521,14.6050988718469,-0.0742064900494325,1.19598159024365,-2.09064661061111,-119.018729783149,-7.87780857324933,10.0054044207325,0.21361637998234,27.6373653716499,43.0599126826676,-192.210565242799,904.782672075041,0.296502931657619,0.050436691898701,-14.240929780337,11.9643907249012,28.6226973468277,0.0325958105531754,-0.0379243565891991,1.00334229191185,1.32405387385786,-14.0979918680724,-16.4353207985792,-3.03815436521825,-0.000286143468002421,0.204620227818751,-0.0210843028670437,0.323441600609167,-0.328719102547863,11.4227335530485,-0.388516922296857,12.1380770849863,-17.8719454655568,-52.4396972499605,2.90326784129801,15.1550830269996,-4.36645202180252,9.65952122740057,-34.9819720849002,-109.089546469612,-7.68801307678223,45.0527153015137,-12.3750667572021,-212.029998779297,4.13000011444092,279.964996337891,201,0.218545034527779,0.169971004128456
41.46,-16.7502494788995,-29.0236805961649,-12.328196927815,-0.128597264964159,-3.06796863654959,-2.28117346307566,-2.04495383924286,-70.7888078391952,-83.1718938301658,-62.6527101613041,0.682592999920209,10.0564658368407,9.42409242615982,9.6674681264313,1.61308239320572,10.3721528710863,2.47118494105714,26.424331425692,-27.0689527064564,16.81169216709,-4.99654696412726,15.9156827227786,-0.310802763341369,2.56783957659439,-4.67682865186561,-118.831658239555,-8.4724756252873,10.6007081966857,0.253091064204484,25.7764958064326,40.8082601842446,-205.459955573617,887.503168969451,0.296704736251102,0.0510375927653013,-14.1828252688154,0.901652799152517,24.6656706045552,0.0476840535813283,-0.10052816396773,0.809367814896179,1.14127908971074,-14.7487583153885,-25.5906906934243,-5.93655827721322,0.0146071701357394,0.190399547597221,0.00696019952379413,0.363962719514082,-1.22991164913171,12.031503739384,-1.7017591583217,17.891347539706,-17.3402684469233,-43.122221596253,3.73800076055268,15.3145861325897,-3.31373152490811,12.5345154763079,-50.945410471527,-116.677430834308,-7.68801307678223,45.0527153015137,-12.3750667572021,-212.029998779297,4.13000011444092,279.964996337891,201,0.218545034527779,0.169971004128456
41.465,-17.3951740373884,-37.7971580661073,-14.7584432049066,-0.120578407172554,-3.00258084987042,-2.70415784096231,-2.47081900061013,-72.2587736713643,-93.6619204462791,-65.2224207460417,0.647633596622587,10.000668107987,9.87979389112823,10.1183550617275,1.16383673469387,10.3774693877551,2.72106122448977,28.3868480725624,-33.2453010833963,24.5173595364071,-4.11134693877551,17.2262040816327,-0.54738775510206,3.93963214915597,-7.26288737717309,-118.644595616024,-9.06711432203955,11.1959835869925,0.292563866170085,23.9157149723598,38.5567150505222,-218.708714138732,870.224489795918,0.296906531222013,0.0516384649793712,-14.1247235278694,-10.1605576262182,20.7088325437029,0.0627715771624553,-0.163128986232424,0.615402587092653,0.954873833596947,-15.3994937324524,-34.7456240362051,-8.83482398570295,0.0294997735872017,0.176179545455046,0.0350033646791565,0.400515589860251,-2.1310612244898,12.6402448979592,-3.01493877551019,23.6443436633913,-16.8086167800453,-33.8051902242378,4.57269387755104,15.4740816326531,-2.26106122448979,15.4093726379441,-66.9080876795163,-124.264953388763,-7.68801307678223,45.0527153015137,-12.3750667572021,-212.029998779297,4.13000011444092,279.964996337891,201,0.218545034527779,0.169971004128456
41.47,-17.9933168968911,-44.6337186120623,-18.401083647158,-0.11431734123161,-2.93806074498542,-2.92843372222007,-2.69908394125666,-73.5107755934633,-99.3448266228902,-69.0398851530346,0.612850807908404,9.89145734251426,10.1160208099451,10.3489575057404,1.25350769769069,10.7659079776067,2.41426522043385,28.8716857165073,-35.8681306101996,32.5442617214835,-4.23658852344297,17.85,-0.709440167949634,7.239235328167,-10.5843527805856,-118.379225738451,-9.55605886214425,11.8756742806098,0.0541393474380481,22.3089982373803,34.6250241234888,-232.748950568507,848.678621413576,0.296861150658489,0.05150950753291,-14.2681643792347,-19.2689637545525,15.3676742876735,0.0714756426121683,-0.235927091421209,0.488064376346668,0.831196381732514,-15.9673836194927,-42.5520403003092,-13.1345238178436,0.050507543619598,0.143525187909443,0.117169468960822,0.486924800101102,-2.00379811056683,13.0412403778866,-3.05633135059481,27.0253025944069,-20.2618726727661,-24.2517192373152,6.35844471658505,15.4579863540938,-1.05273093072078,14.2718598000847,-66.9884189064268,-122.647685941131,-6.83874899297014,41.2876006080355,-11.0462414286952,-197.432102774639,4.65873523080491,290.799261820575,229.702764170749,0.212293787184839,0.179058712100945
41.475,-18.5489144368178,-49.7103936897925,-23.1445863201814,-0.109653412626356,-2.87433460914265,-2.97220619226484,-2.74789436558915,-74.5646912778698,-100.661003124043,-73.9903123616059,0.578231599681991,9.73374250781801,10.1528818373512,10.3794548054331,1.83265782765171,11.5022934369689,1.60188268519443,28.0143325829412,-35.2631304744379,40.8622047644966,-5.27958287513746,17.85,-0.803781365590331,12.2895305790979,-14.5734713228007,-118.042755074712,-9.94895899677162,12.6319758811379,-0.436672125860422,20.93318910512,29.1676476989211,-247.50679316831,823.258909827052,0.296591269566836,0.0507176719505091,-14.59464933575,-26.6019392278234,8.76965133373694,0.0743809470852457,-0.317980563310909,0.421253756363115,0.763928570993083,-16.4599748740868,-49.1329148086705,-18.7067273553938,0.0770676871770944,0.0941302406204853,0.2484868937388,0.617929723503959,-0.942459637108865,13.2535080725782,-1.94258110066979,28.2514793401486,-27.3342272009755,-14.484364104349,9.00786001699491,15.2824069029291,0.296872313306008,9.49009402117637,-52.6431215697019,-112.670036643328,-5.21819238681698,34.1030491761037,-8.51059120448067,-169.576554356653,5.66766190280393,311.47309088676,284.473070578826,0.200365224124896,0.196399778879022
41.48,-19.1045384703566,-54.7873108482571,-27.8883151866468,-0.104989261622141,-2.81060543452559,-3.01598074959538,-2.79770915667703,-75.6186572181384,-101.977242386938,-78.9409756307946,0.543610740642159,9.57602015250592,10.1897446224716,10.4091873771551,2.41183557432771,12.2387140107968,0.789461411576525,27.1569385665782,-34.6581014893063,49.1805444477768,-6.32262696191144,17.85,-0.898127061881432,17.3400666528437,-18.5627800857274,-117.706268366404,-10.3418778668019,13.3883135458308,-0.927507003454027,19.5573143675412,23.7100110399143,-262.265339494335,797.837986104169,0.29632137560593,0.049925798609509,-14.9211498606673,-33.9352643732832,2.17131375374753,0.0772863900974712,-0.400037947912064,0.35443995052195,0.692362222560836,-16.9525896178447,-55.7141031253627,-24.2791966029024,0.103629097252332,0.0447329379384944,0.379810580374809,0.744108782546764,0.118929446166155,13.4657858892332,-0.828777741677483,29.4777145560036,-34.4069189736906,-4.71654321604755,11.6574016545036,15.1068190792762,1.64653991302609,4.70810022425373,-38.297140178934,-102.691911562334,-3.59755850458704,26.9181551495683,-5.9748200680433,-141.719677649676,6.67663668536859,332.147905782379,339.245988703389,0.188436092252637,0.213741672564103
41.485,-19.6601360102833,-59.8639859259873,-32.6318178596702,-0.100325333016888,-2.74687929868282,-3.05975321964015,-2.84849321121594,-76.6725729025448,-103.293418888091,-83.8914028393659,0.508991532415746,9.41830531780966,10.2266056498778,10.4380214818275,2.99098570428874,12.975099470159,-0.0229211236628945,26.2995854330121,-34.0531013535446,57.4984874907898,-7.36562131360593,17.85,-0.992468259522128,22.3903619037746,-22.5518986279425,-117.369797702664,-10.7347780014293,14.144615146359,-1.4183184767525,18.1815052352809,18.2526346153466,-277.023182094139,772.418274517645,0.296051494514276,0.0491339630271082,-15.2476348171827,-41.2682398465542,-4.42670920018905,0.0801916945705486,-0.482091419801764,0.287629330538397,0.616368714704157,-17.4451808724389,-62.294977633724,-29.8514001404525,0.130189240809829,-0.00466200935046383,0.511128005152787,0.865189843666322,1.18026791962412,13.6780535839248,0.284972508247539,30.7038913017453,-41.4792735019,5.05081191691873,14.3068169549135,14.9312396281116,2.99614315705287,-0.0736655546545684,-23.9518428422091,-92.7142622645305,-1.97700189843388,19.7336037176365,-3.43916984382873,-113.864129231689,7.68556335736761,352.821734848564,394.016295111467,0.176507529192694,0.23108273934218
41.49,-20.2705138663529,-63.1061872109285,-37.8225855396726,-0.1079679389611,-2.68589736474143,-3.03708618051579,-2.83379450216985,-77.7080444908009,-104.180568138844,-88.2753810055235,0.475047974852918,9.19762353476324,10.1942170187484,10.3964776595489,2.47290241110313,13.1093712013029,-0.00584400410701141,26.8911594925702,-32.6777145872736,66.9501095161228,-7.84703279713926,16.9543192144737,-0.76058560419198,31.5700255544905,-23.0949955655914,-114.655388684252,-11.2851901000752,14.8472572265568,-1.74038716748215,16.5837145722488,9.16940906147344,-285.569138224955,736.254080464518,0.296257486579585,0.0487345176002768,-15.6838801170182,-45.0431383186126,-11.3502534948724,0.0907815841249107,-0.565595027970019,0.197249417948542,0.512284921873652,-18.1712593838433,-70.8808651700011,-36.7723697536112,0.180459170772742,-0.041683259176753,0.54482780742486,0.88332626473207,1.71085279643115,13.8714599978757,0.476787202152659,26.0391990935069,-38.977274147857,14.8843030970341,13.2623464293722,15.5530751891235,3.68096479529816,-1.69851456419458,3.94497443166793,-86.1107694423719,-1.75469235575046,16.314977580032,-2.38013979394061,-91.7599261820977,4.46475970596661,310.402359978524,510.961278368522,0.162270968795771,0.22635573067269
41.495,-20.903423715214,-65.5922464400418,-43.1973062950206,-0.120681131279994,-2.62605032829333,-2.98704322373214,-2.79267633384092,-78.7358461800516,-104.890870236237,-92.4256497643463,0.441385115217556,8.95101008984501,10.1332951583161,10.3249485314804,1.50272172589194,12.9955234678343,0.353023851392024,28.0797469407535,-30.9849705093982,76.8682453947935,-8.0970028206248,15.6896193926806,-0.394292896510213,42.4506422716644,-22.2180685793997,-110.961295561235,-11.9004704190076,15.5277407485468,-1.99290105764541,14.894560511852,-1.40729302389687,-291.55481350832,695.664888532213,0.296659555787942,0.0484967895985404,-16.1653245183768,-47.3516210792589,-18.4074678044411,0.10453731469785,-0.64969056519945,0.097163493317348,0.393930935392488,-18.9935011010899,-80.2923717369346,-44.2486536283583,0.240495706099996,-0.0736032398324685,0.538300465235688,0.855708144315029,2.02269658810617,14.0570813024442,0.288690946856614,18.9473958358376,-32.5301802772485,24.7443845759221,10.6958225248722,16.503456268514,4.09180661607638,-2.02239700508771,37.4240301379511,-80.8980954408277,-2.10856745742318,14.4483903211926,-1.9296455976027,-72.0271436723406,-0.498753935708883,241.987295052275,653.518440277106,0.147084320387676,0.212535542988222
41.5,-21.5363637443167,-68.0784242166364,-48.5722833433806,-0.13339492982617,-2.56620043804539,-2.93699788065519,-2.75252148827899,-79.7636968799212,-105.601206204313,-96.5761164283123,0.407720650372159,8.70438488518977,10.0723703928311,10.2515651050163,0.532494777713538,12.881670305548,0.711908819468213,29.2683910666082,-29.2921457131938,86.7868542187639,-8.34698476390545,14.4248592638051,-0.0279827221979708,53.3317778299387,-21.3410997770338,-107.267026285764,-12.5157800775194,16.2082567193244,-2.24542698890782,13.2053259043158,-11.9844994582293,-297.540774218002,655.073761108423,0.297061644168928,0.0482590502607686,-16.6467918773626,-49.6602139196706,-25.4650186365556,0.118293701211401,-0.733790112516012,-0.00292720390097305,0.271016752826362,-19.815782026849,-89.7043270906006,-51.7252940089408,0.300535104263324,-0.105524742589212,0.531772811790868,0.822410458142908,2.33455525002066,14.2427114583456,0.100585722209785,11.8552544062518,-26.0827789776251,34.6049362317916,8.12917623594111,17.4538826667296,4.50266802780499,-2.34629489028207,70.9046822895972,-75.6851728734545,-2.46245943359411,12.5817140543298,-1.4791299194949,-52.2934202068585,-5.46250426202705,173.56896776062,796.082400009441,0.131896947805799,0.198714696289511
41.505,-22.1692735931777,-70.5644834457498,-53.9470040987285,-0.146108122145065,-2.50635340159729,-2.88695492387154,-2.71334610690799,-80.7914985691719,-106.311508301706,-100.726385187135,0.374057790736796,8.45777144027154,10.0114485323988,10.1758824256228,-0.437685907497659,12.7678225720794,1.07077667496725,30.4569785147915,-27.5994016353184,96.7049900974346,-8.59695478739099,13.160159442012,0.338309985483797,64.2123945471126,-20.4641727908421,-103.572933162747,-13.1310603964518,16.8887402413144,-2.49794087907109,11.5161718439189,-22.5612015435997,-303.526449501367,614.484569176118,0.297463713377285,0.0480213222590322,-17.1282362787211,-51.9686966803169,-32.5222329461242,0.132049431784341,-0.817885649745443,-0.103013128532168,0.143618538174141,-20.6380237440956,-99.1158336575341,-59.2015778836878,0.360571639590578,-0.137444723244927,0.525245469601697,0.783346763198393,2.64639904169568,14.4283327629141,-0.0875105330862608,4.76345114858247,-19.6356851070166,44.4650177106796,5.5626523314411,18.4042637461202,4.91350984858321,-2.6701773311752,104.38373799588,-70.4724988719104,-2.81633453526683,10.7151267954903,-1.028635723157,-32.5606376971014,-10.4260179037025,105.153902834371,938.639561918025,0.116710299397704,0.184894508605044
41.51,-22.3795393371582,-71.3904037475586,-57.6199679525453,-0.158735254514443,-2.45402509126153,-2.87032961845398,-2.70856931575491,-81.1329555511475,-106.547485351562,-102.949162180847,0.337730609621866,8.18866354667643,9.99120903015137,10.1381081802953,-0.680852969348653,12.8386594827586,1.01292528735632,29.1708676268861,-26.2702432477177,103.002585615628,-9.22598036398468,11.9243831417625,0.78195402298849,69.1620110212383,-29.3743649780048,-98.6756681330117,-12.8419740899313,16.922039272365,-2.3861680830861,6.03916437379245,-31.1598619497599,-301.791749865068,578.597365900383,0.297872612969343,0.0481017291704657,-17.2881820678711,-52.7356224060059,-37.180328842282,0.138018433634876,-0.893517346223103,-0.136263743042946,0.0786984827312659,-20.9111894512177,-102.242530822754,-65.5289471605144,0.40586907113005,-0.119797101730431,0.523076951503754,0.742871504590098,2.79829310344828,14.7931733716475,-0.213049329501897,0.75954602431293,-16.4090540892105,49.2478300458824,3.82730938697316,18.1364583333334,4.97890181992338,-2.28755971808334,112.589706612743,-74.3401571590748,-2.95831687894589,10.1717952227227,-0.913671101501276,-25.2162119170258,-11.0091978866022,76.3306811389339,1024.09789272031,0.104485407738921,0.174832821777982
41.515,-22.3795393371582,-71.3904037475586,-60.4461047234045,-0.171318673438576,-2.40544082184936,-2.87032961845398,-2.72138403899165,-81.1329555511475,-106.547485351562,-104.212920402369,0.300080615185478,7.9083846630036,9.99120903015137,10.1173420216331,-0.562338697318007,13.0013655172414,0.747774712643678,26.6537722908093,-25.1220509909654,107.498638664207,-10.0435279693487,10.7030835249042,1.26404597701149,71.1608079088028,-43.1526720590322,-93.1802166406509,-12.1030175089927,16.633384169363,-2.09318332211725,-1.3217772411478,-38.7739015034058,-296.216556307621,545.051800766283,0.298284881242847,0.0483403913859435,-17.2881820678711,-52.7356224060059,-40.6446142363242,0.140113382789172,-0.964933176209221,-0.136263743042946,0.0428766033717241,-20.9111894512177,-102.242530822754,-71.2843196238467,0.443831077212827,-0.0774925836291188,0.523076951503754,0.698892392154899,2.87060689655173,15.2471432950192,-0.307459003831404,-1.7079513741072,-14.7847216309541,51.5045362092616,2.50557394636014,17.2626666666667,4.8724398467433,-1.55351024076438,108.222608202072,-82.7246885199376,-2.99487981332216,10.2867760881154,-0.965628972629021,-24.0350867982477,-9.41327270843973,67.205081365008,1081.14544061303,0.0937347598619388,0.166641576733169
41.52,-22.3795393371582,-71.3904037475586,-63.2723762583079,-0.18390269240176,-2.35685423570125,-2.87032961845398,-2.73512016317983,-81.1329555511475,-106.547485351562,-105.476738886073,0.262428825412938,7.62809241426075,9.99120903015137,10.0929391943407,-0.443818773946364,13.1640793103448,0.482611494252875,24.1365569272977,-23.9738039827823,111.994906106617,-10.861114559387,9.4817256704981,1.74616091954023,73.1597001087933,-56.93163615723,-87.6845030982451,-11.3640256909849,16.3447153018718,-1.8001845901999,-8.68306986183956,-46.3883041317527,-290.641096897637,511.504636015326,0.298697169175322,0.0485790649820048,-17.2881820678711,-52.7356224060059,-44.1090648244627,0.142208431840906,-1.03635241165192,-0.136263743042946,0.00318825672145228,-20.9111894512177,-102.242530822754,-77.039966531529,0.481794893509998,-0.0351860482411681,0.523076951503754,0.649459580579009,2.94292413793104,15.7011348659004,-0.40187318007662,-4.17556643488957,-13.1603117165697,53.7613499834445,1.18377547892719,16.3888333333333,4.76597279693486,-0.819425760370832,103.855301546757,-91.1096196963247,-3.03144449119824,10.4017624363589,-1.01758932136256,-22.8539053576385,-7.81727142874765,58.079046437786,1138.19570881226,0.0829835993414067,0.158449941089669
41.525,-22.3795393371582,-71.3904037475586,-66.0985130291671,-0.196486111325893,-2.30826996628909,-2.87032961845398,-2.74969220390594,-81.1329555511475,-106.547485351562,-106.740497107595,0.22477883097655,7.34781353058793,9.99120903015137,10.0645847165787,-0.325304501915718,13.3267853448276,0.217460919540233,21.6194615912209,-22.82561172603,116.490959155196,-11.678662164751,8.26042605363987,2.22825287356322,75.1584969963578,-70.7099432382574,-82.1890516058843,-10.6250691100464,16.0560601988697,-1.50719982923105,-16.0440114767798,-54.0023436853986,-285.06590334019,477.959070881226,0.299109437448825,0.0488177271974826,-17.2881820678711,-52.7356224060059,-47.5733502185048,0.144303380995202,-1.10776824163804,-0.136263743042946,-0.0399918582767926,-20.9111894512177,-102.242530822754,-82.7953389948612,0.519756899592775,0.00711846986014388,0.523076951503754,0.594928798105362,3.01523793103449,16.155104789272,-0.496282854406128,-6.6430638333097,-11.5359792583132,56.0180561468237,-0.137959961685832,15.5150416666667,4.65951082375478,-0.0853762830518767,99.4882031360862,-99.4941510571875,-3.06800742557451,10.5167433017515,-1.06954719249031,-21.6727802388604,-6.22134625058521,48.9534466638602,1195.24325670498,0.0722329514644241,0.150258696044856
41.53,-22.3795393371582,-71.3904037475586,-68.9247845640705,-0.209070130289076,-2.25968338014098,-2.87032961845398,-2.76496570195654,-81.1329555511475,-106.547485351562,-108.0043155913,0.18712704120401,7.06752128184507,9.99120903015137,10.032089089774,-0.206784578544076,13.4894991379311,-0.0477022988505707,19.1022462277092,-21.6773647178469,120.987226597607,-12.4962487547893,7.03906819923374,2.71036781609197,77.1573891963483,-84.4889073364552,-76.6933380634785,-9.88607729203856,15.7673913313785,-1.2142010973137,-23.4053040974716,-61.6167463137455,-279.490443930206,444.411906130268,0.2995217253813,0.0490564007935439,-17.2881820678711,-52.7356224060059,-51.0378008066433,0.146398430046935,-1.17918747708074,-0.136263743042946,-0.0861946363609752,-20.9111894512177,-102.242530822754,-88.5509859025435,0.557720715889947,0.0494250052480946,0.523076951503754,0.535805263834598,3.08755517241381,16.6090963601533,-0.590697030651344,-9.11067889409206,-9.91156934392884,58.2748699210066,-1.45975842911878,14.6412083333333,4.55304377394634,0.648708197341674,95.1208964807719,-107.879082233575,-3.10457210345058,10.631729649995,-1.12150754122385,-20.4915987982512,-4.62534497089313,39.8274117366381,1252.29352490421,0.061481790943892,0.142067060401356
41.535,-23.1588373042127,-73.0320159310609,-70.8919306032378,-0.20955810781974,-2.20304575541584,-2.84183451341341,-2.75225747008636,-82.1998021448547,-104.221866636936,-107.992494019143,0.165734749313453,6.66191964122569,9.85879055538693,9.86299934217044,0.480170336189837,14.0395443638761,-0.208172972972973,18.050289313704,-19.7273982926016,123.778577927521,-13.6709157547792,6.01745629531973,2.85237336849045,78.1967717310807,-82.0073891777957,-73.4529124246197,-9.880020212137,15.1416931184531,-0.908639492930454,-37.2281409263737,-64.3937446798426,-264.166489868566,404.065471324983,0.297953313819342,0.0479505167955541,-17.8257729785695,-52.1884183448384,-52.8141620702639,0.135581244360214,-1.18976409151223,-0.216720518739741,-0.215310539438119,-21.9155257012047,-100.327316608668,-92.7979314251992,0.585536114711735,0.247226842555105,0.409096518556342,0.358770028008354,2.88310771259065,16.1932558998022,-0.865958866183265,-13.9252488260618,-8.40935439504544,56.9062317602155,-2.75087593935399,13.7903760052736,3.95181595253789,1.31201445347788,87.8971628539108,-110.448526900885,-3.08715168895105,10.6441285291406,-1.16274994668791,-17.128687116589,-2.92880561531887,31.6096439608509,1283.53727092947,0.0541752060862773,0.136754114286398
41.54,-24.2889325168436,-75.4125919725774,-72.4725408447486,-0.204601980405946,-2.14278063465124,-2.80051247338362,-2.72699406159666,-83.7468846205307,-100.84938180198,-107.406536577454,0.151658988982981,6.19989119702694,9.66676453873918,9.63026820740093,1.4230117336849,14.7639562294002,-0.321535135135142,17.657737412209,-17.4164623159745,125.802780341317,-15.0063773236651,5.08567462096245,2.84131364535267,78.804373804699,-72.2072456196034,-71.2273138178829,-10.2038390936,14.3642628001727,-0.597402511802296,-53.9601199270411,-64.9937352085302,-244.453912128205,360.656058009229,0.295493328379579,0.0462394031430438,-18.605357861654,-51.3948929976663,-53.8308775689817,0.118951822945497,-1.17295763005189,-0.333394526478171,-0.382437535475259,-23.3719591014764,-97.5499778935653,-96.3661402330427,0.608785877110591,0.515027070266517,0.243808339896883,0.127313273334656,2.55408094924194,15.3858961107449,-1.22263493737641,-19.7964598745086,-6.9620326017074,53.9057698348755,-4.02827396176665,12.9498370468029,3.1278665787739,1.94351099066548,79.3873203284585,-110.400737973746,-3.04543267213599,10.6103561015874,-1.19917131423636,-12.7835983466473,-1.18689916838292,23.8000972555182,1303.16827949901,0.0484184370497849,0.132736430043599
41.545,-25.4190277294745,-77.7931680140939,-74.0531510862594,-0.199645852992153,-2.08251551388665,-2.75919043335383,-2.70171272244853,-85.2939670962068,-97.4768969670235,-106.820579135765,0.137583228652508,5.7378627528282,9.47473852209143,9.39383251864035,2.36585313117996,15.4883680949242,-0.434897297297311,17.265185510714,-15.1055263393475,127.826982755113,-16.3418388925511,4.15389294660516,2.8302539222149,79.4119758783173,-62.407102061411,-69.0017152111461,-10.5276579750629,13.5868324818922,-0.286165530674139,-70.6920989277085,-65.5937257372178,-224.741334387843,317.246644693474,0.293033342939816,0.0445282894905335,-19.3849427447385,-50.6013676504941,-54.8475930676995,0.10232240153078,-1.15615116859156,-0.450068534216601,-0.550605290693044,-24.8283925017481,-94.7726391784628,-99.9343490408862,0.632035639509447,0.78282729797793,0.0785201612374228,-0.106291829519719,2.22505418589323,14.5785363216875,-1.57931100856956,-25.6676709229555,-5.51471080836936,50.9053079095355,-5.30567198417931,12.1092980883322,2.3039172050099,2.57500752785307,70.8774778030063,-110.352949046608,-3.00371365532092,10.5765836740342,-1.23559268178481,-8.4385095767057,0.555007278553026,15.9905505501855,1322.79928806856,0.0426616680132926,0.1287187458008
41.55,-26.5573484117487,-79.6429792201509,-75.5127803494988,-0.194743289288142,-2.02173181439914,-2.71194772410242,-2.67016592400442,-86.8532902600457,-94.1929081771559,-106.114349157944,0.123521314330962,5.27759006471462,9.24399083394235,9.11548745401852,3.25673315504534,16.0894817037376,-0.516294697019132,16.5505367563985,-13.0008363591561,129.510401824432,-17.51725066858,3.25115517578764,2.80366525340812,79.4903324257878,-52.1149413235992,-66.913432559383,-10.5479225960646,12.6436696132112,-0.0227480459766838,-84.8412496751026,-65.8773905142422,-204.747756416869,274.390424629835,0.290657857005419,0.042655689254336,-20.1608465344866,-49.5083394421655,-55.668773507996,0.0858964038229968,-1.1219099902881,-0.57522887045542,-0.727466828840836,-26.2631790463042,-91.0828214885126,-102.979141234916,0.655267539294272,1.06839193847401,-0.081380012377734,-0.335559948975535,1.88175278846783,13.7943424434153,-1.9072111408258,-31.1942358378207,-4.16128074239963,47.7813665686646,-6.55095649337944,11.2796013306373,1.48003952775424,3.19344860047142,62.1460779458388,-110.089517325905,-2.9650342464447,10.5452718734741,-1.26936042308807,-4.40999984741211,2.17000007629395,8.75,1341,0.0373243317008018,0.124993786215782
41.555,-27.8011532802879,-74.7355267395891,-75.4328585241693,-0.190519566585652,-1.95430500529287,-2.58928344638044,-2.56250454162591,-88.5695009574818,-92.0336300041304,-103.876170638849,0.109626498819669,4.8393728111996,8.52003101196224,8.34143582232792,3.48654830082839,15.1209750179375,-0.19072324049314,11.7340112142669,-13.5209940965252,126.855570775263,-16.6554438718935,2.71765573021982,2.57932189681038,72.8296112693477,-35.5509572712756,-66.5722901472124,-6.70290314647816,9.58953957173559,-0.368065905820086,-66.1113150224318,-62.1333183884753,-181.162978667247,238.550205466049,0.289356786851259,0.0387255790420754,-20.8903853765976,-44.6008864397732,-54.0006530344064,0.0720499375886332,-0.865642043500059,-0.808531532625996,-1.01177981386251,-27.4232657375601,-75.7715689559776,-99.361020628159,0.678287200200616,1.58034610537843,-0.172776931305391,-0.496169988452686,1.35646102667798,13.30461731133,-1.86890861652861,-32.3358807419164,-4.00253130307271,43.0830586941169,-7.38814023873199,10.5874199986954,0.656535255364953,3.64605338493541,50.587767703781,-107.080033273985,-2.9650342464447,10.5452718734741,-1.26936042308807,-4.40999984741211,2.17000007629395,8.75,1341,0.0373243317008018,0.124993786215782
41.56,-29.0448988409467,-69.828308259241,-75.3529405097221,-0.186296045281345,-1.88688141127382,-2.46662501761315,-2.45380602685049,-90.2856298214877,-89.8744547911551,-101.638098841979,0.0957323458496463,4.4011764530333,7.79610571028645,7.56577244286326,3.71635248842215,14.1525145130781,0.134832691931359,6.91771533671388,-14.0411270314082,124.200866315405,-15.7936781684169,2.18418172330572,2.35498923749266,66.1692077135731,-18.987763033183,-66.2311640016073,-2.85806703751011,6.53555515919574,-0.71336730000166,-47.3822734622011,-58.3894247898935,-157.579325501726,202.711695257974,0.288055778735538,0.034795656227784,-21.619889432382,-39.6936674376195,-52.3326121011788,0.0582041315901192,-0.609386316240279,-1.04182307031335,-1.29444690415197,-28.583297112838,-60.461046504147,-95.7430725428882,0.701305763469113,2.09227586096458,-0.264169492188086,-0.655336015482464,0.831194312177947,12.8149155306242,-1.83060791859631,-33.4774712093869,-3.84378943333569,38.3849748472191,-8.22528406496642,9.89527167177614,-0.166929750179382,4.09863658801543,39.0300085922898,-104.070692722161,-2.9650342464447,10.5452718734741,-1.26936042308807,-4.40999984741211,2.17000007629395,8.75,1341,0.0373243317008018,0.124993786215782
41.565,-30.288703709486,-64.9208557786793,-75.2730186843925,-0.182072322578855,-1.81945460216755,-2.34396073989117,-2.34372892232311,-92.0018405189238,-87.7151766181295,-99.3999203228832,0.0818375303383534,3.96295919951828,7.07214588830634,6.78940097410519,3.94616763420519,13.1840078272781,0.460404148457352,2.10118979458227,-14.5612847687772,121.546035266236,-14.9318713717305,1.6506822777379,2.13064588089492,59.5084865571331,-2.4237789808594,-65.8900215894367,0.986952412076352,3.4814251177201,-1.05868515984506,-28.6523388095304,-54.6453526641266,-133.994547752105,166.871476094188,0.286754708581378,0.0308655460155233,-22.3494282744929,-34.7862144352273,-50.6644916275892,0.0443576653557556,-0.353118369452233,-1.27512573248393,-1.57452388950679,-29.7433838040939,-45.149793971612,-92.1249519361313,0.724325424375457,2.604230027869,-0.355566411115743,-0.811737008368319,0.305902550388105,12.3251903985389,-1.79230539429912,-34.6191161134826,-3.68503999400877,33.6866669726714,-9.06246781031897,9.20309033983433,-0.990434022568672,4.55124137247941,27.4716983502321,-101.06120867024,-2.9650342464447,10.5452718734741,-1.26936042308807,-4.40999984741211,2.17000007629395,8.75,1341,0.0373243317008018,0.124993786215782
41.57,-31.280273289093,-62.3909621886184,-74.5719052850475,-0.177789127251541,-1.74505961737665,-2.23134000952165,-2.24203558790887,-93.2859979421742,-81.9483968315833,-96.3055557590858,0.0685633512119983,3.55398736476278,6.42251156953065,6.08774156768447,3.99429745704107,12.5171569484493,0.606577378234128,-0.358072048972273,-15.3311529501136,118.236573190146,-13.8289394987148,1.41884633952218,1.76688908315175,53.0945272477832,12.2091932404899,-63.8968949029837,3.42861386985953,3.27842908966786,-1.14702453272403,-13.1576293374773,-46.0298818704077,-96.5632490080909,135.372884673095,0.280779090643601,0.027916887039051,-22.8516992476418,-28.9768091506911,-47.9370004100546,0.0347693734320529,-0.0713614082131844,-1.41701647733025,-1.75962421662243,-30.4739048983721,-31.8059776900197,-85.6668706299487,0.742400330208443,3.1451386621214,-0.30732944832021,-0.824396852001144,0.301672951215374,12.1017058309304,-1.70943686964235,-33.1509095480843,-4.30360628232582,28.4394975067183,-9.61856203436714,8.59317119632583,-1.6059813681615,4.49880873048896,20.1256574694636,-95.5109259976067,-2.9379400388185,10.3974851378179,-1.29262314242912,-3.41813576985004,2.52595127856229,7.74213809476912,1331.17277507404,0.0365306434594481,0.125408284835565
41.575,-31.9202148698247,-63.1762771891143,-73.0044623804671,-0.173422508498524,-1.6609390417407,-2.13271211120114,-2.15245225828963,-93.9678052306671,-71.1503103556427,-92.0168894678956,0.0561531316643279,3.18575146600585,5.8764497257854,5.49114727586175,3.78907323565099,12.2708878827812,0.502597106063155,0.469581189555632,-16.4493293662472,114.013852585412,-12.3896336260324,1.60765262320105,1.20867920097073,47.0239441064174,24.1510471106781,-59.5998544156062,3.91357636755643,7.05130617304653,-0.87701840184373,-2.17266072194527,-30.6202791513071,-39.8187517937334,109.925081220725,0.268284150063754,0.0263365216551461,-23.0371033319278,-21.9089712757109,-43.7319090113124,0.0311179957084158,0.245972064838075,-1.43144982830399,-1.81276878346526,-30.6054817000272,-21.2042206818324,-75.2477367885537,0.753581856410796,3.72648596026452,-0.0643680239526178,-0.636916573563025,1.02406221050846,12.2494672703313,-1.56441175319337,-28.0431067045979,-6.00620723015464,22.4263433655768,-9.78274141147919,8.09789674203777,-1.93160379943376,3.74209719812059,18.6527725225323,-86.4168749032511,-2.8730599609084,10.0435934479136,-1.34832829771803,-1.04300749460093,3.37831581543963,5.32870125114022,1307.64039768798,0.0346300691505111,0.126400847641467
41.58,-32.5601259364624,-63.9615547437299,-71.4370942156782,-0.16905609795735,-1.57682247719456,-2.03408891571767,-2.06085003213238,-94.6495800087992,-60.3527387608044,-87.7284276715696,0.0437435038684955,2.81753312570298,5.33041391970197,4.89718026059369,3.58385879989039,12.0246305598685,0.39862179194445,1.29719496340499,-17.5674524647947,109.791333331078,-10.9503963832314,1.7964499041008,0.650495935701877,40.9536504263877,36.0923315619331,-55.3030188223965,4.39851574096868,10.8240033557441,-0.607025145564365,8.81178410145363,-15.2114112025059,16.9230396940737,84.4784911864097,0.255789805275467,0.0247562316272104,-23.2224985756605,-14.8414704137898,-39.5270181223642,0.0274667920920515,0.563290406596514,-1.44588249105767,-1.8605378021949,-30.7370522277551,-10.602969193243,-64.8290997588048,0.764762849448633,4.30780553824275,0.178581815376621,-0.44279009303067,1.74641702438578,12.3972216640789,-1.41939355192255,-22.9355474145561,-7.70872699350188,16.413475947406,-9.94691296008767,7.60264590373551,-2.25721070417392,2.98542174774403,17.1799578066208,-77.3232574371187,-2.80818297665068,9.68971863249381,-1.40403079683895,1.33200752829861,4.23063970933887,2.91537948651397,1284.10914238743,0.0327295854659451,0.127393363119369
41.585,-33.2000675171941,-64.7468697442258,-69.8696513110978,-0.164689479204333,-1.4927019015586,-1.93546101739716,-1.96717486073273,-95.3313872972921,-49.5546522848638,-83.4397613803794,0.0313332843208251,2.44929722694604,4.78435207595672,4.3068564253402,3.3786345785003,11.7783614942004,0.294641519773477,2.12484820193289,-18.6856288809283,105.568612726344,-9.51109051054893,1.98525618777968,0.0922860535208503,34.8830672850218,48.0341854321213,-51.005978335019,4.88347823866558,14.5968804391228,-0.337019014684062,19.7967527169856,0.198191516594711,73.6675369084311,59.0306877340396,0.24329486469562,0.0231758662433055,-23.4079026599466,-7.77363253880967,-35.321926723622,0.0238154143684144,0.880623879647773,-1.4603158420314,-1.90213979456966,-30.8686290294101,-0.0012121850556448,-54.4099659174097,0.775944375650986,4.88915283638588,0.421543239744213,-0.240852932864225,2.46880628367886,12.5449831034798,-1.27436843547357,-17.8277445710697,-9.4113279413307,10.4003218062645,-10.1110923371997,7.10737144944745,-2.58283313544618,2.22871021537565,15.7070728596895,-68.2292063427631,-2.74330289874058,9.33582694258948,-1.45973595212786,3.70713580354772,5.08300424621621,0.501942642885061,1260.57676500137,0.0308290111570081,0.128385925925271
41.59,-33.8569996910691,-66.0574903597334,-68.718173066741,-0.157769867874332,-1.45057793893262,-1.88108667799264,-1.91574478715922,-95.6942178911969,-39.6863545328519,-76.8933174812113,0.0208776434595698,2.15717556679745,4.39487894449681,3.87777697592812,3.24771753902662,11.8395054790328,0.213185919804091,2.00172590098518,-15.9587476712505,105.141121200784,-8.78405607591063,2.02804089378632,-0.069386593204791,32.6487087107514,48.9413710619098,-35.5023615881977,5.07770241348248,12.7676932693206,-1.68113076591112,26.6855448345632,9.13664823516341,84.9345131860598,47.3185919804102,0.193249840344863,0.0183343210030959,-23.3447897749878,0.0861471953916011,-29.5370193558699,0.0263087583233357,1.0977845607638,-1.2811734301598,-1.74331393421427,-30.6471720713419,11.9290216463379,-42.4057488677362,0.763675801930055,5.35107726451405,0.858024934200763,0.163412802698847,3.23360918273645,12.7524013468013,-1.47117453321091,-13.2287557958938,-9.98895758936165,2.39900025318654,-10.195059442914,7.16436045301501,-2.73444603611879,0.910198732555624,14.3615410370068,-59.3889264511936,-2.74622661970937,9.1970632343625,-1.47715999683547,3.22089859977935,4.44846152127391,-0.172853082061398,1239.32715029079,0.032458796373038,0.131303739493543
41.595,-34.5192502937983,-67.5313557428944,-67.6958238070143,-0.150056850337284,-1.42149572636582,-1.84045434305491,-1.87621449423531,-95.9579952170866,-30.1062376232982,-69.6451861152881,0.0110284522221269,1.88867715795961,4.05401880140804,3.50283401936922,3.139872543618,11.9961374961739,0.138721518212426,1.58327971068713,-12.0373996606544,105.892422315183,-8.27821169268442,2.02547315580041,-0.107902662993582,31.6057632819025,46.4211837794329,-16.5169507268721,5.18163377906629,9.19835932584943,-3.52668055137509,32.3024721685199,16.0656894693296,82.0766215129814,39.8721518212427,0.131538422558335,0.012479532501148,-23.2044821865711,8.19239970129858,-23.2610507873586,0.030710842987362,1.28384458471858,-1.04189410911046,-1.51694556617758,-30.3160470148559,24.2726333944346,-29.9084459007955,0.74412272941577,5.77593715045446,1.35464238417488,0.637472407522679,4.01163379247016,12.9783622895623,-1.77416761554945,-8.78752009432144,-10.2172009658878,-6.22035725757389,-10.2541174165901,7.39288913376186,-2.83202007958374,-0.582893355553291,13.0554817157735,-50.6269168301043,-2.77021076216112,9.12511080700723,-1.48269480364893,1.84587490342172,3.35203743679355,-0.30765933359202,1218.78524640343,0.0351852328373837,0.134819729057225
41.6,-35.1814693186806,-69.0051508482859,-66.6735232955835,-0.142344200577156,-1.39241490051524,-1.79982394557354,-1.83511209679445,-96.2217599653811,-20.5265775188613,-62.3974003592907,0.00117973061997102,1.62019155183056,3.71317491142546,3.13414789523816,3.03203269054179,12.1527620446893,0.0642606672788567,1.16485347300162,-8.1162386302229,106.643687605573,-7.77239142944597,2.02290554025097,-0.146416896235082,30.5628675834288,43.9011166660998,2.46755486023725,5.28556018892982,5.62919557758818,-5.37214233618174,37.91913167264,22.9944003086248,79.2188661116783,32.4260667278849,0.0698299473341649,0.00662502317088147,-23.0641812883884,16.2982656798116,-16.9853814734997,0.0351127177484384,1.46989573684312,-0.802626197527117,-1.28277964865233,-29.9849377472816,36.6156565667279,-17.4117388380588,0.7245705892433,6.2007767779605,1.85123615412563,1.12183392413649,4.78962130394858,13.2043124579124,-2.07714625038263,-4.34649616252311,-10.4454334591708,-14.8393037747471,-10.3131725742271,7.62140691766146,-2.92958947046222,-2.0759142491129,11.7494846708764,-41.8653250046292,-2.79419376098602,9.05316181053253,-1.48822934654827,0.470916771802619,2.25566563269105,-0.442459157206777,1198.24432200796,0.0379115392980834,0.138335550969297
41.605,-35.8437199214098,-70.4790162314469,-65.6511740358568,-0.134631183040109,-1.36333268794845,-1.7591916106358,-1.79279294328009,-96.4855372912708,-10.9464606093076,-55.1492689933675,-0.00866946061747184,1.35169314299272,3.37231476833669,2.77222606166698,2.92418769513317,12.3093940618304,-0.0102037343128083,0.746407282703562,-4.19489061962684,107.394988719972,-7.26654704621976,2.02033780226506,-0.184932966023874,29.5199221545799,41.380929383623,21.4529657215628,5.38949155451363,2.05986163411697,-7.21769212164571,43.5360590065967,29.9234415427909,76.3609744385999,24.9796265687175,0.00811852954763647,0.000770234668933546,-22.9238736999717,24.4045181857186,-10.7094129049884,0.0395148024124647,1.65595576079791,-0.563346876477772,-1.04055578368945,-29.6538126907956,48.9592683148245,-4.91443587111804,0.705017516729015,6.62563666390091,2.34785360409975,1.6170115132829,5.56764591368229,13.4302734006734,-2.38013933272117,0.0947395390492769,-10.673676835697,-23.4586612855075,-10.3722305479033,7.84993559840832,-3.02716351392717,-3.56900633722181,10.4434253496431,-33.1033153835399,-2.81817790343778,8.98120938317725,-1.49376415336172,-0.904106924555008,1.15924154821068,-0.5772654087374,1177.7024181206,0.0406379757624292,0.141851540532979
41.61,-35.9308432006836,-70.6729125976562,-65.8676363389263,-0.131107613686659,-1.45254963978049,-1.75384616851807,-1.78497941095489,-96.5202388763428,-9.68613529205322,-48.0626981124621,-0.00351698263862781,1.17994043737118,3.327472448349,2.71344536411935,2.85882887556061,12.1410604636084,-0.238461338952813,1.53935054270421,-0.197140488050209,107.314023589339,-7.6388907980764,1.69722829199761,-0.162446317609554,30.4712565882646,36.5980294409789,37.2342135474932,6.40906508104041,3.57994007454793,-5.74376137900367,51.2736363725543,41.6429327142717,79.980285157589,23.4095639487761,0,0,-22.9054153442383,25.470947265625,-4.99358748301119,0.0420422916584713,1.76965669292698,-0.531868159770966,-0.99802570621415,-29.610251083374,50.5831489562988,4.66799855035708,0.672148770367627,6.89513780131635,2.41318678855896,1.69194969404678,5.7506929270006,13.2139849786567,-2.33537083265793,2.62040495855086,-7.91674835080753,-33.4782906968134,-10.6397918625385,7.72845474685254,-2.94356211163345,-4.78350907597858,7.07401710530616,-22.0176848666537,-2.73365859820196,9.02029453702611,-1.57273948225705,-2.38691148604889,0.773905265951566,0.720688341195575,1162.20721889015,0.0407436112870388,0.14238029765018
41.615,-35.9308432006836,-70.6729125976562,-66.2717824528929,-0.12821852511342,-1.55969304733009,-1.75384616851807,-1.78221637427863,-96.5202388763428,-9.68613529205322,-41.0002134827803,0.00390843394364881,1.02283464820407,3.327472448349,2.7067623032202,2.79990284757119,11.9234874371859,-0.490030150753756,2.5158549951403,3.8124035816945,107.106971069338,-8.14429480737018,1.32554103852595,-0.130716917922952,31.7247637363774,31.4720805674463,52.5309179643072,7.56740844589182,5.87111498135418,-3.76686991223538,59.3329033396352,54.0887895165576,84.5810488037927,22.729648241206,0,0,-22.9054153442383,25.470947265625,0.637693730978718,0.0442859306261411,1.87240193466427,-0.531868159770966,-0.978991530270833,-29.610251083374,50.5831489562988,13.8093754338068,0.637260980908802,7.14111789293543,2.41318678855896,1.71262881714323,5.84361474036851,12.9306867671692,-2.23791624790621,4.85601257315381,-4.70743429079553,-43.7106023946895,-10.9389547738693,7.55394304857622,-2.83250921273033,-5.95587402030729,3.39183985772484,-10.5794321401245,-2.63269708280388,9.07620331110866,-1.66284491085327,-3.88612556936753,0.496273020044643,2.23576721729745,1147.4757118928,0.0404522182504136,0.142456537440195
41.62,-35.9308432006836,-70.6729125976562,-66.6759092961122,-0.125329574299506,-1.66683134600083,-1.75384616851807,-1.7796724789722,-96.5202388763428,-9.68613529205322,-33.9380656109007,0.0113334964625751,0.86573635025331,3.327472448349,2.70724880328221,2.74097962932944,11.7059247852164,-0.741586967093523,3.49231288528131,7.82175646585511,106.899928422145,-8.64967471767439,0.953871508078015,-0.0989890311773989,32.9782111139796,26.3463761126087,67.826892994109,8.72569657789158,8.1621806389278,-1.79007270884049,67.3917860197159,66.5340528677276,89.1815930735114,22.0497649538013,0,0,-22.9054153442383,25.470947265625,6.26870643070132,0.0465294626112166,1.97514227723878,-0.531868159770966,-0.952284864092784,-29.610251083374,50.5831489562988,22.9503164324157,0.602374854991339,7.38708625557819,2.41318678855896,1.74418426997763,5.93653212298049,12.6474020640838,-2.14046631004486,7.09151358811845,-1.4982732593006,-53.9424261890896,-11.2381034203274,7.37943967147567,-2.72146160912089,-7.12818306319864,-0.290161813981622,0.858275180495607,-2.53174038151581,9.13210941931414,-1.75294604298618,-5.38526816622406,0.218654012371837,3.75077385046226,1132.74490733236,0.0401608391081732,0.142532773594896
41.625,-35.9308432006836,-70.6729125976562,-67.0800554100788,-0.122440485726266,-1.77397475355043,-1.75384616851807,-1.77786273384839,-96.5202388763428,-9.68613529205322,-26.8755809812189,0.0187589130448518,0.708630561086203,3.327472448349,2.71460087576913,2.68205360134002,11.488351758794,-0.993155778894466,4.46881733771739,11.8313005355998,106.692875902144,-9.15507872696818,0.582184254606359,-0.067259631490797,34.2317182620924,21.220427239076,83.1235974109229,9.88403994274299,10.453355545734,0.186818757927797,75.4510529867968,78.9799096700135,93.7823567197151,21.3698492462312,0,0,-22.9054153442383,25.470947265625,11.8999876446912,0.0487731015788864,2.07788751897608,-0.531868159770966,-0.918399095192922,-29.610251083374,50.5831489562988,32.0916933158654,0.567487065532514,7.63306634719727,2.41318678855896,1.78619258704098,6.0294539363484,12.3641038525963,-2.04301172529314,9.3271212027214,1.7110408007114,-64.1747378869657,-11.5372663316583,7.20492797319934,-2.61040871021777,-8.30054800752735,-3.97233906156294,12.2965279070248,-2.43077886611772,9.18801819339669,-1.84305147158241,-6.8844822495427,-0.058978233535086,5.26585272656413,1118.01340033501,0.0398694460715481,0.14260901338491
41.63,-36.3180716252126,-69.2201745857181,-67.3941888518192,-0.120609454467288,-1.93003428769462,-1.72047124308859,-1.74390126959671,-96.5091755105052,-6.05429110699742,-20.3297434906502,0.0217940292738275,0.567697558778481,3.15948532368728,2.56031510357316,2.72592795987771,11.2523116621895,-1.06166483611004,4.99218848149406,15.1668881141901,106.017817581153,-9.39583241805503,0.310399370112077,-0.0664510579735184,34.351150914486,20.3865406956181,93.8378937146642,10.2404536589998,11.0137971417097,1.41705001282833,78.089921357426,86.3479324909423,107.224956828302,20.1141738014265,0,0,-22.5790366386584,31.5542865441159,17.6741454919201,0.0503793364181319,2.14106985360107,-0.3905809603673,-0.736714621507302,-29.1511081258473,54.8505654784985,40.14888117439,0.538890497436964,7.83211440726906,2.74582354533945,2.17064839526583,5.97496632216913,12.108762720163,-1.96848707803465,11.1775051792254,4.41448229228494,-72.1498130479724,-11.7645387658961,7.24793579377788,-2.52975254403261,-9.19605171563427,-9.49205427334905,20.3792222266332,-2.37585949897766,9.218430519104,-1.89206552505493,-7.69999980926514,-0.21000000834465,6.09000015258789,1110,0.0397109389305115,0.142650485038757
41.635,-37.167277368099,-66.0342683234188,-67.6009762273341,-0.1200404212016,-2.14446370908394,-1.64727884152976,-1.67178350382628,-96.4849131547229,1.91047269609682,-14.3995459379162,0.019592137104369,0.446042839382981,2.79108356917451,2.2112475785715,2.89244068334898,10.9942169408091,-0.911803384985894,4.97505754286533,17.6988408435166,104.784389999884,-9.32090169249297,0.157762706930081,-0.102528814725625,33.1177233332173,24.6727015405265,99.0868133105074,9.64025783667542,9.50965177037802,1.75669573330113,74.2629036755665,87.6592197648148,131.216664221526,18.1715253609284,0,0,-21.8632764992231,44.895266503178,23.6193491186989,0.0512253600200851,2.15706297333508,-0.0807330940184909,-0.380785196562328,-28.1441912477495,64.2091620803569,46.9135487768771,0.51779593255632,7.97519660225338,3.4753078142091,2.96091455954479,5.74462372136722,11.8867457555347,-1.92130847305112,12.5685373958784,6.51473536816735,-77.432994521073,-11.9060745808466,7.55043390808401,-2.48534915110694,-9.76137269038238,-17.2044028440037,24.4598118079969,-2.37585949897766,9.218430519104,-1.89206552505493,-7.69999980926514,-0.21000000834465,6.09000015258789,1110,0.0397109389305115,0.142650485038757
41.64,-38.0164426186268,-62.8485139734914,-67.8077537426841,-0.119471415068912,-2.35888290591568,-1.57408992997673,-1.60169545550236,-96.4606519558334,9.8748567183498,-8.46963115256498,0.0173903499269079,0.324393920803777,2.42269938102426,1.86693230540065,3.05894546705659,10.7361345260623,-0.761949079649044,4.95792742108472,20.2306728426919,103.55102123168,-9.24597453982455,0.00513332186477351,-0.138604851195604,31.8843545650128,28.9586580100371,104.335482624089,9.04009063326306,8.00557812064522,2.09632525857459,70.4360684759539,88.9704445130686,155.207227627177,16.2289695510064,0,0,-21.1475504891097,58.235610329303,29.5642692625659,0.0520713432814125,2.17305533047517,0.22909999797087,-0.0201528720814543,-27.1373223820911,73.5673124397681,53.6778938222593,0.496702373519892,8.11827197470313,4.20475729935431,3.75907407010704,5.51429210390503,11.6647393772579,-1.8741321176673,13.9595032844646,8.61488829847109,-82.7159240782155,-12.0476036469981,7.85291759848615,-2.44094787545157,-10.3266667091428,-24.9163836696379,28.5402068161401,-2.37585949897766,9.218430519104,-1.89206552505493,-7.69999980926514,-0.21000000834465,6.09000015258789,1110,0.0397109389305115,0.142650485038757
41.645,-38.8656483615132,-59.6626077111921,-68.0145411181989,-0.118902381803224,-2.573312327305,-1.5008975284179,-1.53390498827333,-96.4363896000511,17.839620521444,-2.53943359983095,0.0151884577574494,0.202739201408277,2.05429762651149,1.52627848110654,3.22545819052786,10.4780398046818,-0.6120876285249,4.94079648245599,22.7626255720183,102.317593650411,-9.17104381426249,-0.147503341317222,-0.17468260794771,30.6509269837442,33.2448188549456,109.584402219932,8.4398948109387,6.50143274931356,2.43597097904739,66.6090507940944,90.2817317869411,179.1989350204,14.2863211105083,0,0,-20.4317903496743,71.5765902883651,35.5094728893448,0.0529173668833657,2.18904845020918,0.53894786431968,0.344131409676558,-26.1304055039932,82.9259090416265,60.4425614247463,0.475607808639248,8.26135416968745,4.93424156822396,4.5639997978527,5.28394950310312,11.4427224126295,-1.82695351268377,15.3505355011175,10.7151413743535,-87.9991055513161,-12.1891394619487,8.15541571279227,-2.39654448252589,-10.8919876838909,-32.6287322402925,32.6207963975038,-2.37585949897766,9.218430519104,-1.89206552505493,-7.69999980926514,-0.21000000834465,6.09000015258789,1110,0.0397109389305115,0.142650485038757
41.65,-39.5111391539707,-57.5347285009343,-66.8036858672031,-0.115109696689531,-2.67448294164341,-1.47791859652412,-1.51880174542217,-96.1196073021243,26.8076174084132,3.01413428466332,0.0133656032953593,0.126344120326881,1.72772708405753,1.22995185379454,3.58282316442606,10.0332161323681,-0.453634953464303,3.59145633051183,24.859269472851,99.6162306739694,-8.51053257497417,-0.359524301964854,-0.394948293691839,27.2961303254306,42.2399236534018,118.781327000906,7.96615996701025,6.50337717796925,3.50678428733238,62.2510458917628,82.6363202403719,190.169205366764,12.8443640124095,0,0,-19.6645197346637,72.7137186036608,41.4474826163383,0.0519845830190283,2.04233676855234,0.883302860601488,0.745395727632056,-25.1434113993874,87.7877123023016,65.6561951890033,0.453091795008293,8.20468564844804,5.40749788999311,5.11810062785471,4.93797828335056,11.4516028955533,-1.44557394002067,16.1462139492129,9.63222132853296,-95.3121145964993,-11.2092192347466,8.89338159255428,-2.17967425025853,-12.4448210706397,-50.9030857814036,31.6813742387682,-2.51978355652297,9.29648170747333,-1.80515752755868,-8.75971801870242,-0.695367107978775,8.20134715481653,1095.43898655636,0.0379411775614939,0.142404733878688
41.655,-40.1214488826148,-55.5896364125249,-65.3476883223708,-0.110759511545228,-2.75607962969658,-1.46361901898172,-1.51491591088219,-95.7522379838693,35.9495495000324,8.50290302281282,0.0116081729215811,0.0577690139069959,1.40836983611875,0.942059763266867,3.97320165460186,9.55608686659773,-0.293688210961725,2.01173541690604,26.8807767436516,96.6609476936433,-7.74875232678389,-0.581823164426073,-0.647067735263712,23.5744149526983,52.0495889029326,128.661276443627,7.51426053412081,6.76568656838051,4.70405787678268,57.8010029858862,73.4420942941644,198.889011974788,11.4888831437435,0,0,-18.8883013483657,71.741173076531,47.3845808033705,0.0507442361422653,1.86748933450284,1.2336425265488,1.15390325371261,-24.1598062376652,91.8724055845464,70.6019860024659,0.430328789537245,8.11348210861978,5.83648534553374,5.63191054225445,4.57199844881074,11.5004002068252,-1.0063981385729,16.8390152820866,7.99895055344901,-102.976438520561,-10.0353728024819,9.70667011375387,-1.93297673216133,-14.1684572369681,-71.0043650337687,29.8740664138803,-2.68859649471315,9.3880303384846,-1.70322047367214,-10.0026939856106,-1.26466905504403,10.6778107639183,1078.35992761117,0.0358653702107648,0.142116484811073
41.66,-40.7317295100894,-53.6446370712111,-63.8917602033227,-0.106409533829171,-2.83767242700552,-1.44932012328071,-1.5135242271185,-95.3848861827476,45.091045680337,13.9914100420639,0.00985082634669534,-0.0108028226718427,1.08902781597168,0.654078408603824,4.36356153050672,9.0789803516029,-0.133749095139601,0.432089828539311,28.9021876236802,93.7058056289658,-6.9870084022751,-0.804111427094116,-0.899175155118937,19.8528770411225,61.8587864018793,138.540754784429,7.06238264898233,7.02798345119162,5.90127437708605,53.3511722697344,64.2483067527799,207.608402799549,10.1334669079628,0,0,-18.1121199741975,70.7686739229244,53.3213958939795,0.0495039484084967,1.69265023763788,1.58396548738139,1.56242421252244,-23.1762479768185,95.9569040978953,75.5475409876424,0.407566869466039,8.02228291761565,6.26545234582663,6.14819471668323,4.20603606514993,11.5491951913133,-0.567243278179928,17.5317835803746,6.36575765700206,-110.640396989544,-8.86158234229575,10.5199198552223,-1.68629097724924,-15.8920112158004,-91.1046858043842,28.0668447661726,-2.85740138345938,9.47957460421688,-1.60128828041186,-11.2456106841626,-1.83394385629835,13.1541562887357,1061.28168304033,0.0337896618399781,0.14182824948793
41.665,-41.3739954394215,-51.6112425473501,-62.2991981552929,-0.10153783983028,-2.89481041041251,-1.49006637914001,-1.56952258732571,-94.8634307834337,54.9444470677736,19.893556552545,0.00853020562708846,-0.0682802643264803,0.782450248389769,0.377425368576284,4.64098643867924,8.61194811320755,0.0206586084905657,-0.944898672257187,30.365052847659,90.096369089215,-6.29410023584908,-0.998506485849065,-1.12782311320756,16.6157189028652,69.18907596669,149.751484247612,6.56720831879186,7.16748570591774,6.92194679553779,48.1626322050702,54.4943430063016,215.920772692842,9.12152122641509,0,0,-17.3231512877176,68.4731837990149,58.577197739743,0.0482575550582123,1.50780616537301,1.90078219542245,1.93626362627065,-22.095222000621,98.3262810603628,80.116518655699,0.383164148356026,7.89828037931207,6.70465599298477,6.67570973714117,3.74931367924526,11.4227057783019,-0.250228773584895,18.0936080538085,5.60260525856045,-117.065885598649,-7.46885318396226,11.205670990566,-1.44961969339624,-18.0254542278127,-108.838741847193,26.7485892732355,-2.96693751875241,9.53895679414272,-1.51439821850157,-12.1758332913777,-2.23911256311848,15.3412556448073,1045.4202240566,0.0291239142969233,0.140886930309078
41.67,-42.1794100998932,-49.1270300291619,-60.00942164072,-0.0940036419644587,-2.82707727202031,-1.81184284762392,-1.90865316213812,-93.5553065039077,68.4301736490232,27.9061560450873,0.00943966668483338,-0.0690998465959249,0.541117878600709,0.163292224500636,4.34173974056604,8.19646509433963,0.146787382075469,-1.28686000465876,28.9758349347775,83.1472262986257,-5.95281061320757,-1.05044186320755,-1.23664009433964,15.8524123573259,63.861196278826,167.756359043792,5.85109894523362,6.6800101619509,7.04100211477505,39.2037792805343,41.8827018789357,222.153020994798,9.86345518867924,0,0,-16.4690874005714,59.4235512024052,60.3547189634306,0.0469802921282635,1.27192539896467,2.04645127237124,2.13663407687952,-20.5168251879014,91.938306552689,82.7617198664095,0.350390046413248,7.60682630206767,7.19601723909378,7.25490035219009,2.82931556603772,10.4013100235849,-0.556894811320746,17.986745137433,9.28174280805964,-117.16664206266,-4.95864327830189,11.2402945754717,-1.26413620283021,-22.251119263918,-114.487210284184,27.9271345795481,-2.77384271011319,9.43411689460278,-1.50432885478268,-11.5093293574171,-1.80631776653863,16.0510388712163,1035.77508254717,0.0112355230412587,0.136611436300314
41.675,-42.9847863560803,-46.6429359647463,-57.7197543087008,-0.0864698033489646,-2.75934736332192,-2.13360397296132,-2.24954681737476,-92.2472445991804,81.9152571954367,35.9183734758571,0.0103490843770882,-0.0699193897855359,0.299797016172406,-0.0547511130060814,4.04250731132076,7.78100188679246,0.272910141509429,-1.62880503144655,27.5866832634521,76.1984148614023,-5.61153726415097,-1.10237476415094,-1.34545188679247,15.089142208246,58.5335706382483,185.760375320289,5.1350237176497,6.19255786209736,7.16005175714223,30.245353537618,29.2716621077173,228.384972126799,10.6053537735849,0,0,-15.6150642374327,50.374350116028,62.1321554302413,0.0457030901015634,1.03605587997033,2.19211340343615,2.33362387548982,-18.9385036372843,85.5506366404047,85.4067949469841,0.317617507225665,7.31538612211859,7.68735505580902,7.83217426477601,1.90936132075471,9.37996297169809,-0.863546226415088,17.8798873165618,12.9607049266247,-117.267393722339,-2.44855306603774,11.2749165094339,-1.07866155660379,-26.4765828092243,-120.135409387375,29.1056236897275,-2.58075710874121,9.32928199410438,-1.49425997119748,-10.8428572041134,-1.37354360675053,16.7607882532983,1026.1304009434,-0.00665201524896371,0.132336146158324
41.68,-43.790201016552,-44.1587234465581,-55.4299777941279,-0.0789356054831432,-2.69161422492972,-2.45538044144522,-2.59184653279225,-90.9391203196544,95.4009837766863,43.9309729683994,0.0112585454348332,-0.0707389720549804,0.0584646463833469,-0.277780934902629,3.74326061320756,7.36551886792453,0.399038915094332,-1.97076636384812,26.1974653505707,69.2492720708129,-5.27024764150946,-1.15431014150943,-1.45426886792454,14.3258356627067,53.2056909503844,203.765250116469,4.41891434409146,5.70508231813053,7.27910707637949,21.2865006130821,16.6600209803514,234.617220428755,11.3472877358491,0,0,-14.7610003502864,41.3247175194183,63.909676653929,0.0444258271716147,0.800175113561984,2.33778248038494,2.52631882492891,-17.3601068245648,79.162662132731,88.0519961576946,0.284843405282888,7.02393204487419,8.17871630191803,8.40626984035389,0.98936320754717,8.35856721698111,-1.17021226415094,17.7730244001863,16.6398424761239,-117.36815018635,0.0616568396226278,11.3095400943396,-0.893178066037754,-30.7022478453296,-125.783877824365,30.2841689960401,-2.38766230010199,9.22444209456444,-1.4841906074786,-10.1763532701528,-0.940748810170675,17.4705714797074,1016.48525943396,-0.0245404065046284,0.12806065214956
41.685,-44.5400192625316,-41.4452630622128,-53.0540054531698,-0.0709300677492691,-2.61678885939695,-2.75252515160348,-2.91047173868513,-89.6435484366813,108.045480799463,52.3149076077193,0.0120039057656329,-0.0667077644056714,-0.160034169203508,-0.483814053332896,3.49823704850625,6.99072150163718,0.493362692590798,-2.27515991848723,24.7955846421846,62.7953143640379,-4.94440414244742,-1.21215803233748,-1.53528238190726,13.6223261657136,47.9674965850944,220.658792406641,3.78892111778259,5.27622842788696,7.38384532928467,13.4049997329712,5.56500005722046,240.100006103516,12,0,0,-13.9879637898517,32.6058053412976,64.8658919193408,0.043862804270273,0.574660161888809,2.44202582099418,2.6725080299053,-15.9162756264324,72.0736923635098,89.9557927552152,0.252221746347723,6.72076446966447,8.6064882466529,8.9124018835677,0.20591580577202,7.46031994821939,-1.43264119095362,17.7003422269728,19.7390839748718,-117.046782405253,2.43349354011725,11.3473588090463,-0.698645074498076,-34.3869682688755,-129.393898983973,30.7510058264135,-2.21610239609506,9.1342021006571,-1.46682640689943,-9.55192629739131,-0.592474748103405,17.7624131551469,1006.04831586161,-0.0407895541474944,0.124117507734063
41.69,-44.883251221666,-37.0529702340031,-50.0462643818871,-0.0594718421521241,-2.49002917569319,-2.86951960535628,-3.04944372257983,-88.4393276622048,114.538434443893,63.4197932159749,0.011548586583617,-0.0271743333495191,-0.21151173282087,-0.529289418616301,3.64994961545297,6.91353440617305,0.354958245551688,-2.30473351828193,23.3004748747868,59.9628206948138,-4.7314742239257,-1.31329974363529,-1.41284767875727,13.3561637675614,43.3835886169186,229.425721767998,3.78892111778259,5.27622842788696,7.38384532928467,13.4049997329712,5.56500005722046,240.100006103516,12,0,0,-13.8076210577663,26.3038201004817,59.8117387932715,0.0485267411090734,0.4249182236675,2.24313524961441,2.50987440082605,-15.4566934397782,59.8516597044354,86.4343567796474,0.220702805314788,6.33175111697144,8.56905002145201,8.94794010679283,0.421507348275257,7.46298157220092,-1.37142383937863,17.8777838257409,18.5955714494774,-113.635960562266,3.79358339467471,11.4085761606213,-0.43780592430897,-34.1142339596579,-118.086925995807,26.009371992666,-2.20207816466319,9.15077607697102,-1.39606787697762,-9.2351929014442,-0.862629594284862,14.9956551583481,989.812409574333,-0.0450483029373296,0.122605107805419
41.695,-45.2264668145998,-32.6608868418428,-47.0386667275923,-0.0480141629132471,-2.36327553622382,-2.98650848050648,-3.18843877157217,-87.2351643081353,121.031078487253,74.5241493141405,0.0110932891124148,0.0123572126488869,-0.262986841852899,-0.581580330035094,3.80165494834633,6.83635099119221,0.216560397999849,-2.33430570792976,21.8054363981465,57.1304620863217,-4.51855445846132,-1.41443663223087,-1.29041881361524,13.090014060731,38.7998992215049,238.192233099155,3.78892111778259,5.27622842788696,7.38384532928467,13.4049997329712,5.56500005722046,240.100006103516,12,0,0,-13.6272869248957,20.0021353548613,54.7578266624877,0.0531904555591251,0.275183425534796,2.04425416185907,2.34113416081858,-14.9971331672088,47.6302098239543,82.9130887153887,0.189185367187682,5.94275631345601,8.53161358140394,8.97726955191163,0.637088610807938,7.46564306926924,-1.31020940680761,18.0552169636279,17.4521134497613,-110.225301356217,5.15360839657841,11.4697905931924,-0.176979211615105,-33.8415126551279,-106.780492153786,21.2679642524639,-2.18805460194348,9.16734926299425,-1.32531272100822,-8.91847460817667,-1.13277155877424,12.2290290878319,973.577277457674,-0.0493068486588455,0.121092779991973
41.7,-45.5696987737342,-28.2685940136331,-44.0309256563095,-0.0365559373161022,-2.23651585252006,-3.10350293425929,-3.32700865405131,-86.0309435336587,127.524032131683,85.6290349223961,0.0106379699303989,0.0518906437050392,-0.314464405470261,-0.640746370408697,3.95336751529306,6.75916389572808,0.078155950960739,-2.36387930772445,20.3103266307487,54.2979684170976,-4.30562453993961,-1.51557834352868,-1.16798411046525,12.8238516625788,34.2159912533291,246.959162460512,3.78892111778259,5.27622842788696,7.38384532928467,13.4049997329712,5.56500005722046,240.100006103516,12,0,0,-13.4469441928104,13.7001501140454,49.7036735364184,0.0578543923979256,0.125441487313488,1.8453635904793,2.16602795517762,-14.5375509805546,35.4081771648798,79.3916527398209,0.157666426154747,5.55374296076298,8.49417535620304,8.99975330832249,0.852680153311175,7.46830469325077,-1.24899205523261,18.232658562396,16.3086009243669,-106.81447951323,6.51369825113587,11.5310079447674,0.0838599385740001,-33.5687783459103,-95.4735191656192,16.5263304187165,-2.17403037051161,9.18392323930817,-1.25455419108641,-8.60174121222956,-1.4029264049557,9.46227109103311,957.341371170394,-0.0535655974486806,0.119580380063329
41.705,-45.8244939125949,-22.95618989329,-40.5617499448881,-0.0246348374587375,-2.11093333610483,-3.15063295719286,-3.39484802590212,-84.7893834519046,133.964877193667,96.2704932638609,0.00499508943038391,0.085494799546553,-0.34639685165052,-0.686978425747023,4.14346479953962,6.64963731696398,-0.0187623249568327,-2.77575860917509,18.5166491810992,50.0045576151423,-4.25664965790653,-1.58876232495683,-1.06371302512946,12.1747369468068,30.8551751359177,253.856957637562,3.59445140004135,5.31540218331075,7.4227859410295,9.90542444123874,0.641060385151253,240.2567544205,11.026408338129,0,0,-13.3405879010385,7.93977595388497,43.6333203839116,0.0620459687849066,0.0336202328942595,1.62196409779213,1.96000039712845,-14.2299268808065,24.4799741108968,73.674342351479,0.130919903699362,5.18287556382779,8.31883417479911,8.87705284983159,1.03965317475543,7.40963731696403,-1.30054402455398,18.6629977762147,15.7268866453682,-101.109400130569,7.62437150712961,11.4259084340431,0.290890849798582,-31.6822615825109,-79.8758793109028,10.9556030784072,-2.19051401879646,9.21523279376298,-1.2167134217986,-8.37614663395631,-1.56477733337709,6.85151469590711,940.866372530213,-0.0569390443393135,0.118413147225379
41.71,-45.9241486009005,-16.0286328707485,-36.2824713701165,-0.0118999985408354,-1.98739981721014,-3.07518292799715,-3.33884241994711,-83.4821436083357,140.315136993699,106.100205910928,-0.0097507842347871,0.108699683857619,-0.344039038238154,-0.704950128789102,4.4009380395166,6.48335251614551,-0.0429004412046831,-3.85849715691778,16.1988602409772,43.1472134794385,-4.49534880746852,-1.61290044120468,-0.99129867638594,10.8535972509372,29.6399915058823,257.476019511209,3.05873369079804,5.42331654016712,7.53005804263369,0.264928839214164,-12.9232195048573,240.688558663742,8.34439542170215,0,0,-13.364036484272,3.12897232324466,35.7791145706528,0.065409277821432,0.0434163005522381,1.35553116620871,1.70464614037144,-14.188892627478,15.820528138453,64.1033333270905,0.112543697917621,4.84379889454483,7.90150126475448,8.50483211767812,1.1764358334932,7.24335251614556,-1.54997122578168,19.5371353193465,16.1308441463609,-91.3779977091144,8.29755674915275,11.0289705224119,0.403535392288515,-26.963905525834,-56.7476568155426,3.92939146278022,-2.26052988051941,9.27240195183797,-1.23662618013193,-8.31043734819705,-1.53661619263908,4.51414049423307,923.969691156724,-0.0587595568646959,0.117851401680826
41.715,-46.0237985374089,-9.10140617230686,-32.0033968425781,0.000834233146525204,-1.86387218871783,-2.99973649645684,-3.28122269902559,-82.1749660973933,146.665093996677,115.929449851499,-0.0244959547780019,0.131903461698901,-0.341681337252519,-0.728061457836739,4.65839900249376,6.31707564422275,-0.0670374064838016,-4.94118407684493,13.8811818191148,36.2901963198998,-4.7340365752286,-1.63703740648379,-0.918887780548615,9.53252055047567,28.4248658189916,261.094908818489,2.52304152598108,5.53122575138374,7.63732502922255,-9.37510707867909,-26.486852614402,241.120342317424,5.66251039068994,0,0,-13.3874839494155,-1.68160191565281,27.9252832665401,0.0687724264865558,0.0532119011080014,1.08911093884672,1.44329010429214,-14.1478603307703,7.1614950711194,54.5327806735309,0.0941683683615996,4.50473839332735,7.48418825423827,8.12503213353965,1.31321197007482,7.0770756442228,-1.79938653366582,20.411231181306,16.5347823855998,-81.6470593064663,8.97070989193682,10.6320515378221,0.516174563591033,-22.245774452757,-33.6205371345299,-3.09648512463695,-2.33054240370233,9.32956838393747,-1.25653798897268,-8.24473119562899,-1.50845639469816,2.17687774469529,907.073815461347,-0.0605799825832632,0.117289682921775
41.72,-46.1234532257144,-2.17384914976533,-27.7241182678065,0.0135690720644273,-1.74033866982314,-2.92428646726112,-3.22168162218227,-80.8677262538244,153.015353796709,125.759162498566,-0.0392418284431729,0.155108346009967,-0.339323523840153,-0.755137505006629,4.91587224247074,6.15079084340428,-0.0911755227316521,-6.02392262458762,11.5633928789928,29.432852184196,-4.97273572479059,-1.66117552273165,-0.846473431805094,8.21138085460614,27.2096821889562,264.713970692136,1.98732381673777,5.63914010824012,7.74459713082674,-19.0156026807037,-40.0511325044106,241.552146560666,2.98049747426306,0,0,-13.410932532649,-6.49240554629312,20.0710774532812,0.0721357355230813,0.06300796876598,0.822678007263305,1.17632459784861,-14.1068260774418,-1.49795090132445,44.9617716491424,0.0757921625798588,4.16566172404439,7.06685534419363,7.73769959008174,1.44999462881258,6.91079084340433,-2.04881373489352,21.2853687244377,16.9387398865925,-71.9156568850113,9.64389513395996,10.2351136261909,0.628819106080966,-17.5274183960801,-10.4923146391697,-10.1226967402639,-2.40055826542528,9.38673754201245,-1.27645074730601,-8.17902190986973,-1.48029525396014,-0.160496456978746,890.177134087857,-0.0624004951086455,0.116727937377222
41.725,-46.1598852539063,0.358745723962784,-23.0866344653095,0.0262741715737866,-1.64585803641031,-2.89670324325562,-3.20784624740433,-80.3898220062256,155.336898803711,133.204749336109,-0.0540109095484047,0.162988765273353,-0.338461548089981,-0.786254094590714,5.10181982732801,6.02936426497205,-0.18489002903912,-6.99937510379433,11.3790856387534,21.2173976441075,-5.21765291107263,-1.61802651283321,-0.605176253043889,4.76825900251647,29.2400545124274,268.013312845355,0.566615908347989,4.84127289945884,6.79048330102395,-38.6205977920648,-42.8331756719462,230.741001824353,2,0,0,-13.4195049285889,-8.25115203857422,13.5136319685338,0.0741841378708967,0.124153642632388,0.725274741649628,1.07332407064802,-14.0918246650696,-4.66369438171387,35.4294989021592,0.0583013090540008,3.85162345624649,6.91428565979004,7.60783700066846,1.56063573502794,6.84133775213889,-2.10015365983878,21.7567949625038,17.6446535041372,-61.8709635153538,9.69769809748283,10.0207020171109,0.597237117966494,-15.0025479752929,5.58574108076019,-14.2612567728572,-2.42615485191345,9.40763759613037,-1.28373050689697,-8.15499973297119,-1.47000002861023,-1.01499998569489,884,-0.0630660429596901,0.116522572934628
41.73,-46.1598852539063,0.358745723962784,-18.2423709751417,0.0389630874582368,-1.56811327133452,-2.89670324325562,-3.21924789257955,-80.3898220062256,155.336898803711,139.276941180056,-0.0687944750586312,0.162038397322268,-0.338461548089981,-0.81916336092126,5.24656166577683,5.93378003203416,-0.318707955152164,-7.91307270965572,12.4242747819897,12.2186562786314,-5.46617191671117,-1.53609717031501,-0.266534970635333,0.101995214648718,33.1409701212157,271.128650807775,-1.36421230707459,3.52135028396134,5.22462863764277,-63.9695362838525,-39.4017020845184,213.449813419145,2,0,0,-13.4195049285889,-8.25115203857422,7.70300728904898,0.0754749228720501,0.214896323148968,0.725274741649628,1.06328139454511,-14.0918246650696,-4.66369438171387,25.9188330979089,0.0413193629914867,3.55199103525541,6.91428565979004,7.62357601029616,1.65621996796584,6.82768286171919,-2.03734116390817,21.9961769920837,18.5246353311846,-51.6449678010454,9.39455953016549,9.91146289375332,0.482536038441013,-13.7415778476465,17.6020446500959,-16.7359949378102,-2.42615485191345,9.40763759613037,-1.28373050689697,-8.15499973297119,-1.47000002861023,-1.01499998569489,884,-0.0630660429596901,0.116522572934628
41.735,-46.1598852539063,0.358745723962784,-13.3983384721705,0.0516513983018763,-1.49037221333316,-2.89670324325562,-3.22817600084637,-80.3898220062256,155.336898803711,145.34884348596,-0.0835773356496554,0.161088074687222,-0.338461548089981,-0.851257619250994,5.39129660255493,5.83820035680335,-0.452519500475292,-8.8267267480173,13.4694140878645,3.22034399676024,-5.7146790723113,-1.45417173440288,0.0720901644681289,-4.56404607351525,37.04169972411,274.243840222706,-3.29494845554049,2.20149060583822,3.65884863832144,-89.3172660717259,-35.970392118757,196.159449503179,2,0,0,-13.4195049285889,-8.25115203857422,1.89265967539855,0.0767656463251869,0.305634676816392,0.725274741649628,1.04947134128291,-14.0918246650696,-4.66369438171387,16.4086207871644,0.0243382266727292,3.25237290152454,6.91428565979004,7.63274966108981,1.75179964319666,6.81402862240049,-1.97453166304222,22.2355476073002,19.4045751983889,-41.4194596890502,9.09143541729062,9.80222897920383,0.36784042816403,-12.4806678463652,29.6177752505413,-19.2106151007526,-2.42615485191345,9.40763759613037,-1.28373050689697,-8.15499973297119,-1.47000002861023,-1.01499998569489,884,-0.0630660429596901,0.116522572934628
41.74,-46.1598852539063,0.358745723962784,-8.55407498200268,0.0643403141863266,-1.41262744825737,-2.89670324325562,-3.23455895027373,-80.3898220062256,155.336898803711,151.421035329908,-0.098360901159882,0.160137706736138,-0.338461548089981,-0.88072935485601,5.53603844100376,5.74261612386547,-0.586337426588336,-9.74042435387869,14.5146032311008,-5.77839736871595,-5.96319807794984,-1.37224239188468,0.410731446876684,-9.23030986138301,40.9426153328983,277.359178185126,-5.22577667096307,0.881567990340718,2.09299397494025,-114.666204563514,-32.5389185313292,178.868261097971,2,0,0,-13.4195049285889,-8.25115203857422,-3.91796500408631,0.0780564313263403,0.396377357332972,0.725274741649628,1.03260229377501,-14.0918246650696,-4.66369438171387,6.89795498291415,0.00735628061021507,2.95274048053346,6.91428565979004,7.63581043508839,1.84738387613457,6.80037373198079,-1.91171916711161,22.4749296368801,20.2845570254362,-31.1934639747418,8.78829684997328,9.69298985584623,0.253139348638548,-11.2196977187189,41.634078819877,-21.6853532657056,-2.42615485191345,9.40763759613037,-1.28373050689697,-8.15499973297119,-1.47000002861023,-1.01499998569489,884,-0.0630660429596901,0.116522572934628
41.745,-46.0953428233493,3.53681877911222,-5.37106676935982,0.0822866541523013,-1.39108339992392,-2.73445333220728,-3.07612771272072,-78.6633129275428,160.986807774121,154.436785693636,-0.111245421797408,0.144748108614357,-0.288704905034963,-0.856026789612232,4.88542973651193,5.61203889585949,-0.821314303638619,-10.6555698839785,10.5451848753814,-13.7321301330607,-5.71407779171897,-1.10177383939774,0.57749058971143,-16.8315364716452,43.8534686401165,280.032831451276,-5.74363150463499,0.218358491247092,1.33818491653935,-119.080714590726,-14.3323515954251,151.816005942513,2,0,0,-13.5539686384883,-10.8995460470767,-6.41579569354327,0.0748970107303758,0.469027371080794,0.578168144631883,0.866279119685938,-14.349994269958,-13.668235043211,1.19641732590282,-0.00291768010788794,2.67260944263401,6.578969118287,7.29791815154542,1.94351003764118,6.81476474278546,-1.7943428481807,22.1108439053859,18.7471033350373,-24.3393202905959,7.97778230865744,9.7564413425345,-0.10435382685069,-11.4981005158232,50.016735210744,-26.8934042783896,-2.4308697930543,9.45596533213535,-1.3220391689871,-8.58563806421335,-1.17716595661853,-2.01408087076103,865.297992471769,-0.0647831068139341,0.115999966043011
41.75,-46.0289809145567,6.80448304898494,-2.23465254216026,0.100381825209258,-1.37111986183029,-2.5676295279956,-2.91058772751771,-76.8881328325223,166.795990052272,157.366671388084,-0.124077132353242,0.128951415933764,-0.23754560130648,-0.823795925400263,4.21240686227199,5.48047051442913,-1.05914945468581,-11.5708010273569,6.43445386962743,-21.6568448455211,-5.45094102885824,-0.825986270630237,0.739420905318029,-24.5157296890881,46.7366029245473,282.694186175366,-6.22174868736358,-0.426402700776046,0.606162805640551,-122.906317061502,4.29089966410319,124.487734482217,2,0,0,-13.6922229368661,-13.6225993954276,-8.82052220495509,0.071612200251912,0.541171793775446,0.426914550835926,0.694150851206288,-14.6154417844806,-22.926617489302,-4.39820568587351,-0.0130033724714793,2.39301346689353,6.23419986259246,6.9454140833326,2.03965616253259,6.82994570987358,-1.67542527265709,21.7297579002932,17.1415442644008,-17.5797291838697,7.15294976353631,9.82475569443103,-0.468697036965543,-11.8198370611064,58.2975466820615,-32.1786298572162,-2.43571765036694,9.50565544732369,-1.36142776835731,-9.02841627095015,-0.876076769100278,-3.04132626575084,846.068767493485,-0.0665485754196705,0.115462626643542
