time,hip_angle_l,hip_angle_l_velocity,hip_angle_l_velocity_filt,hip_angle_l_torque_estimated,hip_angle_l_torque_desired,hip_angle_l_torque_measured,hip_angle_l_torque_interaction,knee_angle_l,knee_angle_l_velocity,knee_angle_l_velocity_filt,knee_angle_l_torque_estimated,knee_angle_l_torque_desired,knee_angle_l_torque_measured,knee_angle_l_torque_interaction,thigh_imu_l_accel_x,thigh_imu_l_accel_y,thigh_imu_l_accel_z,thigh_imu_l_gyro_x,thigh_imu_l_gyro_y,thigh_imu_l_gyro_z,shank_imu_l_accel_x,shank_imu_l_accel_y,shank_imu_l_accel_z,shank_imu_l_gyro_x,shank_imu_l_gyro_y,shank_imu_l_gyro_z,foot_imu_l_accel_x,foot_imu_l_accel_y,foot_imu_l_accel_z,foot_imu_l_gyro_x,foot_imu_l_gyro_y,foot_imu_l_gyro_z,insole_l_force_y,insole_l_cop_x,insole_l_cop_z,hip_angle_r,hip_angle_r_velocity,hip_angle_r_velocity_filt,hip_angle_r_torque_estimated,hip_angle_r_torque_desired,hip_angle_r_torque_measured,hip_angle_r_torque_interaction,knee_angle_r,knee_angle_r_velocity,knee_angle_r_velocity_filt,knee_angle_r_torque_estimated,knee_angle_r_torque_desired,knee_angle_r_torque_measured,knee_angle_r_torque_interaction,thigh_imu_r_accel_x,thigh_imu_r_accel_y,thigh_imu_r_accel_z,thigh_imu_r_gyro_x,thigh_imu_r_gyro_y,thigh_imu_r_gyro_z,shank_imu_r_accel_x,shank_imu_r_accel_y,shank_imu_r_accel_z,shank_imu_r_gyro_x,shank_imu_r_gyro_y,shank_imu_r_gyro_z,foot_imu_r_accel_x,foot_imu_r_accel_y,foot_imu_r_accel_z,foot_imu_r_gyro_x,foot_imu_r_gyro_y,foot_imu_r_gyro_z,insole_r_force_y,insole_r_cop_x,insole_r_cop_z
108.345,-39.7838005602738,63.5508535127485,25.4817089780277,0.44577703099104,-0.887412784024801,-3.75520306687774,-3.84229881163056,-40.456541508397,197.426012279511,189.63733061703,-0.225418456392231,0.448617948116874,1.57586773690108,1.50206158630896,7.3590095606263,4.18490095606263,0.559701765537635,-7.19032624193892,32.9399861980539,-50.9050950449284,-6.31508568241077,0.998145990893404,-1.22171377793922,-19.3795892311509,17.9483753085139,310.373013688078,-9.97131791474134,0.4491596859082,-7.75727096738339,-90.0376507849913,63.4176533339634,250.194011724406,0,0,0,-14.6718764469855,35.714005423079,24.4711987036002,0.195338580303253,5.70376121732665,5.92884854229209,5.91565595542792,-33.6419259532862,-20.4708627837411,-24.7779112355867,0.579579393248955,7.01440334312721,7.22362177070148,7.26190192969645,6.51058090209764,8.37186957593369,-2.495679946035,11.5088491486371,26.9105384696816,-46.9521587521683,-3.52634542789316,9.54797462607185,-0.462109953688675,4.93541944831611,39.8973877038402,-86.759417249742,-1.99452200597876,9.18882212789229,-1.10166102939051,-12.3714600656738,-8.24800346818942,-8.82828050665091,1045.8399730175,-0.0186275667118672,0.132665118946084
108.35,-39.1415982036642,73.3107551796304,33.8043615689775,0.457746820136687,-0.499524356819182,-3.45384840665759,-3.57978273851953,-38.3991161318743,197.6212081542,193.674995459458,-0.249455516712629,0.252735521201787,1.53520878355927,1.46229307266355,8.28400080428606,4.27740008042862,-0.12315941728179,-7.13658673613442,33.7124915939934,-62.5598503662769,-6.92177111575232,2.31761879434923,-1.1319352160546,-7.0396552107952,-0.474199025087397,312.821519921295,-12.7288046524141,-0.78949398341978,-6.88936624570649,-92.7799761887198,50.70582555497,236.625206348662,0,0,0,-14.3032040318718,37.8611844332366,26.5858530455244,0.175702301269667,5.67548675838175,5.97189919877164,5.96212287824104,-33.8738318409336,-19.299674562959,-24.1013478285506,0.575525412962906,7.00831564553016,7.13752045774237,7.20401163615043,6.6547707136093,8.27392932660501,-2.54737063318069,12.2309737578849,27.7166310567489,-49.2428051870846,-3.36855280397472,9.65407656284459,-0.0023348943401473,3.36018018442204,40.098910850607,-87.2900948695613,-1.89678503422802,9.27613378935981,-0.685952985871416,-13.3427007884916,-8.87645325608807,-10.228009768391,1071.68531659035,-0.00200093926290538,0.127646198212526
108.355,-38.3669827773272,81.4888854888465,42.3707680234674,0.463787699796159,-0.148167869281566,-3.13683760292136,-3.32026433014057,-36.6778236137093,193.116837284254,194.858182519562,-0.275628287617267,0.0557352067284677,1.45766861606197,1.40198936738683,8.99640506144831,4.31153529789997,-0.311148046149939,-6.93357534321052,31.8837441944514,-73.4465131660832,-7.54486976354835,3.20330704744803,-0.979266623800466,3.46138468651721,-11.4502659817059,307.671092281131,-16.5870325476394,-0.391777820695453,-6.43327389166987,-94.4660651423224,16.5998461147597,184.370535251214,0,0,0,-13.9694062043435,37.6960886803082,28.5778730488113,0.156742837323988,5.6622613584097,5.94692431543641,5.94807180007867,-34.0901725736309,-20.3929361943192,-23.5514582056527,0.589356096147872,7.00008328604025,7.12831471658134,7.24627160555484,6.43814599585087,8.15387251750033,-2.64266963494972,11.3962887025961,28.2719814779617,-50.1134000051224,-3.15889308115058,9.78574023074964,0.463749135598781,3.98405382870019,38.7881222846343,-88.3572927305523,-1.99538626403514,9.40152890560129,-0.528209359464311,-13.6338312625683,-8.48495699153845,-11.7677480387627,1107.9917745399,0.0134986828440034,0.120737471401692
108.36,-37.5495037689426,89.1560788190527,51.016530898935,0.467911895456924,0.191398481171975,-2.81474450662627,-3.03611177041849,-35.0651083324791,187.09261506261,195.118471809138,-0.302493274954324,-0.141638999091027,1.36819831153556,1.34422189043984,9.64011598141386,4.32680116951971,-0.339135477452778,-6.68228527539594,29.2137872239214,-84.0855064121833,-8.17331481189417,3.94879044487849,-0.80625341211012,13.3684956101074,-20.0192572941834,300.063285478044,-20.8014197108142,0.535070463919374,-6.11030897370536,-95.8107349325823,-24.4259124061294,119.603803156158,0,0,0,-13.6468637304442,36.7833270611714,30.5303659282782,0.138001019686537,5.65390111605594,5.89995234489892,5.91644662793289,-34.3014940904999,-22.2184584620149,-23.0424928321586,0.608970514191717,6.99115694788571,7.14397195921234,7.31001781192625,6.1048411321533,8.0266569206692,-2.7520750482245,10.0581690914834,28.7462914809617,-50.5248874911688,-2.93244931879116,9.92567738726389,0.931902531937353,5.3190323139652,36.9882571739124,-89.5980374403868,-2.15747809433524,9.53924591351804,-0.453866498480025,-13.7050719288532,-7.76364466912238,-13.3528542588093,1147.68304075121,0.0286348749168002,0.113217255030262
108.365,-36.7320637401025,96.8229065573587,59.6618815217384,0.472035894465216,0.530948640210752,-2.49266676857533,-2.75251564756379,-33.452469949746,181.068680091691,195.378748687437,-0.329356981298279,-0.33900379359039,1.27873227318807,1.28445605882476,10.2837962075534,4.34206631322262,-0.36712157424144,-6.43100718975128,26.5439575639469,-94.723992363164,-8.80172989433075,4.69423829570407,-0.633248450143772,23.2751341366479,-28.5878400146662,292.455841435152,-25.0156059209485,1.46187455397552,-5.78735945555575,-97.1553406054577,-65.449714711182,54.8401593088645,0,0,0,-13.3243366362166,35.8706089649041,32.4827657077605,0.119260095708138,5.64554127234047,5.85298261410826,5.88542712760059,-34.5128055310043,-24.0438936840178,-22.5335517274692,0.628583996968634,6.98223103536239,7.15962845526492,7.37634237962265,5.77155216130636,7.89944738981159,-2.86147524476204,8.72011328542562,29.220578867616,-50.9363553564119,-2.70601635386463,10.0656078712073,1.40003360549334,6.65394714395244,35.1884778854825,-90.8387229882573,-2.31956219567147,9.67695635472642,-0.37952718235846,-13.7763091981963,-7.04236674077089,-14.9378848968313,1187.37241437878,0.0437703452562347,0.105697397242485
108.37,-35.9145847317178,104.490099887565,68.307644397206,0.476160090125981,0.870514990664294,-2.17057367228024,-2.46796557169576,-31.8397546685158,175.044457870047,195.639037977012,-0.356221968635336,-0.536377999409885,1.18926196866166,1.2226910495181,10.9275071275189,4.35733218484236,-0.395109005544279,-6.1797171219367,23.8740005934169,-105.362985609264,-9.43017494267657,5.43972169313452,-0.460235238453426,33.1822450602381,-37.1568313271436,284.848034632066,-29.2299930841233,2.38872283859035,-5.46439453759124,-98.5000103957176,-106.475473232071,-9.92657278619209,0,0,0,-13.0017941623174,34.9578473457672,34.4352585872274,0.100518278070687,5.63718102998671,5.80601064357077,5.8548838299721,-34.7241270478733,-25.8694159517135,-22.0245863539751,0.648198415012479,6.97330469720784,7.17528569789591,7.4440212926282,5.43824729760879,7.77223179298046,-2.97088065803682,7.38199367431294,29.6948888706161,-51.3478428424583,-2.47957259150521,10.2055450277215,1.86818700183191,7.98892562921745,33.3886127747605,-92.0794676980919,-2.48165402597157,9.81467336264317,-0.305184321374174,-13.8475498644813,-6.32105441835482,-16.5229911168779,1227.0636805901,0.0589065373290315,0.0981771808710542
108.375,-35.7717247009277,105.82999420166,74.7782253781237,0.46856900543276,1.17065475284978,-2.11428570747375,-2.4467683157322,-31.5579216766357,173.991683959961,193.710575577453,-0.358209427171153,-0.735100076854947,1.17362642288208,1.23288047429595,10.8533891838089,4.38691502156603,-0.378467982747156,-7.77064081610919,20.0247540797267,-113.770436522565,-9.59741871267421,6.03652704047777,-0.480241373589916,37.8797706894574,-41.0312607522918,271.930660262397,-29.9664859771729,2.55069589614868,-5.40795421600342,-98.7350006103516,-113.645004272461,-21.2450008392334,0,0,0,-12.9454276657104,34.7983360290527,35.19274754317,0.0794923751264254,5.58529113799021,5.79780197143555,5.86344789653058,-34.7610569238663,-26.1884384155273,-22.1716531295653,0.657634249027735,6.93065920199451,7.1780219078064,7.49879316650314,5.07496308891838,7.80562437790312,-2.84824755308561,5.36488951764195,27.394192328803,-49.9133979699673,-2.17623278865296,10.6929383709356,2.19761819840742,10.492831037463,29.0202066283271,-94.2944320537082,-2.0200694223128,9.63632975731295,-0.652749869743808,-12.3087973360716,-7.70852154079026,-19.8207616598779,1248.89297859987,0.0688886114818865,0.0942401024485137
108.38,-35.7717247009277,105.82999420166,80.7885283593565,0.458496463812345,1.46246224263031,-2.11428570747375,-2.47791250849568,-31.5579216766357,173.991683959961,191.318476092313,-0.354928530477685,-0.934119084358091,1.17362642288208,1.25703304502216,10.6272478433975,4.41953156104844,-0.352374751161223,-9.75179358467072,15.9255396114429,-121.705785552197,-9.66700066357002,6.60188039150631,-0.541125580623752,41.4743012546388,-43.9117172843602,257.888099107457,-29.9664859771729,2.55069589614868,-5.40795421600342,-98.7350006103516,-113.645004272461,-21.2450008392334,0,0,0,-12.9454276657104,34.7983360290527,35.697206804743,0.0579815421837579,5.52417970110567,5.79780197143555,5.88042217904019,-34.7610569238663,-26.1884384155273,-22.4576604398354,0.664915045794016,6.88087032551943,7.1780219078064,7.54942503729513,4.70530897478434,7.87303189283344,-2.67646711181155,3.20387599637904,24.5056823301957,-48.0879455544906,-1.85659070172529,11.2539428500332,2.49769036164564,13.2444321049096,24.1075920396176,-96.7158409930612,-1.42637828247796,9.39104171125954,-1.08968568772112,-10.4289975517344,-9.54265826524253,-23.4814244087121,1266.94079711347,0.0777797426032823,0.0910616200911678
108.385,-35.7717247009277,105.82999420166,86.7985447535695,0.448424402477148,1.75425581826389,-2.11428570747375,-2.50368998742983,-31.5579216766357,173.991683959961,188.926490668754,-0.351647790225982,-1.13312860211264,1.17362642288208,1.27979567968945,10.4011172859987,4.45214654528865,-0.326282763769052,-11.7328518866688,11.8265206044631,-129.64075620356,-9.73657929661581,7.16720678500332,-0.602006884538809,45.0686604231692,-46.7920364687016,243.846207538688,-29.9664859771729,2.55069589614868,-5.40795421600342,-98.7350006103516,-113.645004272461,-21.2450008392334,0,0,0,-12.9454276657104,34.7983360290527,36.2016420123744,0.0364717349340592,5.46307117817482,5.79780197143555,5.89744892605752,-34.7610569238663,-26.1884384155273,-22.7436541125263,0.6721954953928,6.83108382310865,7.1780219078064,7.5971974848933,4.3356724867286,7.94043619359655,-2.50469486147976,1.04296551791229,21.6173100633259,-46.2625801813758,-1.53696385617122,11.8149205789648,2.79774821665559,15.9959019687958,19.1952116972646,-99.1371344732811,-0.832715451394782,9.14576536118391,-1.52660067145192,-8.54928740118423,-11.3767075332422,-27.1419126075392,1284.98775505972,0.0866704497722119,0.0878832892922026
108.39,-35.7717247009277,105.82999420166,92.8088477348023,0.438351860856733,2.04606330804442,-2.11428570747375,-2.52280758993997,-31.5579216766357,173.991683959961,186.534391183613,-0.348366893532514,-1.33214760961578,1.17362642288208,1.30150295613906,10.1749759455873,4.48476308477106,-0.300189532183119,-13.7140046552303,7.7273061361793,-137.576105233192,-9.80616124751163,7.73256013603186,-0.662891091572645,48.6631909883507,-49.6724930007701,229.803646383748,-29.9664859771729,2.55069589614868,-5.40795421600342,-98.7350006103516,-113.645004272461,-21.2450008392334,0,0,0,-12.9454276657104,34.7983360290527,36.7061012739473,0.0149609019913917,5.40195974129028,5.79780197143555,5.91437461154267,-34.7610569238663,-26.1884384155273,-23.0296614227964,0.679476292159081,6.78129494663357,7.1780219078064,7.64066046582278,3.96601837259456,8.00784370852688,-2.3329144202057,-1.11804800335062,18.7288000647186,-44.4371277658991,-1.21732176924355,12.3759250580624,3.09782037989381,18.7475030362424,14.2825971085551,-101.558543412634,-0.239024311559943,8.9004773151305,-1.96353648942923,-6.66948761684695,-13.2108442576944,-30.8025753563733,1303.03557357332,0.0955615808936077,0.0847048069348567
108.395,-35.4019655796397,106.583385053848,98.2908573185548,0.426177743100173,2.36163056917255,-2.00402561771977,-2.42388812292349,-31.1052858408815,171.773365115553,183.705795973978,-0.344777624132523,-1.55311959867924,1.13208657219115,1.28097770041465,9.91658054916813,4.62550385499796,-0.294000467272455,-15.6214116760129,3.8411284190174,-145.070724225285,-9.74566285060808,8.36017301378455,-0.745584520984204,51.5481516094258,-51.8011283461484,213.940162403754,-30.1362386297761,2.54510732515803,-5.35262742161043,-92.1708231609887,-109.794292072577,-18.8112528738237,0,0,0,-12.8510754502424,34.3797853330837,36.9559729655864,-0.00788215110998231,5.320691495986,5.79780197143555,5.93104406985076,-34.878359696275,-27.5696556454658,-23.63523345759,0.685384754385308,6.73119392673647,7.17904758300332,7.6794401341943,3.69283376166645,8.11716857469597,-2.14399813091006,-3.31154003627966,15.3091168383111,-41.6548925538961,-0.887163901971178,13.0410077099959,3.34050035045435,21.5311946888213,9.75337076067495,-104.050020623446,0.220341801643372,8.71068668365479,-2.30161380767822,-5.21500015258789,-14.6300001144409,-33.6349983215332,1317,0.102441057562828,0.0822454690933228
108.4,-33.7673559060198,109.913931628907,101.966978421841,0.406812552392734,2.75853538867307,-1.51659420913618,-1.93912188696144,-29.1042995956372,161.966749853132,179.383557274339,-0.340132799678116,-1.84922902529922,0.948449609988324,1.11802993433921,9.5478046801028,5.13611659678073,-0.355892920821883,-17.2769711330963,0.682830377812114,-151.059392184465,-9.24020781328776,9.20087884116426,-0.902894507088999,52.0066142283104,-51.3585845681972,191.844811188064,-30.8866713090329,2.5204016947162,-5.10804193847177,-63.1522882815539,-92.7712869595967,-8.05228105034708,0,0,0,-12.4339686494846,32.529480696519,36.33507260292,-0.0352869199719867,5.17045912790086,5.79780197143555,5.94730410792456,-35.3969249877919,-33.675660651003,-25.3340142522653,0.686600348964142,6.68001464960305,7.18358182841433,7.71471507052268,3.74956851075341,8.36989609335613,-1.89642831671236,-5.61658820344965,10.0718181711914,-35.5993654627948,-0.520966885137068,14.0622331935615,3.38691969061642,24.4252399705306,6.53458112392238,-106.781693727634,0.220341801643372,8.71068668365479,-2.30161380767822,-5.21500015258789,-14.6300001144409,-33.6349983215332,1317,0.102441057562828,0.0822454690933228
108.405,-32.132824174879,113.244319394765,105.642924238026,0.387448285068412,3.15542128271013,-1.02918604256139,-1.44505762003683,-27.1034087626687,152.160602195864,175.061524670385,-0.33548819670113,-2.14532433264461,0.764821404077803,0.955116282827483,9.17904639523874,5.6467049912079,-0.417782423176693,-18.9324516487599,-2.47531706745377,-157.047774588241,-8.73477687739015,10.0415445814837,-1.0601969922408,52.4650549864942,-50.9160618918949,169.750513536708,-31.6370682056902,2.49569724230367,-4.86346811781085,-34.1351370820199,-75.7490935481767,2.70617775711655,0,0,0,-12.0168817374736,30.6792642873354,35.7142018464125,-0.0626903821026892,5.02023392328932,5.79780197143555,5.9630079022992,-35.9154655527547,-39.7813745061967,-27.0327140446139,0.687815885580236,6.62883781283188,7.18811585762063,7.74180998195377,3.80630055457865,8.62261156130493,-1.64887030729314,-7.92152645987355,4.83476923221725,-29.5441271151177,-0.154787329537787,15.0834099824158,3.43333681738252,27.3191472565656,3.31594496750725,-109.513236578478,0.220341801643372,8.71068668365479,-2.30161380767822,-5.21500015258789,-14.6300001144409,-33.6349983215332,1317,0.102441057562828,0.0822454690933228
108.41,-30.4982145012591,116.574865969824,109.319045341313,0.368083094360974,3.55232610221065,-0.541754633977804,-0.941279545013567,-25.1024225174244,142.353986933444,170.739285970745,-0.330843372246724,-2.4414337592646,0.581184441874978,0.792535984604887,8.8102705261734,6.15731773299067,-0.479674876726122,-20.5880111058433,-5.63361510865906,-163.036442547421,-8.22932184006983,10.8822504088634,-1.2175069783456,52.9235176053788,-50.4735181139437,147.655162321017,-32.3875008849471,2.47099161186184,-4.61888263467219,-5.11660220258513,-58.7260884351969,13.4651495805931,0,0,0,-11.5997749367158,28.8289596507707,35.0933014837461,-0.0900951509646936,4.87000155520418,5.79780197143555,5.97801998858724,-36.4340308442716,-45.887379511734,-28.7314948392892,0.689031480159071,6.57765853569846,7.19265010303164,7.75973531695,3.86303530366561,8.87533907996509,-1.40130049309544,-10.2265746270435,-0.402529434902419,-23.4886000240164,0.211409687296323,16.1046354659813,3.4797561575446,30.2131925382748,0.0971553307546797,-112.244909682666,0.220341801643372,8.71068668365479,-2.30161380767822,-5.21500015258789,-14.6300001144409,-33.6349983215332,1317,0.102441057562828,0.0822454690933228
108.415,-29.0777977196368,118.964967026888,112.198222600158,0.348277955610354,3.93270777725307,-0.133145080073289,-0.506552808363103,-23.4650920282411,132.992853142309,165.890143675605,-0.32406380479907,-2.71812061096705,0.419057449007628,0.652077295561264,8.24094914186741,6.51301054951977,-0.382703721198746,-22.1742244667733,-9.42330432393588,-166.790549558639,-7.55330772056892,11.4944295386553,-1.44348994908938,53.1616183057916,-49.2647632043947,128.132546703704,-32.5992274446387,1.98939315671465,-3.9495686893331,12.9094629321005,-43.9088234652567,18.9367451180944,0,0,0,-11.2710151018601,26.3026309525066,34.1260269728585,-0.11556533084728,4.71357436968322,5.80117349860888,5.99559299955246,-36.9613353689568,-52.2320727585032,-31.1388972368143,0.680579395881886,6.56129848667606,7.20504454922214,7.77557073520581,3.9429530257702,9.00855224898968,-1.2215915603842,-12.3429566517829,-5.07423995313919,-16.7345971244605,0.586529260483904,17.0484276491891,3.53684564110638,32.8345348550146,-3.31150662900694,-115.164802535876,0.178457656838866,9.10601423683301,-2.30712487557326,-4.22976510350187,-16.8528192360871,-46.5047990307522,1308.40939484596,0.107297289200056,0.0802576290701532
108.42,-28.0577246166068,119.596773646179,113.587518715826,0.327647409004146,4.28224343283464,0.128124496715998,-0.209606357736606,-22.5075692467801,124.463483096878,160.055034517016,-0.313291366429401,-2.95852535279931,0.297131645959227,0.552644776167642,7.29653219965359,6.57905369233193,0.0113536975804409,-23.6309785633707,-14.3942058960936,-166.366568888733,-6.55825770219911,11.6793503385294,-1.79792148218128,52.9876775181382,-46.6230374919085,113.418243198148,-31.8036091718162,0.653344837706877,-2.48592615203395,10.3822119962898,-33.2142375769537,14.5217609407976,0,0,0,-11.1074180126255,22.5117998445315,32.5109046946512,-0.137421338889866,4.54554154400504,5.81085020147996,6.01856317593084,-37.505054316324,-59.0239783799048,-34.8717427688319,0.654047714509736,6.6100477263987,7.23213917029934,7.79561159665891,4.06623355901955,8.91829328714639,-1.16875704613447,-14.1068249515808,-8.68894694656169,-8.67352874664757,0.978385241169367,17.8475496772162,3.61389597438723,34.9462847301193,-7.0756939868191,-118.437063603606,0.0582449450775287,10.2406535478024,-2.32294232677001,-1.40201781331001,-23.2325869409129,-83.4427298469205,1283.75328819608,0.121235278784831,0.0745522806418087
108.425,-27.0377001533394,120.228550139271,114.97674858621,0.307017846116544,4.63176242163881,0.389381615486175,0.0963954452003564,-21.5500921225184,115.934519754197,154.220203591746,-0.302519441717865,-3.19891863150255,0.175211656653105,0.454194989560264,6.35216028971814,6.64509368603371,0.405392326667716,-25.0876631981095,-19.3648704426185,-165.942608435339,-5.56325513042564,11.8642623208943,-2.1523361150475,52.813745024438,-43.9814377438373,98.7046413092005,-31.008028836161,-0.682639775010649,-1.02235340505224,7.85508156643636,-22.5201616345732,10.1069872815334,0,0,0,-10.9438287241295,18.7211494933324,30.8958594297128,-0.159276304780629,4.37751673057298,5.82052644294046,6.04055298654321,-38.0487473377448,-65.8155601454214,-38.6044103089779,0.627517298237784,6.65879464162965,7.2592324994339,7.80486523676797,4.18950821392954,8.82803862908729,-1.11592505117305,-15.870609145509,-12.3034815812681,-0.61284474173082,1.37022253713326,18.6466336010077,3.69094263370598,37.0579339114478,-10.8397018582991,-121.70916864134,-0.0619620346262193,11.3752387561917,-2.33875902374917,1.42559464246978,-29.6120504416713,-120.378899365606,1259.09835721409,0.135172603769684,0.0688472042594508
108.43,-26.0176270503094,120.860356758561,116.366044701878,0.286387299510336,4.98129807722037,0.650651192275463,0.410724782987994,-20.5925693410574,107.405149708766,148.385094433157,-0.291747003348195,-3.43932337333481,0.053285853604704,0.356804642622047,5.40774334750431,6.71113682884587,0.799449745446903,-26.5444172947068,-24.3357720147762,-165.518627765434,-4.56820511205583,12.0491831207684,-2.5067676481394,52.6398042367846,-41.3397120313511,83.9903378036445,-30.2124105633384,-2.01868809401842,0.441289132246913,5.32783063062563,-11.8255757462701,5.69200310423663,0,0,0,-10.7802316348949,14.9303183853573,29.2807371515054,-0.181132312823215,4.2094839048948,5.83020314581155,6.06151951470371,-38.592466285112,-72.6074657668231,-42.3372558409955,0.600985616865634,6.70754388135229,7.28632712051111,7.8033048727246,4.3127887471789,8.73777966724401,-1.06309053692332,-17.6344774453069,-15.9181885746906,7.44822363608207,1.76207851781873,19.4457556290348,3.76799296698683,39.1696837865525,-14.6038892161113,-124.98142970907,-0.182174746387557,12.5098780671612,-2.35457647494592,4.25334193266165,-35.9918181464972,-157.316830181774,1234.44225056422,0.149110593354459,0.0631418558311063
108.435,-24.997602587042,121.492133251653,117.755274572261,0.265757736622734,5.33081706602454,0.91190831104564,0.732372788691464,-19.6350922167956,98.8761863660845,142.550263507886,-0.280975078636659,-3.67971665203805,-0.0686341357014188,0.260510048550769,4.46337143756886,6.77717682254765,1.19348837453418,-28.0011019294457,-29.306436561301,-165.09466731204,-3.57320254028236,12.2340951031333,-2.86118228100562,52.4658717430844,-38.6981122832799,69.2767359146967,-29.4168302276832,-3.35467270673595,1.90486187922863,2.80070020077216,-1.13149980388964,1.27722944497236,0,0,0,-10.6166423463989,11.1396680341583,27.6656918865671,-0.202987278713977,4.04145909146275,5.83987938727205,6.08144658513124,-39.1361593065328,-79.3990475323396,-46.0699233811414,0.574455200593682,6.75629079658324,7.31342044964566,7.79115896630623,4.43606340208889,8.6475250091849,-1.0102585419619,-19.3982616392351,-19.5327232093971,15.5089076409988,2.15391581378262,20.2448395528263,3.84503962630558,41.281332967881,-18.3678970875913,-128.253534746804,-0.302381726091305,13.6444632755504,-2.37039317192509,7.08095438844143,-42.3712816472555,-194.252999700459,1209.78731958222,0.163047918339311,0.0574367794487484
108.44,-22.8452341048824,119.210929697328,118.312309291097,0.242652096444668,5.6619149000406,1.59957978905325,1.48658875435632,-18.6802691881228,78.8905317510306,131.809846210208,-0.273610016173999,-3.83801259554325,-0.556207971272231,-0.200386128892028,4.06431858450938,6.65598436319032,0.926584930675143,-27.8832479995081,-26.7480070800229,-165.857698943611,-2.64291399754668,12.0752585277609,-3.18546730766848,49.5186029574744,-47.1350720415733,48.799178616997,-28.3711563733176,-3.70285296101286,3.36510245032566,2.46390855363601,-4.08268049217487,-16.9130387161867,0,0,0,-10.8091427546553,0.337392193458673,23.3441660996055,-0.232493026512687,3.80220881077017,5.6742386652383,5.92502917319877,-41.0861923709727,-92.5869304193728,-53.5820123770916,0.555473064395187,6.88503572514542,7.20454705070064,7.63294225320766,4.4118381305215,8.34731076610454,-0.886924306441816,-21.9174607676266,-20.3896785919865,26.6237222680365,2.25512793190184,20.4879477616563,3.86628198297546,44.1446921167515,-25.6030737309644,-132.539160477918,-0.6617382203935,14.5944742103524,-2.31629156061943,0.740758664873253,-47.3331222648563,-221.433119467617,1161.65431746936,0.170373778006977,0.0545479307170624
108.445,-20.4201583755956,116.22798806315,118.66879633586,0.218951220699348,5.98855462517315,2.38995372856008,2.34833351143886,-17.7261421535487,56.1456072421019,119.888079368675,-0.267066261885298,-3.97651808668928,-1.13185606057998,-0.748402470702925,3.79668219609202,6.48968602475622,0.500445438437794,-27.3860211002549,-22.3756182820741,-166.906687305261,-1.7282731361592,11.8336062547239,-3.50247351530845,45.9032822125821,-58.2408754300536,26.9340267117742,-27.265285173725,-3.81300436748952,4.82445373972012,2.65489183637395,-10.3214667319028,-38.421391098858,0,0,0,-11.0874304259157,-12.153672802117,18.3707783505201,-0.263840459410886,3.54581114236137,5.46636569263492,5.72538576633115,-43.3749631053599,-107.315200897171,-62.0042961706179,0.538310784918307,7.03304829662809,7.06291935333305,7.43257588162224,4.35207466514676,7.99652520847013,-0.746610083388048,-24.6185256009889,-20.5821535207297,38.4737620476569,2.28630887035823,20.5970810462537,3.87407721758955,47.1890039063725,-33.6741890762608,-137.068737134341,-1.07869574824307,15.4999563609542,-2.24534656175611,-7.80801544393642,-51.9530976622895,-246.260942506491,1107.86719863209,0.17610619314025,0.0523378138103628
108.45,-17.9949670068196,113.244904187703,119.025300379671,0.19524921478018,6.31520992608775,3.18036535696774,3.21351306584907,-16.771969621524,33.3995981437636,107.965744038904,-0.260522195558339,-4.11503018245556,-1.70753159960826,-1.29564903697593,3.52903304546073,6.32337975640278,0.074285625782142,-26.8887704907877,-18.0030209872107,-167.955725687814,-0.813588660215356,11.5919424585228,-3.81949483935717,42.2877890714881,-69.3472083976377,5.06783216900884,-26.1593612407769,-3.92316102652478,6.28387461813225,2.84588422613028,-16.5605504675175,-59.9307691051228,0,0,0,-11.3657313672953,-24.6453334328552,13.3971534459462,-0.295189387108231,3.28940124765585,5.25848280763,5.52478781339109,-45.6638429795465,-122.044173691048,-70.4269815798896,0.521147687059878,7.18106792607515,6.92128490246314,7.22371602637375,4.29230834995726,7.64572292366211,-0.606289169464839,-27.3197192343528,-20.7746376276202,50.3243668952178,2.3174912956745,20.7062195348607,3.88187282391861,50.2334608636912,-41.7456892918708,-141.598529783165,-1.4956731586699,16.4054816893801,-2.17439817988774,-16.3571972001691,-56.5732933627791,-271.089949457579,1054.07751496153,0.181838881623155,0.0501275915144635
108.455,-15.5698912775329,110.261962553524,119.381787424434,0.17154833903486,6.64184965122031,3.97073929647457,4.08057009025971,-15.8178425869499,10.6546736348348,96.0439771973717,-0.253978441269637,-4.25353567360159,-2.28317968891601,-1.84228521157935,3.26139665704338,6.15708141796868,-0.351853866455207,-26.3915435915345,-13.630632189262,-169.004714049464,0.101052201172128,11.3502901854857,-4.13650104699714,38.6724683265958,-80.453011786118,-16.7973197362139,-25.0534900411843,-4.03331243300143,7.74322590752671,3.03686750886822,-22.7993367072455,-81.4391214877941,0,0,0,-11.6440190385557,-37.1363984284309,8.42376569686076,-0.32653682000643,3.03300357924705,5.05060983502663,5.3233103956184,-47.9526137139337,-136.772444168846,-78.8492653734159,0.503985407582999,7.32908049755782,6.77965720509556,7.00744990347167,4.23254488458252,7.2949373660277,-0.465974946411072,-30.0207840677151,-20.9671125563634,62.1744066748382,2.34867223413089,20.815352819458,3.8896680585327,53.2777726533121,-49.8168046371672,-146.128106439587,-1.91263068651947,17.3109638399819,-2.10345318102442,-24.9059713089788,-61.1932687602122,-295.917772496453,1000.29039612425,0.187571296756427,0.0479174746077638
108.46,-14.5612868337802,105.732085270641,117.52708346987,0.148630223380367,6.81494826593785,4.47643064177448,4.66337297751116,-15.7716245300087,7.48470725491595,80.9604004720184,-0.246978446576625,-4.22010708161978,-2.65834697729825,-2.18812887588117,2.80254998089902,5.93522399083151,-0.628242582452568,-25.7106380670751,-13.6843471001882,-166.104261955406,0.388015153444537,10.9232322679231,-3.90965541831145,36.9686210978583,-84.3445387702742,-24.5814038198817,-23.9616920401242,-3.86837589279582,8.30384006931966,13.8195968678692,-47.5494646624215,-96.3243934994698,0,0,0,-12.1029496113486,-43.5387753943615,-0.0552552527391272,-0.358823580479553,2.73119895346729,4.8169794143362,5.09523667357551,-49.2236623435328,-136.482353152546,-88.8528058004,0.49088020784782,7.41936864052607,6.76463518166988,6.91157650968441,3.70328740608686,6.49760168088627,-0.457443142747976,-34.046847080537,-20.8648271557775,74.2511588714229,2.32443142747996,19.457195084681,3.74170227938367,56.068432917828,-59.7850095819322,-148.041342225115,-1.66277911700854,17.3838144470685,-2.31598721644415,-33.5299278883969,-66.1866641406146,-325.074865742475,954.277740990704,0.189131677875766,0.045973505857489
108.465,-13.6156841393202,101.133415392865,115.574037529023,0.125746970717374,6.98121755047092,4.96945924426771,5.23249430426251,-15.7657871367584,5.18537218868543,65.7362296649751,-0.239958174776641,-4.17903154336778,-3.02459679629322,-2.52507187431653,2.33519992359608,5.71089596332611,-0.897970329810263,-25.0215646139794,-13.9349192649503,-163.028158932735,0.647060613778174,10.4879290716923,-3.65862167324587,35.3497930334087,-87.9151921181337,-31.7391955264403,-22.8705222803697,-3.69120476785381,8.82448040781758,25.0733865940964,-73.1228588404207,-110.915062858963,0,0,0,-12.5699135653283,-49.6703355709762,-8.6901763302442,-0.391152050433665,2.4273754276004,4.58220388933942,4.86521294950243,-50.4494436141292,-135.52429938997,-98.9266536894498,0.477955480398315,7.50708921452049,6.75524416067001,6.81640754252542,3.1531496243474,5.68040672354514,-0.454772570991962,-38.1318327665923,-20.7494320799002,86.3379688190249,2.29772570991979,18.0337803387241,3.58680911753469,58.8478057453863,-69.8375691919263,-149.838208406632,-1.38327077778376,17.4196324068043,-2.54112894142204,-42.1572100277085,-71.1966573253978,-354.424447711112,908.610963962817,0.190506498435531,0.0440413785543102
108.47,-12.6701265336783,96.5349647917384,113.621084714533,0.102864809187925,7.14747890684814,5.46246433786324,5.79920368674739,-15.7599500218504,2.88614676078535,50.5127847863509,-0.232938237721641,-4.13795796370525,-3.39082915153562,-2.86240083528588,1.86787215077041,5.48657863236979,-1.16768521584108,-24.3325240177144,-14.1854794817739,-159.952202586729,0.906093722144411,10.0526466318604,-3.40759989812808,33.7310421589296,-91.4856752078706,-38.8966459307051,-21.779404550453,-3.51404209089601,9.34509592081777,36.3266397100944,-98.6950336118693,-125.505036497049,0,0,0,-13.0368552532412,-55.8016033787098,-17.3246856720504,-0.423478978881485,2.1235663888366,4.34743955905584,4.63440104230656,-51.6751664362575,-134.566291309912,-109.000021230994,0.465031369233736,7.59480560576772,6.74585358745867,6.71764610064809,2.60303807462118,4.86325073220427,-0.452102126575818,-42.2166236698093,-20.634042506363,98.4242024358073,2.27102126575831,16.6104334649179,3.43192334139819,61.6270460451538,-79.8896494694958,-151.634988908855,-1.10377576625015,17.4554486586458,-2.76625993105161,-50.7840807955659,-76.2064116205575,-383.772630214655,862.946364446708,0.191881253440244,0.042109343380032
108.475,-11.7554165616106,91.780306419848,111.194782745374,0.0822658797884179,7.26893666957011,5.91560406443817,6.32239803291303,-15.7627631379622,0.549347412781563,36.3174033260908,-0.225421762057453,-4.07395788111576,-3.70146785802156,-3.14498504010586,1.53841214805441,5.17216817462828,-1.44326706738373,-23.5258132877156,-14.2097637487746,-155.963832667424,1.12468699778552,9.54335906358745,-3.06651932932614,32.0362649731879,-96.0774260372362,-46.6237265125507,-20.7117420796072,-3.30409617319925,9.41371143462951,44.3210103722789,-120.936535597997,-138.014140560315,0,0,0,-13.5501138041978,-61.195448812203,-25.8557191649321,-0.450694215234784,1.82124372852842,4.09360958976106,4.38369026015473,-52.8943746518093,-132.555734526149,-117.883378607591,0.454896189305336,7.63946775434673,6.75435275061226,6.63452656850332,2.03160329009809,4.11719101550145,-0.367526858589044,-46.1594747716186,-20.4441807366789,109.766126362575,2.21441227459665,14.9799092692186,3.26198481493198,63.5923479442746,-87.9203277600072,-151.501180670283,-0.883762240409851,17.483642578125,-2.94347906112671,-57.5750007629395,-80.1500015258789,-406.875,827,0.192963436245918,0.0405884794890881
108.48,-10.9549869311682,86.4490523442404,107.018565555939,0.07011502272997,7.22468224998397,6.22121901088257,6.69328744306162,-15.7975644262423,-1.92587789259768,25.9270098344271,-0.216070756177135,-3.92518927024769,-3.80645006979918,-3.22326577212615,1.71886491616577,4.52466118316989,-1.74048339133185,-22.2841357438848,-13.3972676251069,-148.602224643709,1.19368364441633,8.76051249604554,-2.39247516608667,30.0607199628185,-104.444825633395,-56.4555848477392,-19.7310570010578,-2.97296392212409,7.81080262001011,40.2621494219598,-130.856131705526,-142.825327050735,0,0,0,-14.2345384654981,-63.8610768623195,-34.0021849276307,-0.459000171047605,1.52448546297961,3.76933120227018,4.06161558551282,-54.0892185453221,-126.653272849025,-122.364054272645,0.455076827483296,7.52490407404681,6.82900676787635,6.61663954538226,1.38144258146158,3.63421448908574,0.0199158494147469,-49.5765451626888,-19.9789611819982,118.353030959885,2.04722809237583,12.5836026573869,3.03641885479278,62.5472420432665,-88.4740045539582,-144.228029885839,-0.883762240409851,17.483642578125,-2.94347906112671,-57.5750007629395,-80.1500015258789,-406.875,827,0.192963436245918,0.0405884794890881
108.485,-10.1545191323203,81.117544048325,102.842149224012,0.0579635862591404,7.18042572013033,6.52684853054458,7.05842536000253,-15.8323673740183,-4.40122122884362,15.5361208779076,-0.206719304395054,-3.77641356536355,-3.91143728764289,-3.30346530093441,1.89932628914901,3.87712331540652,-2.03771388801012,-21.0423989907866,-12.5847327576443,-141.240265582465,1.26268358114522,7.97762859854475,-1.7183988611199,28.0850807487863,-112.812624228151,-66.2879120140915,-18.7503251586402,-2.64181588104125,6.20781737084707,36.2030949252695,-140.776200827985,-147.636742962092,0,0,0,-14.9189957635186,-66.5268320226383,-42.1490391537199,-0.467306522929083,1.22771304654311,3.44503735159742,3.7384732266695,-55.2841194148442,-120.750529713617,-126.844943598262,0.455257474274968,7.41033493078947,6.90366434500965,6.59911439663668,0.731250869977878,3.15121493198355,0.407377032584624,-52.9937784964127,-19.5137194433704,126.940345022867,1.88003593799431,10.1871817779184,2.81084213856373,61.50208630649,-89.0277077499307,-136.954532281939,-0.883762240409851,17.483642578125,-2.94347906112671,-57.5750007629395,-80.1500015258789,-406.875,827,0.192963436245918,0.0405884794890881
108.49,-9.35408950187782,75.7862899727174,98.6659320345774,0.0458127292006925,7.13617130054418,6.83246347698898,7.41694704448903,-15.8671686622984,-6.87644653422287,5.14572738624398,-0.197368298514736,-3.62764495449548,-4.01641949942051,-3.3861862506016,2.07977905726037,3.22961632394812,-2.33493021195824,-19.8007214469557,-11.7722366339766,-133.87865755875,1.33168022777603,7.19478203100284,-1.04435469788043,26.1095357384169,-121.180023824309,-76.11977034928,-17.7696400800908,-2.31068362996609,4.60490855622767,32.1442339749504,-150.695796935514,-152.447929452512,0,0,0,-15.6034204248189,-69.1924600727548,-50.2955049164186,-0.475612478741904,0.930954780994294,3.12075896410654,3.41410038954823,-56.478963308357,-114.848068036493,-131.325619263316,0.455438112452927,7.29577125048955,6.97831836227374,6.5831609757001,0.0810901613413734,2.66823840556784,0.794819740588415,-56.4108488874829,-19.0484998886897,135.527249620178,1.71285175577349,7.79087516608667,2.58527617842453,60.4569804054819,-89.5813845438817,-129.681381497495,-0.883762240409851,17.483642578125,-2.94347906112671,-57.5750007629395,-80.1500015258789,-406.875,827,0.192963436245918,0.0405884794890881
108.495,-8.90954208374023,72.8253860473633,94.5942098308584,0.0445721282750535,7.01742155231401,7.00219774246216,7.63229974201913,-15.8864968109131,-8.25115203857422,-1.92166433965455,-0.18649264273968,-3.48056435830986,-4.07472515106201,-3.42541329361083,1.79527650265792,2.56454645403335,-2.28227186688882,-18.6374486856085,-14.5465896263385,-127.532724018445,1.23048488557925,6.37527650265791,-0.552680471964379,23.2768883073363,-124.220883783652,-83.8872308482594,-17.2249813079834,-2.1267774105072,3.71467542648315,29.8899993896484,-156.205001831055,-155.119995117188,0,0,0,-15.9835403060913,-70.6729125976562,-56.5277804645078,-0.471969882670487,0.633866623925617,2.94065928459167,3.2324113743573,-57.1425628900528,-111.569923400879,-132.94696095682,0.450841415345409,7.12221259841074,7.01978015899658,6.53673131862827,-0.629844718736868,2.3122745871445,0.925445385199532,-58.6726965668106,-19.5756462671277,141.430215436136,1.51219286612942,5.90193954231696,2.30780169335916,58.9213892278714,-88.1938820273797,-122.805220176293,0.0158882736571971,16.5452621316348,-2.91006492074842,-55.5367060960334,-85.8875601871171,-421.339121213901,774.787525360717,0.187032535504474,0.0380730574040925
108.5,-8.90954208374023,72.8253860473633,90.6534393505537,0.0569586580496558,6.80563927400677,7.00219774246216,7.67008508039194,-15.8864968109131,-8.25115203857422,-4.83784223632067,-0.173713853273661,-3.33560787875725,-4.07472515106201,-3.4102048706241,0.93007152005623,1.87761172883585,-1.79262289321863,-17.5722288759341,-21.8006484955265,-122.456056605946,0.916729232547866,5.51007152005621,-0.288840491006166,19.3740168283638,-120.608526798227,-89.0754088744424,-17.2249813079834,-2.1267774105072,3.71467542648315,29.8899993896484,-156.205001831055,-155.119995117188,0,0,0,-15.9835403060913,-70.6729125976562,-60.3685486983767,-0.453403839821627,0.336398289015143,2.94065928459167,3.22902917965288,-57.1425628900528,-111.569923400879,-130.996797652109,0.44027828098611,6.8749873642776,7.01978015899658,6.45261334618716,-1.41661078808072,2.1149888356172,0.735290443968387,-59.4914192304447,-21.3422091470837,143.98028710172,1.26974531605972,4.64691693019143,1.9655227991431,56.7733426695196,-84.3819797332554,-116.425639277582,2.03911303832208,14.4349375907935,-2.83491983357704,-50.9527835802494,-98.7907604750343,-453.867495045185,657.366849150487,0.17369452805688,0.0324161226540182
108.505,-8.90954208374023,72.8253860473633,86.7124809550097,0.0693457784746693,6.59384689688316,7.00219774246216,7.69962330530068,-15.8864968109131,-8.25115203857422,-7.7541591906329,-0.160934454452367,-3.19064448696967,-4.07472515106201,-3.39956900254703,0.0648252802430241,1.19064424722592,-1.30295057068698,-16.5069582713614,-29.0550532737732,-117.37914711308,0.602958618110111,4.64482528024301,-0.0249879288653213,15.4709592413621,-116.995997557927,-94.2638342983664,-17.2249813079834,-2.1267774105072,3.71467542648315,29.8899993896484,-156.205001831055,-155.119995117188,0,0,0,-15.9835403060913,-70.6729125976562,-64.2095000788878,-0.434836911652904,0.0389157693574032,2.94065928459167,3.22351761511326,-57.1425628900528,-111.569923400879,-129.04654135406,0.429714642924825,6.62775034123433,7.01978015899658,6.37324080015936,-2.20341437428449,1.91769367653891,0.545126435218228,-60.3101809347856,-23.1088562654108,146.530480367212,1.02728620490328,3.3918344724404,1.62322758339282,54.6251936817863,-80.5698956689583,-110.045754169205,4.0624342802539,12.3245124193413,-2.75977116311983,-46.3686424805868,-111.694576050743,-486.397419988664,539.940573747266,0.160355884587758,0.0267589181535863
108.51,-8.90954208374023,72.8253860473633,82.7717104747049,0.0817323082492715,6.38206461857592,7.00219774246216,7.72061796071606,-15.8864968109131,-8.25115203857422,-10.670337087299,-0.148155664986347,-3.04568800741706,-4.07472515106201,-3.39420243188744,-0.80037970235867,0.50370952202842,-0.813301597016785,-15.441738461687,-36.3091121429612,-112.302479700582,0.289202965078728,3.77962029764131,0.238852052092892,11.5680877623896,-113.383640572502,-99.4520123245494,-17.2249813079834,-2.1267774105072,3.71467542648315,29.8899993896484,-156.205001831055,-155.119995117188,0,0,0,-15.9835403060913,-70.6729125976562,-68.0502683127567,-0.416270868804044,-0.258552565553071,2.94065928459167,3.21551586933286,-57.1425628900528,-111.569923400879,-127.09637804935,0.419151508565527,6.38052510710119,7.01978015899658,6.29950081431067,-2.99018044362834,1.72040792501161,0.354971493987083,-61.1289035984197,-24.8754191453667,149.080552032796,0.784838654833574,2.13681186031487,1.28094868917676,52.4771471234345,-76.757993374834,-103.666173270493,6.08565904491878,10.2141878784999,-2.68462607594845,-41.7847199648028,-124.597776338661,-518.925793819948,422.519897537035,0.147017877140163,0.021101983403512
108.515,-8.76252815132435,70.6620098065816,78.8873614962283,0.0975492899445879,6.14210436158668,7.05113411159406,7.78181311176438,-15.9600039983144,-10.3729246901853,-13.23394303972,-0.135078204297036,-2.90815371343156,-4.04872770496069,-3.36877492207279,-1.64844963585171,0.000874421202053985,-0.419125578797959,-14.9789683657954,-40.9976570873252,-106.840746284906,0.322527165693289,3.34208064778836,0.42782325429881,6.80151571167698,-106.086794343342,-105.544243734159,-16.4339548632612,-0.771644694688036,3.81924755761835,47.1667721881916,-157.658093343166,-126.80094445162,12.9305442445959,0.0161450425912312,-0.0123368581839686,-16.1736449104107,-70.2152751075203,-71.0878485031632,-0.396819380494969,-0.571368184935443,2.86521571551333,3.12921235222544,-57.3770251616489,-108.366462739474,-124.357239281267,0.408129257757703,6.13390984155002,7.01519238821505,6.22761008825313,-3.64682481327219,1.64132093910696,0.155494566861324,-60.901215321316,-26.7641267781188,150.121278478842,0.497947274123388,0.314871210182196,0.746313144239926,49.1171516662516,-72.3292217456538,-92.2015419100139,10.7182235091562,8.53156354932889,-2.94341380244943,-35.1524594044634,-139.524877190909,-541.318040055628,322.272866882286,0.129373655903416,0.0138068757590233
108.52,-8.143942842999,61.5592483408047,75.1847844519826,0.124367525317007,5.81180109438261,7.25704193604531,7.99114380329033,-16.2692975831843,-19.3006322096349,-14.6660313656275,-0.121045270482264,-2.79445638516456,-3.93933917322096,-3.26650404182048,-2.44138248365403,0.0887069828047612,-0.331293017195238,-16.4488685736873,-37.4554385535531,-100.144868903465,1.46923005328432,4.27652151150615,0.376587593363896,-0.734734944358687,-86.9720674595685,-114.535334145137,-13.1055809522925,4.93029916234321,4.25925200425483,119.861636224758,-163.772214952414,-7.6438795423864,67.3379365707239,0.0840779655809403,-0.0642462187329266,-16.9735413103268,-68.2896900742856,-71.548300278829,-0.374531405322006,-0.933353059638308,2.54777448615098,2.7976965655531,-58.363563744643,-94.8873749524892,-119.087723191827,0.395636434813402,5.88930075436045,6.99588858784195,6.14816407054928,-3.88592456430182,1.94141552458291,-0.0738460106568827,-57.3168275192846,-29.0442793547051,146.320020154335,0.0685436396212011,-3.32530050957489,-0.40526933010681,41.8700617068504,-65.9225050608465,-64.4270545801559,23.7202684212872,8.22128143695438,-4.27336104686118,-21.9507372879862,-160.941383163879,-531.190462807206,277.136689392,0.097919221616964,0.00125819405188336
108.525,-7.5253280374962,52.456052810774,71.4820308507275,0.15118703951425,5.48148207670087,7.46295957919022,8.19163162214822,-16.5786059166874,-28.2287654459087,-16.0981879805211,-0.107011667508473,-2.68075363525204,-3.82994542530023,-3.17130297563785,-3.23435314237846,0.176543732694226,-0.243456267305759,-17.9188388736209,-33.9130511094507,-93.4486722297916,2.61598762128581,5.21100693394141,0.325349489261707,-8.27134496573964,-67.8564290919892,-123.526853295346,-9.77704832815266,10.6325149159868,4.69927743245855,192.559966708516,-169.886628112928,111.518867359356,121.747923307816,0.152014127945166,-0.116158054574458,-17.7734758532212,-66.3640132197246,-72.0087740110908,-0.352242367349216,-1.29535519555307,2.23031811963592,2.46262560002887,-59.3501493706289,-81.407644416576,-113.81795582605,0.38314301615011,5.64468000301147,6.9765838669691,6.07652109584695,-4.12503571677873,2.24152442003863,-0.30319752425718,-53.7322687960859,-31.3245406601349,142.518580567211,-0.360880470949581,-6.96564581054983,-1.5569067175466,34.6226261707023,-59.5154828724064,-36.6512428266972,36.722933334606,7.91098452880894,-5.60337170967187,-8.74838564873385,-182.358910380755,-521.062402626295,231.998359587686,0.0664632874290151,-0.0112910860378663
108.53,-6.90674272917086,43.3532913449971,67.7794538064818,0.17800527488667,5.15117880949679,7.66886740364147,8.38331818135846,-16.8878995015574,-37.1564729653583,-17.5302763064286,-0.0929787336937013,-2.56705630698505,-3.7205568935605,-3.08359756663223,-4.02728599018077,0.264376294296934,-0.155623705703037,-19.3887390815127,-30.3708325756786,-86.7527948483498,3.76269050887684,6.14544779765921,0.274113828326793,-15.8075956217753,-48.7417022082153,-132.517943706324,-6.44867441718391,16.334458773018,5.13928187909503,265.254830745082,-176.000749722175,230.67593226859,176.155315633944,0.219947050934875,-0.168067415123416,-18.5733722531373,-64.4384281864899,-72.4692257867567,-0.329954392176253,-1.65734007025594,1.91287689027356,2.1237540506457,-60.336687953623,-67.9285566295916,-108.54843973661,0.370650193205808,5.4000709158219,6.957280066596,6.01324352697134,-4.36413546780835,2.54161900551459,-0.532538101775387,-50.1478809940545,-33.6046932367212,138.717322242704,-0.790284105451768,-10.6058175303069,-2.70848919189333,27.3755362113011,-53.1087661875991,-8.87675549683913,49.724978246737,7.60070241643443,-6.93331895408361,4.45333646774337,-203.775416353725,-510.934825377874,186.862182097401,0.0350088531425629,-0.0238397677450062
108.535,-6.3921932877835,32.707532752897,63.4691159772815,0.203842406202269,4.81281551971502,7.79974868832335,8.49132486490559,-17.3645415821258,-47.3423403386274,-19.6862143372332,-0.076281752023519,-2.45557972162219,-3.58375664094726,-2.97624761968114,-4.62561460975788,0.564429229367263,-0.0142871216412427,-20.8054920833862,-26.3833722071866,-78.9585924290092,5.07533261089082,7.21105607960002,0.110783193360115,-21.7944614565061,-30.8923785659577,-141.075849166409,-3.66250124189169,20.7901635498929,5.06558262158875,316.983703735794,-172.913538879037,333.762656101813,239.122995837746,0.277005437154258,-0.21153637760122,-19.4316101823545,-63.2184932748106,-72.7510379657623,-0.308328209849759,-2.0243613868348,1.57642432540436,1.76184678331385,-61.1751083059258,-52.3811640558468,-102.276273944156,0.35695889237477,5.17005521486279,6.88636243314874,5.90718940987034,-4.46227396990369,2.90916237716426,-0.742927123611573,-45.9809215581285,-35.7532077390134,134.724497642484,-1.11475506735958,-13.3166367017216,-3.64900967908774,20.8179441828023,-46.6270481746925,18.7134648871959,59.6397521590651,6.99926026173449,-8.13559286990689,13.7626121291192,-209.208335138949,-477.330283385646,144.51685836022,-0.000893230202514204,-0.0330612425101354
108.54,-6.52201495849273,12.5111190324358,55.3969748575083,0.223595637661469,4.42466025312491,7.46601746156469,8.12628332174135,-18.8772494364425,-65.3152956588073,-26.3235221669374,-0.0430945950804869,-2.35789230308456,-3.27726872309415,-2.7070910659426,-4.01874011772528,2.17845713370931,0.458300248750104,-21.8926693977183,-19.6403222957131,-64.3661860721232,7.41502746102505,9.0884933379307,-0.746588429426377,-18.1854153573156,-20.8846085082201,-146.948519585763,-4.23461429998446,17.5275732183728,1.81103275271615,238.87250018434,-112.852332305636,337.305770472664,355.074760485678,0.266708646998045,-0.202727117673257,-20.6508071016715,-66.368393249865,-71.9266092773214,-0.290807294264755,-2.42244270793917,1.12236811809795,1.27818491022631,-61.0960865479016,-24.0320692059794,-89.7978081270679,0.335851259094455,5.03048128258613,6.4958739998546,5.49077932137314,-3.68754057581951,3.69422554983622,-0.835895130901663,-38.208081991144,-37.0858767049689,129.546855535518,-0.78936704184421,-10.2719344629707,-3.28230253922122,18.5320024397638,-39.6831414573453,45.1532345873609,50.4346083943176,4.59514860015073,-8.54689562835385,-1.03350400270548,-115.668317305268,-298.3668693522,119.467145284831,-0.0643230396515648,-0.0216773434687794
108.545,-6.65184281973511,-7.68625775195752,47.3244488185076,0.2433498110515,4.03648647739042,7.13227032086645,7.75309310098791,-20.3900294240792,-83.2891080175318,-32.9611464959897,-0.00990585561125477,-2.26020022633232,-2.97076619039588,-2.44573151595929,-3.41183668694431,3.79256200280765,0.930910154422094,-22.97989855399,-12.8969508425912,-49.7730838778257,9.75483387927001,10.9660201216659,-1.60400093589141,-14.5761971611293,-10.8763612309861,-152.821470042808,-4.80675463923016,14.2648273105648,-1.44367230903561,160.757571908097,-52.7882617197139,340.849053796564,471.032054281703,0.256411365840443,-0.193917437676631,-21.8700621582695,-69.518443427579,-71.1021412760824,-0.273285543196674,-2.82054301151081,0.668290259167517,0.790318339698825,-61.017061021733,4.31837746758967,-77.3187472756074,0.314742619298796,4.89090069474073,6.10536694615926,5.08383842933656,-2.91277023865231,4.47932615816564,-0.928867571361716,-30.4348717770961,-38.4186092191084,124.368966533215,-0.463963500233971,-7.2270870379036,-2.91557791296208,16.245951691826,-32.7389036205134,71.5942650652524,41.2290256832267,2.19092229874713,-8.95821799973098,-15.8303256858215,-22.1238390253591,-119.394921466576,94.4162377164249,-0.127755873744621,-0.0102929015873566
108.55,-6.78166449044434,-27.8826714724187,39.2523076987344,0.263103042510699,3.6483312108003,6.79853909410779,7.37218228008176,-21.9027372783958,-101.262063337712,-39.5984543256939,0.0232813013317773,-2.1625128077947,-2.66427827254277,-2.19192973170246,-2.80496219491171,5.40658990714969,1.40349752481344,-24.0670758683221,-6.15390093111773,-35.1806775209397,12.0945287294042,12.8434573799966,-2.46137255867791,-10.9671510619388,-0.868591173248486,-158.694140462163,-5.37886769732293,11.0022369790447,-4.69822217790821,82.6463683566428,7.27294485368707,344.392168167415,586.983818929636,0.246114575684231,-0.185108177748668,-23.0892590775866,-72.6683434026334,-70.2777125876414,-0.255764627611669,-3.21862433261519,0.214234051861107,0.298362325990315,-60.9380392637088,32.667472317457,-64.840281458519,0.293634986018481,4.75132676246407,5.71487851286511,4.68656241305245,-2.13803684456813,5.2643893308376,-1.02183557865181,-22.6620322101116,-39.7512781850639,119.19132442625,-0.138575474718603,-4.18238479915277,-2.54887077309556,13.9600099487875,-25.7949969031662,98.0340347654175,32.0238819184792,-0.213189362836636,-9.36952075817795,-30.6264418176462,71.4161788083219,59.5684925668701,69.3665246410364,-0.191185683193672,0.00109099745399945
108.555,-6.87685012817383,-42.6907424926758,29.8570351121735,0.276954720433259,3.25627791302722,6.55384635925293,7.07307189211548,-23.0118592071533,-114.439888000488,-47.6471444601904,0.0723213911535324,-2.05971440571746,-2.4395604133606,-2.02696348517104,-1.98618323236066,7.00304902246089,1.92025318130109,-24.2720125524256,-0.790412183482542,-19.822594104815,13.3414336358105,14.6234260165613,-2.94639514272862,-9.80053623471001,-1.28410085968048,-162.667352882482,-5.79834270477295,8.6100959777832,-7.08446788787842,25.375,51.310001373291,346.989990234375,672,0.238564938306808,-0.178649201989174,-23.9831779098511,-74.9778594970703,-69.740710417347,-0.232395716349689,-3.63501247993922,-0.118681319057941,-0.0763814171817413,-60.880100274086,53.4531135559082,-50.6113496696812,0.270686517764986,4.63264785058813,5.42857122421265,4.40314824883535,-1.22653271250562,6.09686023439771,-0.995250403449804,-15.4304101715409,-39.7578696803985,114.76906371878,-0.0806164184237449,-1.8197193047435,-2.18747109711894,10.2350637011431,-19.3859093535364,121.060594064968,25.2746429443359,-1.97589123249054,-9.67108917236328,-41.4749984741211,140,190.785003662109,51,-0.237692609429359,0.00943770632147789
108.56,-6.87685012817383,-42.6907424926758,16.8279036691541,0.274588360675813,2.85358414453017,6.55384635925293,7.01202536639531,-23.0118592071533,-114.439888000488,-59.5724188742353,0.164911455216429,-1.94289104214936,-2.4395604133606,-2.09308973725705,-0.585305563639259,8.5509494960184,2.55827667398609,-22.0528004039561,0.781529755016718,-2.36342198614568,11.585482023334,16.1352642927062,-2.40823619672476,-15.3451418957782,-30.3393413961242,-161.420758404021,-5.79834270477295,8.6100959777832,-7.08446788787842,25.375,51.310001373291,346.989990234375,672,0.238564938306808,-0.178649201989174,-23.9831779098511,-74.9778594970703,-69.9935594166722,-0.192962578386863,-4.10162746282547,-0.118681319057941,-0.121841768151061,-60.880100274086,53.4531135559082,-31.5752456417744,0.242684130626691,4.57140291165593,5.42857122421265,4.41562499781467,0.0606103336067112,7.05944350379638,-0.640176459694686,-9.68717132434428,-36.1208275481845,112.423137296401,-0.757476123706953,-1.33149263208021,-1.84071919892058,2.55686364424692,-14.4474773811705,134.704639125929,25.2746429443359,-1.97589123249054,-9.67108917236328,-41.4749984741211,140,190.785003662109,51,-0.237692609429359,0.00943770632147789
108.565,-6.87685012817383,-42.6907424926758,3.79815093332832,0.272221888078744,2.45087117362175,6.55384635925293,6.94507667864703,-23.0118592071533,-114.439888000488,-71.4982619437766,0.257505934427103,-1.82606210787106,-2.4395604133606,-2.16468950282184,0.815638905791152,10.0989237810524,3.19633059075638,-19.8334824325812,2.35354665140728,15.0965826713686,9.82944667848357,17.6471746607053,-1.87005158866634,-20.8900119508028,-59.3959674287549,-160.174104481829,-5.79834270477295,8.6100959777832,-7.08446788787842,25.375,51.310001373291,346.989990234375,672,0.238564938306808,-0.178649201989174,-23.9831779098511,-74.9778594970703,-70.2464204730762,-0.153527560058869,-4.56826469619968,-0.118681319057941,-0.17052316150138,-60.880100274086,53.4531135559082,-12.538233879185,0.214680408197415,4.51015505226505,5.42857122421265,4.43745240702103,1.34781475700415,8.02207267388025,-0.285085584274708,-3.94365861138791,-32.4836119839868,110.077099008759,-1.4343681049763,-0.843242678377729,-1.49395076589325,-5.12170254683723,-9.50880992017881,148.349334801789,25.2746429443359,-1.97589123249054,-9.67108917236328,-41.4749984741211,140,190.785003662109,51,-0.237692609429359,0.00943770632147789
108.57,-6.87685012817383,-42.6907424926758,-9.23098050969107,0.269855528321298,2.04817740512469,6.55384635925293,6.87307383792279,-23.0118592071533,-114.439888000488,-83.4235363578215,0.35009599849,-1.70923874430296,-2.4395604133606,-2.24066170883662,2.21651657451255,11.6468242546099,3.83435408344137,-17.6142702841116,3.92548858990654,32.5557547900379,8.07349506600706,19.1590129368502,-1.33189264266248,-26.434617611871,-88.4512079651986,-158.927510003367,-5.79834270477295,8.6100959777832,-7.08446788787842,25.375,51.310001373291,346.989990234375,672,0.238564938306808,-0.178649201989174,-23.9831779098511,-74.9778594970703,-70.4992694724014,-0.114094422096043,-5.03487967908594,-0.118681319057941,-0.221903420365973,-60.880100274086,53.4531135559082,6.49787014872181,0.186678021059119,4.44891011333285,5.42857122421265,4.4682616783895,2.63495780311648,8.98465594327892,0.0699883594804098,1.79958023580872,-28.8465698517728,107.73117258638,-2.11122781025951,-0.355016005714434,-1.14719886769489,-12.7999026037334,-4.57037794781296,161.99337986275,25.2746429443359,-1.97589123249054,-9.67108917236328,-41.4749984741211,140,190.785003662109,51,-0.237692609429359,0.00943770632147789
108.575,-7.75676394006537,-48.5440256637547,-20.1509949606573,0.263248477660048,1.69418030899833,5.98477536269122,6.22791480438372,-24.5895022116972,-116.221322538533,-92.8316821910577,0.44304378502159,-1.57745917750503,-2.36316459229814,-2.24332781648715,2.96488855110044,12.9503287902206,3.80880746484091,-13.1815010517647,-2.10068666304907,44.5500982693152,6.28290469682069,20.1311033760395,-1.66962803530597,-24.2099452994025,-111.688706022648,-156.415224481872,-4.75600462771061,9.2102684777143,-5.70487787303971,37.9755370287609,47.3870755790734,295.141577921288,807.848148479313,0.223328776888749,-0.168782380414071,-25.0065140590745,-71.2877458700077,-70.5177851557686,-0.0723858169992843,-5.47947048155652,-0.804684630051143,-0.961359191777879,-59.5040230297349,71.39469942817,23.8790512671075,0.158455782658178,4.38093791556974,5.16664269485565,4.24562502084983,3.13029813378977,9.88815269457254,-0.100849821809496,3.91589871834359,-17.939805688061,100.947868770922,-3.87228198806952,-1.12284759921826,-1.42371134415673,-18.8434844124507,-2.46552909861418,186.218252813682,24.0904381835934,0.150835184772489,-7.70406903008129,-21.3203478502329,134.49424866737,195.067943553264,46.7436611442513,-0.195538430711089,0.0077639531495924
108.58,-9.08582419281511,-57.3850802143667,-29.9934855529284,0.254476963582239,1.3650691254951,5.12522567464055,5.28927651530655,-26.9724431111707,-118.912079071041,-100.954116736005,0.536167499893109,-1.43805372559286,-2.24777300748823,-2.20864999027339,3.38009222476273,14.1289714767458,3.44449972536948,-7.61899544364067,-12.0053860068848,53.7536970252066,4.47475966635586,20.8275740544407,-2.45449691519663,-18.0190948247245,-131.954481508132,-153.256964757878,-3.18161167077642,10.1167952348488,-3.62108485941376,57.0079385002493,41.4617171210974,216.827471423323,1013.03912526984,0.200315413225676,-0.15387910216202,-26.5522056742694,-65.7140370776474,-70.4166686683498,-0.0295185542793454,-5.91278557230218,-1.84085399297526,-2.05233261470526,-57.4255358580778,98.494454349461,40.4141163696617,0.130123339452336,4.30953624226676,4.77101440407882,3.89715266606338,3.22137506865764,10.7614197759526,-0.540162095877984,4.18046497794521,-3.32251984507147,91.8997026925461,-6.18670762706451,-2.53186135629159,-2.01839015417628,-24.0521326483576,-1.80742052785516,215.843059732573,22.3017635914348,3.36313565267965,-4.73299589526456,9.12211673011561,126.178121384411,201.537083027291,40.3147010359319,-0.131866918041769,0.00523584325564178
108.585,-10.4149478216677,-66.2265563497648,-39.8364454833613,0.245705031235674,1.03594224835858,4.26563499905051,4.34878641503448,-29.3554976409384,-121.602963912001,-109.076938598416,0.629295655359492,-1.29864162614591,-2.13237592024235,-2.17405974127275,3.79531569736994,15.3076703667276,3.08017461392058,-2.05622458800298,-21.9105576553003,62.9577346537676,2.66652841467934,21.5240779439754,-3.23940322147992,-11.827949139972,-152.221223365057,-150.09855443259,-1.60714363907436,11.0233652196194,-1.53719248033011,76.0412475298643,35.5360761130066,138.509630525163,1218.23988657121,0.177300952172699,-0.138975113248663,-28.0979709956116,-60.1400625035508,-70.3155473592016,0.0133507525616522,-6.34612132563383,-2.87707276552996,-3.14390675737814,-55.3469495739715,125.595501519806,56.9499699451119,0.101789545216824,4.23813116418226,4.37536724780722,3.55580462275818,3.31245634651987,11.6347284989845,-0.979495318507535,4.44504385336198,11.2954630217054,82.8511051532924,-8.50124362921047,-3.94094230204248,-2.61309732139435,-29.2610292581254,-1.14928057525594,245.469279307366,20.5130037065103,6.57558929880758,-1.76178108512787,39.5660329562884,117.86159754777,208.006530981575,33.8854343633043,-0.0681923692028487,0.00270761280902823
108.59,-11.7440714505203,-75.068032485163,-49.6794054137942,0.23693309888911,0.706815371222073,3.40604432346048,3.40776457767199,-31.7385521707061,-124.29384875296,-117.199760460828,0.722423810825874,-1.15922952669896,-2.01697883299646,-2.13792414695775,4.21053916997715,16.4863692567093,2.71584950247167,3.50654626763472,-31.8157293037158,72.1617722823287,0.858297163002815,22.22058183351,-4.02430952776321,-5.63680345521944,-172.487965221982,-146.940144107303,-0.0326756073723055,11.92993520439,0.54669989875355,95.0745565594792,29.6104351049159,60.1917896270021,1423.44064787257,0.154286491119722,-0.124071124335305,-29.6437363169537,-54.5660879294542,-70.2144260500533,0.0562200594026497,-6.77945707896548,-3.91329153808466,-4.23516975172793,-53.2683632898652,152.696548690152,73.4858235205621,0.0734557509813127,4.16672608609775,3.97972009153562,3.22079844117493,3.40353762438211,12.5080372220164,-1.41882854113709,4.70962272877875,25.9134458884822,73.8025076140387,-10.8157796313564,-5.35002324779336,-3.20780448861241,-34.4699258678932,-0.491140622656723,275.09549888216,18.7242438215858,9.78804294493552,1.20943372500883,70.0099491824612,109.545073711129,214.47597893586,27.4561676906766,-0.0045178203639287,0.000179382362414693
108.595,-12.4451663909664,-71.1122249937013,-54.5059236823106,0.234589320281034,0.541646771652849,2.8785308439919,2.79963621145534,-32.9923405527447,-124.132223745525,-120.064651384968,0.825759264847637,-0.912842350559981,-1.94831587222572,-2.14530565565584,5.82464288416434,16.8107674459661,2.99710133414037,0.883300469435308,-27.9173064307067,80.2428757265163,-2.08059141005269,21.272534866712,-3.89573919951576,-6.046798751203,-151.60837909526,-150.464960483926,-1.01305513686139,12.3014084640233,0.412706838479749,80.96429247362,24.0478957202353,43.2587397707591,1525.70814103049,0.134734936111886,-0.115893745657394,-30.1078203241451,-46.7670942514181,-66.976186349869,0.0766731192068172,-6.96012461232351,-4.41230031268533,-4.78800700352722,-51.5421527445222,167.839970268532,89.8600314851723,0.0322158191495679,4.02401758676939,3.93652940131067,3.24373442992236,4.80792527300701,12.9925714357772,-0.776833875564285,10.7248329639064,20.672101119303,59.7390281128775,-11.3288671155835,-5.05936710297344,-3.10750498095887,-33.9993375846234,-3.19546577842292,283.718694996561,15.9094667061109,10.6167398252625,2.14046169397031,65.3941148198155,92.7031988534665,236.045147765958,26.5086378653754,0,0
108.6,-13.0983320806087,-66.1788312042229,-58.9495625855,0.232736366955731,0.388991889089247,2.37635244404646,2.21905191035294,-34.159946404401,-123.752732070769,-122.528118691328,0.929879597774313,-0.658272384229865,-1.88321867223279,-2.15138053934208,7.53039305439964,17.0699356888855,3.32767307255807,-2.36528105871882,-22.9644439400436,88.2386306636515,-5.10598396005143,20.1988378603314,-3.69739615646514,-6.96097244756799,-127.585200317212,-154.500384372166,-2.18860961633671,12.6320331657475,0.109317508287344,64.3219877851887,18.5128024514634,31.0130397076956,1620.11942952258,0.115446854523963,-0.108229687240821,-30.4893155251233,-38.7977660550665,-63.4981852984779,0.0954152041851879,-7.12150406664918,-4.87030567568712,-5.29769995564651,-49.8427660398984,182.070914124833,106.222734319106,-0.0100119262978944,3.8758560155676,3.92025510131244,3.29818898574179,6.31268782628435,13.4474381478399,-0.0522206249526964,17.1795522414548,13.913745578319,45.2918188042523,-11.704396610426,-4.63887985170614,-2.95411969433306,-33.0949586064337,-6.15673557343377,290.738243022221,13.0161837950104,11.2634215451607,2.91571965873841,58.1003805079564,75.2093420528722,258.76865390715,25.9797230839071,0,0
108.605,-13.7514666255968,-61.2456726519079,-63.3929896043245,0.230883501984106,0.236344285511082,1.87419798928508,1.64211092536471,-35.327496581546,-123.373258491172,-124.991468533102,1.03399496597026,-0.40371455646385,-1.8181245762452,-2.15099751511031,9.23606188999016,17.329091573983,3.6582290484477,-5.61370768597995,-18.0118176148625,96.2340043422067,-8.13123225139339,19.1251920506418,-3.49906257093136,-7.87510255373193,-103.563167027376,-158.535615840804,-3.36410804228927,12.9626421024182,-0.194057355505567,47.6804766455219,12.9779731104652,18.7679235517493,1714.52621623666,0.0961596926423912,-0.100565994266667,-30.8707925354092,-30.8288178571984,-60.0203500873048,0.114156395491759,-7.28287582597894,-5.3282891997912,-5.80430666344794,-48.1434603664927,196.301179412382,122.584656936426,-0.0522376582156292,3.72770150909836,3.90398157731554,3.35636295490774,7.81737862853398,13.9022831706641,0.672358074197391,23.633963741048,7.15571229346416,30.845298376483,-12.0799081990366,-4.21841265037453,-2.80074172152028,-32.1906227514073,-9.11786416732908,297.757456337408,10.1230388432324,11.9100724295774,3.69094065717212,50.8069939804914,57.7163194052818,281.491076531932,25.4508335224837,0,0
108.61,-14.3534832769648,-55.7525102199897,-66.9446628246165,0.224083353534363,0.124764370568343,1.41653180958458,1.11467684846515,-36.4482965116565,-121.365399431738,-126.775139489008,1.13410551604188,-0.116849704171774,-1.75365363512024,-2.14330376353536,10.6016194010544,17.4746003015246,3.88227642131368,-7.71611083742841,-14.0366480441267,101.918711164724,-10.8022472501494,17.7609160816079,-3.29022873047448,-8.6744384850995,-82.387762935033,-162.281503772581,-4.34382897027293,13.1395476376801,-0.44055364768151,32.8396015918115,8.19910046135834,8.06416765673256,1794.69619169112,0.0790439776965446,-0.0938536920735407,-31.1959693527222,-24.0359649658203,-56.4760840655856,0.134654960564226,-7.39389273661246,-5.71868133544922,-6.23935759366975,-46.364741323672,209.105030497138,138.171257198643,-0.0953765399467109,3.57230853762378,3.89472305019747,3.42441223584691,9.10800949177946,14.2411144812083,1.27867623576012,29.4580234027915,1.6316980542755,17.1393471284845,-12.3903333719903,-3.64788656253068,-2.62553351115553,-31.7706158808448,-10.8966049795718,305.645765456438,6.79880744618842,12.4280151099216,4.15317485906262,45.912394893811,41.2051733643075,300.369917121045,24.4476212565903,0,0
108.615,-14.6601557800753,-47.0277146519752,-65.3462899932982,0.188720272492116,0.25034129734454,1.21588438672134,0.850638662265671,-37.2988030903721,-109.956051038156,-124.6338351753,1.21106030405267,0.356460078861764,-1.69280155293113,-2.12998346230379,10.0029664487007,16.9638745015478,3.49128121180763,-3.20080789818608,-15.7065017653912,94.2600183020503,-11.4270912691687,14.7190107674603,-3.02083490191529,-8.81070593953188,-77.6553559158476,-164.3555406214,-4.19283340128636,12.4289276855005,-0.358559034651676,28.4002160560636,7.78659108644383,6.26353184578256,1792.63832216741,0.0744715124722663,-0.0926367948881157,-31.1959693527222,-24.0359649658203,-52.5493978554615,0.165293808218762,-7.21412983710235,-5.71868133544922,-6.2791965546124,-44.1280718051993,213.668770425491,149.276187880729,-0.14377392528944,3.37517157149026,3.92597141672702,3.53501685727927,9.16226241558652,13.9099845669376,1.20197382623979,31.6406122915812,3.23457285725974,7.71379659393316,-12.3248557053266,-2.21111947688164,-2.32433624450254,-34.1472126708603,-5.84778031195866,318.549600505823,0.986598961231877,12.2026419638184,2.80810472981341,54.8697398932262,30.3686194957838,297.050194625469,20.7060403043792,0,0
108.62,-14.9668429068328,-38.3025030429722,-63.7478409437341,0.15335550516495,0.375924212243706,1.01522739600616,0.594256100299521,-38.1493502254073,-98.546158590958,-122.492428753714,1.28801876164469,0.829792431624121,-1.63194656901667,-2.10630511213147,9.40428494964183,16.4531243476632,3.10026735773483,1.31471035281721,-17.3764351134605,86.6009602353869,-12.0519650838113,11.6769604003675,-2.75142822733881,-8.94697989186395,-72.9227232323152,-166.429676370454,-4.04183063209145,11.7182738474809,-0.276560511717067,23.9606188286684,7.37406204106177,4.46281017169723,1790.58035451439,0.0698988292104492,-0.0914198396750722,-31.1959693527222,-24.0359649658203,-48.6225244017053,0.195934116883629,-7.03435836561668,-5.71868133544922,-6.31342446980895,-41.8912956313683,218.232727975317,160.381648100304,-0.192173618456562,3.17802520490058,3.95722127333174,3.64692165698496,9.21651792643872,13.5788388627706,1.12526775917287,33.8233052569,4.83752409316578,-1.71220339703586,-12.2593749163671,-0.774283879140398,-2.02312461528855,-36.5239227886518,-0.798714891655235,331.454050873268,-4.82588667829455,11.9772580708196,1.46297046103203,63.8275120227257,19.5315488872921,293.730313829263,16.9642809352614,0,0
108.625,-15.2735154099433,-29.5777074749577,-62.1494681124158,0.117992424122703,0.501501139019903,0.814579973142917,0.346736838924796,-38.9998568041229,-87.1368101973765,-120.351124440007,1.36497354965548,1.30310221465766,-1.57109448682756,-2.07140051071502,8.80563199728807,15.9423985476864,2.70927214822878,5.83001329205953,-19.046288834725,78.942267372713,-12.6768091028306,8.63505508621996,-2.48203439877961,-9.08324734629633,-68.1903162131298,-168.503713219272,-3.89083506310487,11.0076538953013,-0.194565898687233,19.5212332929205,6.96155266614726,2.66217436074724,1788.52248499068,0.0653263639861708,-0.0902029424896472,-31.1959693527222,-24.0359649658203,-44.6958381915813,0.226572964538164,-6.85459546610657,-5.71868133544922,-6.34133251655644,-39.6546261128955,222.79646790367,171.48657878239,-0.240571003799291,2.98088823876707,3.98846963986128,3.75944485944163,9.27077085024577,13.2477089485,1.04856534965254,36.0058941456897,6.44039889615002,-11.1377539315872,-12.1938972497034,0.662483206508639,-1.72192734863556,-38.9005195786674,4.25010977595792,344.357885922653,-10.6380951632511,11.7518849247164,0.117900331782826,72.7848570221409,8.6949950187684,290.410591333686,13.2226999830504,0,0
108.63,-15.5802025367009,-20.8524958659547,-60.5510190628518,0.0826276567955365,0.627084053919069,0.613922982427741,0.109122818530221,-39.8504039391582,-75.7269177501784,-118.209718018421,1.4419320072475,1.77643456742002,-1.5102395029131,-2.02465203990275,8.20695049822922,15.4316483938018,2.31825829415597,10.3455315430628,-20.7162221827943,71.2832093060496,-13.3016829174733,5.59300471912717,-2.21262772420313,-9.2195212986284,-63.4576835295974,-170.577848968326,-3.73983229390996,10.2970000572817,-0.112567375752624,15.0816360655253,6.54902362076521,0.861452686661909,1786.46451733766,0.0607536807243537,-0.0889859872766037,-31.1959693527222,-24.0359649658203,-40.7689647378251,0.257213273203031,-6.67482399462089,-5.71868133544922,-6.36231077893764,-37.4178499390645,227.360425453496,182.592039001965,-0.288970696966412,2.78374187217739,4.019719496466,3.87198292447154,9.32502636109797,12.916563244333,0.971859282585619,38.1885871110085,8.04335013205606,-20.5637539225563,-12.1284164607438,2.09931880424988,-1.42071571942158,-41.2772296964589,9.29917519626134,357.262336290098,-16.4505808027775,11.5265010317177,-1.22723393699855,81.7426291516405,-2.14207558972328,287.09071053748,9.48094061393258,0,0
108.635,-15.8868750398114,-12.1277002979401,-58.9526462315334,0.0472645757532896,0.752660980695266,0.413275559564498,-0.117659603257885,-40.7009105178738,-64.3175693565969,-116.068413704713,1.51888679525829,2.24974435045355,-1.44938742072399,-1.96573422464437,7.60829754587546,14.920922593825,1.92726308464992,14.8608344823051,-22.3860759040588,63.6245164433757,-13.9265269364925,2.5510994049796,-1.94323389564394,-9.35578875306078,-58.725276510412,-172.651885817144,-3.58883672492339,9.58638010510212,-0.0305727627227894,10.6422505297773,6.1365142458507,-0.93918312428809,1784.40664781395,0.0561812155000754,-0.0877690900911787,-31.1959693527222,-24.0359649658203,-36.842278527701,0.287852120857567,-6.49506109511078,-5.71868133544922,-6.37586306337874,-35.1811804205918,231.924165381849,193.696969684052,-0.337368082309141,2.58660490604387,4.05096786299555,3.98399225907618,9.37927928490502,12.5854333300623,0.895156873065288,40.3711759997982,9.6462249350403,-29.9893044571076,-12.0629387940801,3.53608588989892,-1.11951845276859,-43.6538264864744,14.3479998638745,370.166171339483,-22.2627892877341,11.3011278856145,-2.57230406624776,90.6999741510557,-12.978629458247,283.770988041903,5.73935966172154,0,0
108.64,-15.9474754333496,-10.4036264419556,-54.0835665520971,0.020095331506411,1.0762812588504,0.373626381158829,-0.17189283508332,-40.8689759063721,-62.0630111694336,-110.784408243448,1.55398774731446,3.13478794656181,-1.43736267089844,-1.94343071480185,7.7790875738841,14.4263835858414,1.75037094911341,13.7205811921938,-18.5300564735762,53.5798317283699,-12.9916454922209,3.27947618724097,-1.22852843263807,-9.73961428874581,-43.3790968086097,-165.703978816328,-3.29965355279807,9.54335849756002,0.0728607286698926,8.60456684790792,6.36940301187872,-5.03353917980998,1782.20341055778,0.0581147616771027,-0.0878343308442304,-31.1709804467813,-14.6611458787258,-32.256353927337,0.310810818042392,-6.13482088197327,-5.99723344814908,-6.66017202902809,-34.7392006158829,232.825988769531,201.57989268425,-0.356091483153388,2.26979698304976,4.05714273452759,4.06991270768781,9.49452884027446,12.2390787417623,0.870200421224263,38.3203124541304,11.0820506626608,-40.2298867928326,-12.451782729805,4.99758271621712,-1.19556083973096,-45.3010193425982,15.0472556257596,370.677495032456,-23.4113178253174,11.2565927505493,-2.8380982875824,92.4700012207031,-15.1199998855591,283.114990234375,5,0,0
108.645,-15.9474754333496,-10.4036264419556,-48.4093442473386,-0.00505451477729595,1.44865171693399,0.373626381158829,-0.174397484692057,-40.8689759063721,-62.0630111694336,-104.726807016195,1.57877984524964,4.1211709696837,-1.43736267089844,-1.92119030053514,8.13934758766609,13.9358600642513,1.62621354323374,11.1876796514793,-13.313485443295,42.9481785351523,-11.6727274756631,4.93626517717623,-0.404204672289443,-10.1843797378594,-25.4201213011821,-156.534774726975,-2.97645800580736,9.66473970448103,0.181567531118211,7.1584383220971,6.76121125777955,-9.69249485129635,1779.96450651733,0.0616503388560812,-0.0882153021877441,-31.1398393517917,-2.97827619275839,-27.5083602774985,0.331876865937719,-5.73015841143981,-6.34436420376048,-7.0050325236719,-34.7392006158829,232.825988769531,208.668907747869,-0.367506367527314,1.92353816646714,4.05714273452759,4.14818812798843,9.62479234808263,11.8889955645279,0.857988217367246,35.2270567035157,12.4766541895423,-50.6705672508376,-12.9524830879427,6.46508254636862,-1.36449632641969,-46.7684940447583,14.6753613519245,368.137055094299,-23.4113178253174,11.2565927505493,-2.8380982875824,92.4700012207031,-15.1199998855591,283.114990234375,5,0,0
108.65,-15.9474754333496,-10.4036264419556,-42.7348513678672,-0.0302055603288625,1.82103993146497,0.373626381158829,-0.164514188709614,-40.8689759063721,-62.0630111694336,-98.6689169328455,1.60357312539348,5.10760102837963,-1.43736267089844,-1.88752551545306,8.49962478041016,13.4453131520969,1.50205021692081,8.6546573296126,-8.0966656613553,32.3160183726345,-10.353746566634,6.5931331709258,0.420158395853776,-10.6291663955681,-7.46028942183571,-147.365133405059,-2.6532470472699,9.78612669945254,0.290279517239337,5.71224083779476,7.1530381870167,-14.3516726846096,1777.72549571497,0.0651860846286975,-0.0885962916978376,-31.1086967718422,8.70515058966058,-22.7601402200662,0.352943918365396,-5.32547664461764,-6.69151151226663,-7.34179727777428,-34.7392006158829,232.825988769531,215.75826085045,-0.37892179621884,1.57726283856811,4.05714273452759,4.22454960297412,9.75506206749292,11.5388956936127,0.845775431172531,32.1336534513155,13.8713242179511,-61.1117455716274,-13.453207321926,7.93265235410012,-1.5334398687799,-48.2360387233001,14.3034493443489,365.596494015522,-23.4113178253174,11.2565927505493,-2.8380982875824,92.4700012207031,-15.1199998855591,283.114990234375,5,0,0
108.655,-15.9474754333496,-10.4036264419556,-37.0606290631087,-0.0553554066125694,2.19341038954857,0.373626381158829,-0.142170664134485,-40.8689759063721,-62.0630111694336,-92.6113157055933,1.62836522332866,6.09398405150152,-1.43736267089844,-1.84324609908921,8.85988479419215,12.9547896305067,1.37789281104113,6.12175578889804,-2.8800946310741,21.6843651794169,-9.03482855007619,8.24992216086106,1.2444821562024,-11.0739318446817,10.4986860855919,-138.195929315706,-2.33005150027919,9.90750790637355,0.398986319687656,4.26611231198394,7.54484643291754,-19.010628356096,1775.48659167451,0.068721661807676,-0.0889772630413514,-31.0775556768526,20.388020275628,-18.0121465702278,0.374009966260724,-4.92081417408419,-7.03864226787804,-7.67050050575658,-34.7392006158829,232.825988769531,222.84727591407,-0.390336680592766,1.23100402198549,4.05714273452759,4.29854159408673,9.88532557530109,11.1888125163783,0.833563227315514,29.0403977007007,15.2659277448326,-71.5524260296324,-13.9539076800637,9.40015218425162,-1.70237535546863,-49.7035134254601,13.9315550705138,363.056054077364,-23.4113178253174,11.2565927505493,-2.8380982875824,92.4700012207031,-15.1199998855591,283.114990234375,5,0,0
108.66,-15.9474754333496,-10.4036264419556,-31.3861361836373,-0.0805064521641359,2.56579860407954,0.373626381158829,-0.107543618165751,-40.8689759063721,-62.0630111694336,-86.5534256222434,1.65315850347251,7.08041411019745,-1.43736267089844,-1.78941445339922,9.22016198693622,12.4642427183524,1.2537294847282,3.58873346703138,2.33672515086559,11.0522050168992,-7.71584764104704,9.90679015461063,2.06884522434562,-11.5187185023904,28.4585179649383,-129.02628799379,-2.00684054174173,10.0288949013451,0.507698305808782,2.81991482768159,7.93667336215469,-23.6698061894092,1773.24758087215,0.0722574075802924,-0.0893582525514448,-31.0464130969031,32.0714470580469,-13.2639265127955,0.3950770186884,-4.51613240726202,-7.38578957638418,-7.99139787186144,-34.7392006158829,232.825988769531,229.936629016651,-0.401752109284292,0.884728694086454,4.05714273452759,4.36967714672682,10.0155952947114,10.8387126454631,0.821350441120799,25.9469944485005,16.6605977732413,-81.9936043504221,-14.4546319140469,10.8677219919831,-1.87131889782884,-51.1710581040019,13.5596430629381,360.515492998587,-23.4113178253174,11.2565927505493,-2.8380982875824,92.4700012207031,-15.1199998855591,283.114990234375,5,0,0
108.665,-15.9687466155987,-7.08707082802573,-25.1725583695477,-0.0971380077434719,3.00704077452808,0.300907957569723,-0.133785720895094,-41.5283454336122,-58.9210116147967,-79.6291153267344,1.63962477216447,8.60172804292823,-1.13151753388564,-1.42147530555359,8.70774100982169,12.0669668827527,1.36164294937849,7.14414929274866,-2.37563540383963,5.45835114726555,-7.49944708936047,9.95132703770851,2.03592419163396,-12.0754977393818,23.1759027778784,-126.462524398042,-1.91749511157127,9.6105555456705,0.870489286488869,3.73289092023029,10.8751020054674,-28.0082378660615,1771.05371280994,0.0799546172415734,-0.0890677122942137,-30.4633650248624,40.5201311628547,-4.73715867785363,0.399737132339813,-3.9035473464666,-7.47336766839452,-8.04528033961947,-32.1070454068258,221.13076609113,230.844518155583,-0.40333938062774,0.306012674087281,4.05714273452759,4.43742454108395,10.1394786544406,10.8559557567141,0.396682536162877,20.0063590705806,17.3374289677002,-92.4410687747413,-13.8409637784183,12.4848496745666,-1.58102690857865,-50.1018861914771,0.564295292113876,338.209685239694,-27.4463381297507,9.96946464966333,-2.43605287373241,92.8702057074637,0.232556876147068,256.164996284472,5,0,0
108.67,-15.9926635807568,-3.35799060417111,-18.8916230848815,-0.112711228254717,3.4568672022114,0.219144566002561,-0.157919020450092,-42.269729613608,-55.3881993340844,-72.596711916155,1.62132512442452,10.1896255601443,-0.78763032535934,-1.00871930312968,8.08679014439068,11.6812661249299,1.49841626775537,11.4567302203356,-8.32274191400455,0.490609139058502,-7.42011856470188,9.79540545475887,1.89641540688954,-12.6462308456952,15.0032748649885,-124.719931008351,-1.85722135279547,9.1250896756005,1.26488931603036,4.93923161179304,14.1303067480501,-32.3070238261355,1768.86533971591,0.0881696336778638,-0.0886936652778853,-29.8116673772141,48.5670932225586,4.25985251243246,0.40235762391807,-3.26508086149227,-7.52867825906656,-8.05997519199231,-29.1474936673691,207.980851336068,230.983915602334,-0.403704803932434,-0.301633684803175,4.05714273452759,4.50120283913044,10.2625746409798,10.9188714831675,-0.0792886117886559,13.711409306272,17.9250476688749,-102.88987487494,-13.0887105273455,14.1206585623541,-1.23362267990139,-48.717267412847,-14.0012188352804,313.445271816048,-31.9832481568029,8.52223912254661,-1.98399966660921,93.3201890066458,17.4947175241474,225.862869267671,5,0,0
108.675,-16.0165794054912,0.370911807351655,-12.6109872916937,-0.128283706193938,3.90667218099011,0.137385073128492,-0.171849596143524,-43.0110784424603,-51.8555555071334,-65.5646438290264,1.60302634925979,11.7774473622394,-0.443759514277662,-0.59085662535674,7.46586888752658,11.2955837583315,1.63518306442147,15.7691055127458,-14.2695648505232,-4.476895994172,-7.34079382263553,9.63949130655952,1.7569132742901,-13.2169367379562,6.83103664444615,-122.977420710087,-1.79695046803066,8.63964695381727,1.65927053954336,6.14551478186563,17.3853562739275,-36.6056048088129,1766.67707096926,0.0963842584006107,-0.0883196360971003,-29.1600008042201,56.6136715819927,13.2564347016128,0.404977990544411,-2.62664482027558,-7.58398621238449,-8.06841177638782,-26.1880830471066,194.831563603452,231.123306402249,-0.404070209812786,-0.909251069520501,4.05714273452759,4.56038776388822,10.3856647579793,10.9817842096339,-0.555237064186691,7.41675970168892,18.5126383508478,-113.338182748642,-12.336493145682,15.7563894504806,-0.886235016369495,-47.3327146564741,-28.5660384407346,288.682039224628,-36.519941852078,7.0750826029412,-1.53196801456931,93.7701508494431,34.7560550670242,195.562187135813,5,0,0
108.68,-15.9455097856028,6.11750572962136,-6.61866644845881,-0.146194840991597,4.27139782478274,0.21181273014123,-0.0206005340568417,-43.6155597068551,-45.0671718300185,-58.7380460500381,1.58515933546962,13.084174495765,0.303519134443154,0.233758049180232,7.15296692404008,11.0460141903172,1.88379434474124,18.8586784300996,-19.7487066922236,-9.0808356004864,-7.12853662353921,9.37237113939898,1.52410006260432,-13.1809239679301,-0.957226163977002,-119.461193037779,-1.81596392838406,8.40597607804857,1.86233663332426,6.81724165754396,20.4414363033783,-40.5061743699251,1760.71812395659,0.104549729419975,-0.087863821626092,-28.3141508364956,63.9727029907883,22.4238345756781,0.407380089724227,-1.98509681298061,-7.41737156671057,-7.8494589842554,-23.3710547570792,177.371585055464,228.357135898333,-0.404195369640046,-1.51059360388078,3.88971626447616,4.4469014776523,10.2908305509182,10.9692868322203,-0.974322308013369,3.10543936396052,17.2263848956079,-121.96740709825,-11.43214889399,17.0828558013356,-0.614887312186984,-46.0167595426534,-40.5221240647994,262.699794796884,-40.5354527985313,5.66706312159216,-0.732470181243547,95.4570784146877,49.1526104751135,163.596341880216,4.80827420701169,0,0
108.685,-15.5629024113558,18.4809550328712,-1.57324156369034,-0.171773114951301,4.35698881601623,0.798519049464932,0.650476864642299,-43.7709919963058,-27.6013468287898,-52.5867840649704,1.56871214531731,13.4686444373761,2.37382298477366,2.38287585201183,7.85043210037564,11.2429455342237,2.49920479444909,17.9368290321833,-23.692736350708,-12.4913406990045,-6.48030428318029,8.74054974436559,0.98527402441568,-11.1548813351471,-7.48446017925968,-110.127889976092,-2.0950261604271,8.9981645451414,1.43784765952394,5.73548680049164,22.8442726947479,-43.1004704336989,1742.39256834307,0.112552309869586,-0.0871398444265129,-26.8315519564976,69.0750785583447,32.1496455582327,0.409065781455116,-1.33347248511363,-6.52288479933232,-6.89806161113504,-21.0216154139557,145.776103893982,216.061288842445,-0.403532496870342,-2.09123190610378,3.17316514132342,3.77839260837269,9.4812239148581,10.7094468645659,-1.20681070012521,5.3003188828088,9.7941851710155,-124.628276422639,-10.0290130686561,17.3946637625209,-0.593006051752931,-44.9260732586718,-43.9191222124322,232.724494044859,-42.8406648368191,4.38770047663859,1.20655356387675,101.200909278628,54.149742408567,126.175285220644,3.98772694073456,0,0
108.69,-15.1802767925151,30.8449938859424,3.4724239116501,-0.197352608608395,4.44258388864742,1.38525334581974,1.32747486543445,-43.9264316975294,-10.134688971474,-46.4352287576012,1.55226417088241,13.8531327123973,4.44422555733251,4.53165924414008,8.54793053526713,11.4398862687813,3.11464458994158,17.0149356759723,-27.636954079845,-15.902008427111,-5.83204103192822,8.1086982209933,0.446422292362266,-9.12874209072736,-14.0120054450318,-100.794141856798,-2.37410169952426,9.59038125068098,1.01333844401012,4.65368036006909,25.2472236651262,-45.6948902062164,1724.0661388773,0.120555271921432,-0.0864158327041547,-25.3488823789229,74.1776974321606,41.8759203150939,0.410751553568044,-0.681817084606927,-5.62835537844364,-5.94302624757452,-18.6720640380564,114.179116105197,203.764855460341,-0.402869592491617,-2.6718978960051,2.45657984950333,3.10332844297579,8.67157867278798,10.4495945064691,-1.43931017842237,7.49530306426348,2.36163104273585,-127.28927263031,-8.62581033493322,17.706486592237,-0.571123747913203,-43.8353349654259,-47.316282345576,202.747763923669,-45.1459867989082,3.10827682540754,3.14566977114692,106.945014036558,59.1471126297479,88.7524441417947,3.16714054674457,0,0
108.695,-14.7976694182681,43.2084431891922,8.51784879641857,-0.2229308825681,4.5281748798809,1.97195966514344,2.0084959995923,-44.0818639869801,7.33113602975474,-40.2839667725335,1.5358169807301,14.2376026540083,6.51452940766302,6.67799953022788,9.24539571160269,11.6368176126878,3.73005503964942,16.093086278056,-31.5809837383293,-19.3125135256291,-5.1838086915693,7.47687682595991,-0.0924037458263739,-7.10269945794433,-20.5392394603145,-91.4608387951112,-2.6531639315673,10.1825697177738,0.588849470209803,3.57192550301676,27.6500600564957,-48.2891862699902,1705.74058326377,0.128557852371044,-0.0856918555045755,-23.8662834989248,79.280072999717,51.6017312976485,0.412437245298933,-0.0301927567399555,-4.73386861106539,-4.98547261612071,-16.3226246949329,82.5836349437153,191.469008404453,-0.402206719721913,-3.25253619822809,1.74002872635058,2.4212192654255,7.86197203672787,10.1897545388147,-1.67179857053421,9.69018258311175,-5.07056868185659,-129.950141954698,-7.22267450959933,18.0182945534224,-0.54924248747915,-42.7446486814444,-50.7132804932088,172.772463171644,-47.4511988371959,1.82891418045396,5.08469351626721,112.688844900497,64.1442445632014,51.3313874822228,2.34659328046745,0,0
108.7,-14.2822525203328,51.6743127690895,14.5578303988382,-0.245614321024039,4.44818341699278,2.52490632939983,2.65781977898599,-44.0263951495671,13.4529738174782,-33.4168640516846,1.52172227867233,14.4,8.30310716245345,8.53840399089393,9.85499783310061,11.8381241874127,3.6779188135022,14.2021708230116,-31.3042829108623,-24.5123198188959,-5.32853878749942,8.20895146145325,-0.715205614677122,-6.53137664397518,-24.0254579469921,-82.1173211059569,-2.77103781700134,10.4327058792114,0.409548372030258,3.11500000953674,28.6650009155273,-49.3849983215332,1698,0.131938084959984,-0.0853860527276993,-22.7938016848827,81.8538134711694,59.0956613386705,0.409002203551214,0.524055581065763,-4.00861032891298,-4.19565102608521,-15.1294291461984,61.5996877478607,174.345649887763,-0.397178689835854,-3.68482299057214,1.13095451448485,1.8390499257864,7.2575018057495,10.0187504213415,-1.59791785043577,11.8523577589564,-14.0467705470514,-129.768784699372,-5.9314631386334,17.8947934222564,-0.337293061106577,-39.8228049962934,-49.8832460331473,144.944548776638,-46.7630709685192,0.601853206734357,5.31240696181926,104.513717225114,60.2984761071721,28.9049426933783,1.70833533972167,0,0
108.705,-13.6697651796097,57.2894949576183,21.3245532447242,-0.266179125145256,4.24712134265128,3.05312161085527,3.28238242675999,-43.8167157530554,11.2793550611191,-26.0268910869171,1.50934892664291,14.4,9.88553349475348,10.1866744418492,10.4003024028507,12.042613401069,3.1376633601387,11.6028109054786,-27.9413220583226,-31.0200698282591,-6.05308698897289,9.93827382385514,-1.39936088505801,-7.02382132859173,-25.2877370436358,-72.7671055752627,-2.77103781700134,10.4327058792114,0.409548372030258,3.11500000953674,28.6650009155273,-49.3849983215332,1698,0.131938084959984,-0.0853860527276993,-22.0212942353816,82.5783527356082,64.9569766108187,0.401823062240036,1.00705488731292,-3.40715518201007,-3.52920294277151,-14.7818007698469,48.3768394305536,153.693731592199,-0.388959184491087,-4.00859649570305,0.600519856390952,1.32765690171069,6.80308133095777,9.91271897722348,-1.30001998362785,13.9904403769751,-24.1512367972216,-127.509149279454,-4.72219976404872,17.4529957384311,0.0136205277603858,-35.5622234528071,-45.9623889872762,118.689143566449,-43.8862096700899,-0.586862442173932,4.28875716261143,86.1614424790967,49.9869188215585,17.4447104186243,1.20342370106419,0,0
108.71,-13.0572486324901,62.9049449055381,28.0915987611002,-0.286744909897065,4.04604968068523,3.58136208020264,3.90479525068901,-43.607026358003,9.10563265597085,-18.6365657320411,1.49697498459147,14.4,11.4680352848921,11.827403192214,10.9456329753937,12.2471123657726,2.5973821447489,9.00332703773257,-24.578200843337,-37.5281301590189,-6.7776697404536,11.6676786488178,-2.08354877931331,-7.51628949538293,-26.5500763319298,-63.4164441804929,-2.77103781700134,10.4327058792114,0.409548372030258,3.11500000953674,28.6650009155273,-49.3849983215332,1698,0.131938084959984,-0.0853860527276993,-21.2487499489414,83.3029265496282,70.818571379189,0.394643578592234,1.49007722533283,-2.80567135477971,-2.86333866943753,-14.4341558168716,35.1533605830707,133.040828512015,-0.380739287200044,-4.3323854399406,0.0700599045743894,0.808206238128142,6.34863918717197,9.8066824770068,-1.00210791159048,16.1286249492458,-34.2561848778362,-125.249406109051,-3.51287872586313,17.0111769875283,0.364550849906109,-31.3014387439236,-42.0413449757361,92.4324863699352,-41.0092111888225,-1.77563477486692,3.26505855076715,67.8082926067268,39.6748698303855,5.983931663861,0.698487985746617,0,0
108.715,-12.4447320853705,68.5203948534579,34.8586442774761,-0.307310694648873,3.84497801871918,4.10960254955,4.52288926742392,-43.3973369629506,6.9319102508226,-11.2462403771652,1.48460104254002,14.4,13.0505370750306,13.459061971596,11.4909635479366,12.4516113304762,2.0571009293591,6.40384316998655,-21.2150796283515,-44.0361904897787,-7.5022524919343,13.3970834737805,-2.76773667356862,-8.00875766217413,-27.8124156202237,-54.0657827857231,-2.77103781700134,10.4327058792114,0.409548372030258,3.11500000953674,28.6650009155273,-49.3849983215332,1698,0.131938084959984,-0.0853860527276993,-20.4762056625013,84.0275003636481,76.6801661475593,0.387464094944433,1.97309956335273,-2.20418752754935,-2.19907899028142,-14.0865108638963,21.9298817355878,112.38792543183,-0.372519389909001,-4.65617438417814,-0.460400047242174,0.280728261884433,5.89419704338616,9.70064597679012,-0.704195839553113,18.2668095215165,-44.3611329584508,-122.989662938648,-2.30355768767754,16.5693582366254,0.715481172051832,-27.0406540350401,-38.1203009641959,66.1758291734215,-38.1322127075552,-2.96440710755991,2.24135993892286,49.4551427343569,29.3628208392126,-5.4768470909023,0.193552270429046,0,0
108.72,-11.9171623828274,61.882363716701,40.0545929974435,-0.322981681746322,3.52512627347097,4.47724017816956,4.97397697586657,-43.4919114965277,-5.27043143866019,-7.46047234530872,1.42548478233336,14.4,13.9213861662347,14.3687664585855,11.407590824112,12.5741064120054,1.46121014602599,6.75258238718059,-19.3188829440493,-46.7527071477184,-7.05306098731744,15.9712778535698,-3.10514425749076,-12.9752213095989,-10.7384351660033,-56.693084086731,-2.55272398067999,11.118164360972,0.925598427959754,-1.51045587937314,32.2670244380081,-80.3052283782365,1648.50280430499,0.140790993457409,-0.0852684170853995,-19.5588088505246,86.5321836368919,80.6883996787623,0.364686336761414,2.38250878957826,-1.63039698931861,-1.56503648785289,-14.0139496050105,10.5318547943171,91.7827186229057,-0.362345285688745,-4.83146472515811,-1.1017486617646,-0.365478793164525,5.54520792279321,9.26467586276593,-0.572030721034796,18.7153370000456,-50.4590476653873,-120.443500630976,-1.59986509019249,15.9589358799454,1.21755343337883,-22.8037778738434,-26.0999113576379,46.0797762544516,-37.0293998718262,-3.42008805274963,1.84895515441895,42.4200019836426,25.4099998474121,-9.86999988555908,0,0,0
108.725,-11.4423579226171,47.6266112320588,44.2742927847162,-0.335611096978915,3.1314117891839,4.74506968747406,5.31688626593543,-43.7756348312792,-23.7078700016703,-5.91513507062224,1.33730723138204,14.4,14.3499134821803,14.8248707655179,10.9333868930322,12.6456343792633,0.83070436056796,8.93407091763246,-18.3344330974735,-47.1124728723806,-5.87417411954927,19.0708231014097,-3.22700672022635,-20.7232667798245,17.7353866422635,-66.7665243772734,-2.19868146789531,12.2297816884915,1.76248381095955,-9.01162050218617,38.108474895282,-130.448985318322,1568.23252993785,0.155147875378844,-0.0850776457669405,-18.5512955175456,90.1436411620668,83.5448266253645,0.332210364323307,2.74618909556804,-1.07377723362187,-0.951515455241503,-14.1123847314885,0.267713551089784,71.2055681948852,-0.350955588860372,-4.91445650588085,-1.81207928279081,-1.08814138453812,5.26174523773433,8.62357334141783,-0.542889697337167,18.1135470606106,-54.0665167045003,-117.719092916034,-1.21043504623312,15.243656207367,1.8136198271942,-18.5814365053076,-9.04374541115146,29.8118243047251,-37.0293998718262,-3.42008805274963,1.84895515441895,42.4200019836426,25.4099998474121,-9.86999988555908,0,0,0
108.73,-10.9675761023296,33.3715384991087,48.4937913656286,-0.348239910007846,2.73771607823672,5.01288642596466,5.64962104261683,-44.0593446373574,-42.1444294192215,-4.36987148167268,1.24913388496777,14.4,14.7784203648188,15.2689803684313,10.4592055732404,12.7171589358799,0.200228639280507,11.115455428986,-17.3500301920501,-47.4722214424689,-4.69534346420088,22.1702205547976,-3.3488633722399,-28.4709428029077,46.2078507439783,-76.8394843397454,-1.84465583678681,13.3413460111794,2.59932928906792,-16.5124274497835,43.9496468168676,-180.590351272476,1487.96608306806,0.16950407272647,-0.0848868835449586,-17.5438302254466,93.7549264834689,86.4011173700334,0.299735940424797,3.10985206032637,-0.5171840190159,-0.342089790546035,-14.2108151643214,-9.99593827094528,50.6293989394008,-0.339566435122635,-4.99744432933768,-2.52237603338878,-1.81770769543705,4.97829606892021,7.9825013895205,-0.513750063160027,17.5117858160992,-57.6738137300219,-114.994815108002,-0.821023571320293,14.5284106412005,2.40965779899957,-14.3592964690896,8.01160725257957,13.544648053642,-37.0293998718262,-3.42008805274963,1.84895515441895,42.4200019836426,25.4099998474121,-9.86999988555908,0,0,0
108.735,-10.4927716421193,19.1157860144665,52.7134911529013,-0.36086932524044,2.34400159394965,5.28071593526917,5.97064496266902,-44.3430679721089,-60.5818679822316,-2.8245342069862,1.16095633401645,14.4,15.2069476807643,15.7007384228197,9.9850016421606,12.7886869031378,-0.430277146177528,13.2969439594379,-16.3655803454744,-47.8319871671311,-3.51645659643271,25.2697658026376,-3.4707258349755,-36.2189882731333,74.681672552245,-86.9129246302877,-1.49061332400213,14.4529633386989,3.43621467206772,-24.0135920725966,49.7910972741415,-230.734108212561,1407.69580870092,0.183860954647905,-0.0846961122264996,-16.5363168924677,97.3663840086438,89.2575443166356,0.26725996798669,3.47353236631615,0.0394357366808413,0.262696488352353,-14.3092502907994,-20.2600795141726,30.0522485113802,-0.328176738294262,-5.08043611006041,-3.23270665441499,-2.55355932781229,4.69483338386133,7.34139886817241,-0.484609039462398,16.9099958766643,-61.281282769135,-112.27040739306,-0.431593527360925,13.8131309686221,3.00572419281494,-10.1369551005539,25.067773199066,-2.72330389608446,-37.0293998718262,-3.42008805274963,1.84895515441895,42.4200019836426,25.4099998474121,-9.86999988555908,0,0,0
108.74,-10.6010235448126,1.89544542037225,47.7819067763747,-0.3669401877696,1.83827773443082,5.13173508975705,5.86185113008896,-45.1758527677692,-77.9755890929401,-11.8884477938647,1.07913818850622,14.4,15.2069582392849,15.6915153939225,7.66547279335279,11.8205699461903,-0.73178072867837,18.6242155229231,-20.9290096899953,-37.3338170641393,-1.89486290726494,26.0864766846032,-3.42425122323963,-38.7543817592105,91.987863129074,-95.2937753786252,-1.54158752572381,15.332506476419,3.23680702156539,-17.0029419046036,59.8325417644875,-259.177494678348,1340.81393915266,0.188942506511902,-0.0846333090313375,-15.6881646395213,91.9188093612886,89.9470700477403,0.235815635947965,3.82200059995496,0.69153175400242,0.957825469264178,-14.4487041892666,-19.9314543117945,17.0307068398889,-0.310439454557112,-5.03956670585314,-3.68787534875889,-3.03968934564457,4.35753130337626,7.15384643045193,-0.486801597595913,17.5201656766119,-63.8167578240009,-111.425252492102,-0.256640040068326,12.1174949593538,3.2269631551235,-7.88489537478195,33.1227398347958,-19.3949164981695,-34.7955032749468,-3.86860490246381,-0.182945824389585,35.9607510861937,27.6477252143004,-25.0817738341996,0,0,0
108.745,-10.8188317071441,-15.8828853798875,41.1306134865311,-0.371779111448939,1.31147985080963,4.90443154526609,5.66076241330816,-46.1118475810248,-95.1741919829522,-22.9462408993451,0.998510273521786,14.4,15.1264550290381,15.5895239040386,4.99909550900896,10.6570598584766,-0.971485353230503,24.5428482279138,-26.5350853869696,-24.7949609233979,-0.189997431517837,26.4743133805078,-3.34614522198107,-40.3105166501856,107.196754136168,-103.357081170537,-1.66866297454072,16.1684951480449,2.84267956819816,-7.26527801103724,70.6636895318353,-283.545222059689,1276.44382087405,0.192281609738271,-0.0845945461364915,-14.8699066060274,84.7688297467345,90.2294970020198,0.204563357091108,4.16763038475755,1.36160368929312,1.66546304411391,-14.595872980709,-17.6125416433874,5.42804659491482,-0.29150852161524,-4.9754227791684,-4.09512759685204,-3.48243681144755,4.0100942632951,7.05150063569935,-0.494881528760584,18.35808446406,-66.1509601604636,-110.933141458203,-0.121974520657022,10.237564308372,3.37778853686416,-6.00290317757707,39.4869325299375,-36.1433170234716,-32.1417545817468,-4.40141873344861,-2.59673461602732,28.2875093380744,30.306022279803,-43.152540983338,0,0,0
108.75,-11.0366294838109,-33.6603684626764,34.4796373478076,-0.376617804395698,0.784707086294085,4.67713883920469,5.44509792945541,-47.0477977635913,-112.371974798442,-34.0035067402296,0.917886203087945,14.4,15.0459556573956,15.4757791137453,2.33284536453183,9.49360524997754,-1.21117854803704,30.4611987169639,-32.1408937715418,-12.2567026682249,1.51478675176905,26.8621315833408,-3.26804294502163,-41.866577340565,122.404919943424,-111.420002482866,-1.79573236406672,17.0044439575369,2.44857090786227,2.47192156515861,81.4943208416318,-307.911787523837,1212.07677193163,0.195620553747436,-0.084555785089962,-14.051687589224,77.6191910619732,90.5119104894408,0.173312568424926,4.51324368902491,2.03164367379538,2.36740183695192,-14.7430347547573,-15.2937395468222,-6.17406040476814,-0.272578491349934,-4.91128191103443,-4.50236042608918,-3.92872939668969,3.66267378992385,6.94915972106285,-0.502961074652931,19.1959632973413,-68.4850511960328,-110.441053889451,0.0126845775488929,8.35772329741741,3.52860672685479,-4.12100071869934,45.8508217636689,-52.8909189410814,-29.4881324262491,-4.9342071584716,-5.01040831188059,20.6146334702597,32.9641925907249,-61.2224464708729,0,0,0
108.755,-11.3420273955509,-51.1846819363758,26.6059730873794,-0.37967831890494,0.264541836057152,4.41381213711636,5.17856927300742,-48.0470178393355,-127.555873547302,-45.6740912985044,0.837694650241806,14.4,14.955800502993,15.3413826518619,-0.141730819110866,8.26694610157184,-1.32748975462988,36.0568200958476,-36.783292569601,1.42847646110604,3.22146392073455,26.9890486071484,-3.19474373605851,-43.5462503450347,135.05817845997,-119.315729677214,-1.78474334160767,17.6885802045417,2.12368588056865,11.5829482585889,91.8890933619438,-332.376646432601,1146.92418426104,0.19906323468516,-0.0844323189409574,-13.2676234169618,70.208721916526,90.2383184674806,0.146479402228381,4.85101269857167,2.66529020260322,3.02721158078862,-14.8857947677907,-13.4244449764588,-16.6151274069015,-0.253777604433831,-4.83971953943756,-4.85683485750106,-4.32482895437526,3.42587850806662,6.73420008300048,-0.429754370493326,19.6905837379286,-70.1732922942136,-109.552476660922,0.028028479535194,6.63309643616748,3.55802847953522,-1.92254378498779,51.687509006127,-68.2636481651197,-26.934918273959,-5.36262174505301,-7.14577145898541,15.4961917402463,38.0518019109703,-79.3750010379254,0.105125278829693,0,0
108.76,-12.2396344375195,-66.9906634072851,10.4678238827309,-0.370714266216579,-0.210753150996772,3.90693333261876,4.65379423260383,-49.4736774888325,-129.116957419751,-61.4874080485486,0.760457312007125,14.4,14.8003896136263,15.131726194523,-1.31935739482285,6.61337345022566,-0.609491103387459,39.4681866767599,-34.9097270655172,22.8636774970748,4.94030917673912,25.3517941069668,-3.15394835814701,-46.0611259051758,130.431344652394,-126.078025242133,-0.840254615986317,17.3459586229427,2.26698762629854,16.4566360938325,99.3328907318479,-357.497077648624,1076.48416506718,0.203206075135781,-0.083736151549883,-12.7147928027817,61.0373489784862,86.2053085830583,0.149526619335475,5.13561626268725,3.05262211924761,3.43502590134386,-14.9987387431659,-14.5952583995357,-19.2017747857066,-0.235856898819303,-4.7180019843116,-4.85444385490149,-4.36563172747831,3.93718057789076,5.75783070498522,0.193055065622242,17.8640252536606,-67.4938921647175,-105.9833007992,-0.763401851947912,5.95861285469733,2.7665981480521,2.41553261514874,53.9572765343719,-74.3342690098928,-25.0615736378632,-5.08513757407916,-7.3985035591689,27.6518544289447,59.564564114643,-98.0796822253405,0.921032837059709,0,0
108.765,-13.1372842817885,-82.7973985848118,-5.67109486791951,-0.361749786078279,-0.686070802443765,3.40003035765698,4.11481238979119,-50.9004051684497,-130.678115732326,-77.3014788549921,0.683216290717832,14.4,14.6449713135072,14.9132392430412,-2.49704012553821,4.95972194843595,0.108541785547553,42.8797159283404,-33.0360722206532,44.2999006684227,6.65923639570472,23.7144615344711,-3.11315103491207,-48.5761213869019,125.804290214719,-132.840643266427,0.104279147483764,17.0033207034684,2.41029620535759,21.3305563303843,106.777043058472,-382.618706729852,1006.04078694818,0.207349113137328,-0.0830399509621375,-12.16193582693,51.8655387044615,82.1721063849702,0.152573981748807,5.4202333980948,3.43997250577501,3.83734563314618,-15.1116881042631,-15.7661276527316,-21.7885455085286,-0.217935338657753,-4.59627862509642,-4.85205273828721,-4.40703877103125,4.44850702910205,4.78141476889557,0.815894200342365,16.0373796701372,-64.814364268299,-102.41395474169,-1.5548699227058,5.28409711054626,1.9751300772942,6.75381587601676,56.2271522962502,-80.4051793316029,-23.1881396715192,-4.80764017130086,-7.65124771085686,39.8080967591809,81.0783521521912,-116.785255343574,1.73697930175857,0,0
108.77,-14.0348913237571,-98.6033800557212,-21.809244072568,-0.352785733389919,-1.16136578949769,2.89315155315938,3.56254350284638,-52.3270648179468,-132.239199604775,-93.1147956050363,0.605978952483151,14.4,14.4895604241406,14.6872610254577,-3.67466670125019,3.30614929708978,0.826540436789978,46.2910825092527,-31.1625067165694,65.7351017043915,8.37808165170929,22.0772070342896,-3.07235565700058,-51.090996947043,121.177456407143,-139.602938831346,1.04876787310512,16.6606991218693,2.55359795108749,26.2042441656278,114.220840428376,-407.739137945874,935.600767754319,0.211491953587949,-0.0823437835710631,-11.6091052127499,42.6941657664216,78.1390965005478,0.155621198855901,5.70483696221037,3.8273044224194,4.23440102864858,-15.2246320796383,-16.9369410758086,-24.3751928873337,-0.200014633043225,-4.47456106997045,-4.84966173568764,-4.44814519565259,4.95980909892619,3.80504539088031,1.43870363645793,14.2108211858692,-62.1349641388029,-98.8447788799676,-2.34630025418891,4.60961352907611,1.18369974581107,11.0918922761533,58.496919824495,-86.475800176376,-21.3147950354234,-4.530156000327,-7.90397981104035,51.9637594478793,102.591114355864,-135.489936530989,2.55288685998859,0,0
108.775,-15.0769410127499,-110.467757938215,-38.2974564750256,-0.350419500604988,-1.55952755416285,2.35376638195107,2.96566051388358,-53.66174199932,-131.226375961733,-105.649628366681,0.549665754843063,14.4,14.3738739350366,14.4949266983731,-4.43903628325528,2.36404112276661,1.14932220681719,50.0464596318225,-28.3600554452657,86.0050671960578,8.68761974520627,19.8309221231067,-2.97560232296545,-52.9191958240362,111.41958353397,-140.121482230742,1.61861010670777,16.0660910687589,2.41652405419476,29.2569080659839,121.151293418657,-431.768783653559,864.513014361577,0.214720699781106,-0.0818489235571122,-11.1760684157769,35.800011299555,72.5656699908949,0.15706983435093,5.91102941805428,4.15837860855852,4.57030348200631,-15.4464251649917,-20.7813227117603,-25.7987902647533,-0.182923722602257,-4.3408715254699,-4.84399117542061,-4.48484800214804,4.66465796426611,3.28983938054253,1.75768069688961,15.1019656134714,-52.6283497508548,-94.8039169522415,-2.37949250529728,4.8537808355351,1.44933816412483,17.1522800605996,48.3683057059728,-94.5541232410548,-17.8476863166366,2.46386869210603,-4.13757571771916,-18.7634630458961,101.121711556323,-105.947786891052,7.33986449368248,0,0
108.78,-16.293979398991,-117.552729405525,-55.208288925671,-0.356051634124173,-1.86414362753517,1.77503271063005,2.31881842484868,-54.8847739063408,-127.093475067173,-114.208841631759,0.518723499915075,14.4,14.3063550086232,14.3461412509235,-4.70236011196273,2.28449538284458,0.992973683522125,54.2184626792452,-24.4318707577574,104.860353696098,7.2887119051979,16.8465853977555,-2.81102493002328,-53.914787460353,95.4427082273631,-133.071067989886,1.73423215797788,15.166078593438,1.93958308861822,30.1017386621599,127.458720663831,-454.473604814037,792.647552776833,0.216841007160658,-0.0815981478509583,-10.8882957099579,31.6671109281726,65.1254824653518,0.156580458398558,6.02214733289461,4.42122020892202,4.83349442131452,-15.8001456953646,-27.866295225425,-25.8123460584914,-0.166840522820042,-4.19268320329547,-4.83434561450441,-4.51572839124568,3.3919261255134,3.33372668532712,1.70830747900698,19.2875141253338,-34.8465413076595,-90.191686310529,-1.49351753995866,6.21154432730793,2.99636565778114,25.2998769210696,23.2109918753696,-105.06540364625,-12.4489246727901,17.5991897609016,4.5005738114314,-189.956865844998,71.7926493882042,-17.9221944538278,16.9402124153086,0,0
108.785,-17.5110758195837,-124.638038718978,-72.11992776764,-0.36168403621107,-2.16877422649392,1.19627144245283,1.66308124420213,-56.1078641335137,-122.960377095655,-122.76846304205,0.487779769508812,14.4,14.2388328625767,14.1941911911646,-4.96569649724015,2.20494584979203,0.836617704763642,58.3906646682085,-20.5034987551621,123.716539308555,5.88973735841161,13.8621063646114,-2.64643968922489,-54.9104265713556,79.4650710650833,-126.020317550745,1.84985972267374,14.2660232011138,1.46261938016031,30.9466095439969,133.766448678032,-477.1795086516,720.77866429487,0.218961415646851,-0.0813473601865905,-10.6005092817268,27.5340134798568,57.6849401552239,0.156091059110345,6.1332705463814,4.68407434286048,5.09268183826746,-16.153883092865,-34.9516055852827,-25.8259024986363,-0.150756556112083,-4.04448781477599,-4.82469959364063,-4.54415111187979,2.11913359667253,3.37761608287336,1.65893190676747,23.4732622246508,-17.063884940739,-85.579235735068,-0.607500326994008,7.56937256389463,4.54346692128599,33.4478622988664,-1.94752157918242,-115.57718528078,-7.04990558954419,32.7352325559414,13.1391352498628,-361.158431984084,42.4621886667413,70.1075954748104,26.5410181285479,0,0
108.79,-18.7281142058248,-131.723010186288,-89.0307602182854,-0.367316169730254,-2.47339029986624,0.617537771131809,1.00043802157166,-57.3308960405345,-118.827476201095,-131.327676307128,0.456837514580824,14.4,14.1713139361633,14.0404918227402,-5.2290203259476,2.12540010987,0.680269181468575,62.5626677156312,-16.5753140676537,142.571825808596,4.49082951840325,10.8777696392602,-2.48186229628272,-55.9060182076724,63.4881957584759,-118.96990330989,1.96548177394385,13.3660107257929,0.985678414583774,31.7914401401729,140.073875923206,-499.884329812078,648.913202710126,0.221081723026403,-0.0810965844804366,-10.3127365759078,23.4011131084745,50.2447526296808,0.155601683157973,6.24438846122173,4.94691594322399,5.34833057181991,-16.5076036232379,-42.0365780989475,-25.8394582923744,-0.134673356329869,-3.89629949260157,-4.81505403272443,-4.56962997134211,0.846401757919817,3.42150338765794,1.60955868888484,27.6588107365132,0.71792350245626,-80.9670050933556,0.278474638344616,8.92713605566746,6.09049441494231,41.5954591593364,-27.1048354097856,-126.088465685975,-1.65114394569764,47.8705536247369,21.7772847790134,-532.351834783186,13.1331264986221,158.133187912035,36.141366050174,0,0
108.795,-20.0542174467599,-135.6402261776,-101.142617357193,-0.375485311979472,-2.72324445921476,0.0766319020330046,0.370752814000152,-58.32374402081,-108.799683009316,-131.080168874276,0.440784992615729,13.9013770663772,14.07831767466,13.8608855724692,-5.04051921488414,2.50469981250574,0.767522977880905,61.4102852978631,-9.78125685419171,153.630029772788,2.74985406915,8.12249878718747,-2.01095189395429,-51.4996831390648,48.1390549272563,-103.120566597532,6.94279746364285,11.3213210113336,1.17906074630039,19.4753899693006,152.633750285221,-511.559768186397,582.447272155135,0.21661425727803,-0.0775748186741367,-10.1407054034945,18.146247770364,43.1660706117708,0.155152359736133,6.23785737027739,5.27656299604094,5.66775618039192,-16.886265830396,-44.6810148135827,-27.8235193553622,-0.120583636049525,-3.72958105750406,-4.64164160819347,-4.42803814236891,0.908220640102814,4.31253104144542,1.42260682584014,28.367846490063,1.51328395968203,-73.9775524868201,2.77385058149444,9.68891830232467,6.40773931741598,36.8326760593475,-36.9193221069868,-132.57197388904,-0.605939984321594,50.8007621765137,23.4496364593506,-565.494995117188,7.45499992370605,175.175003051758,38,0,0
108.8,-21.4064250636894,-138.796739446079,-112.101686438935,-0.384263021299508,-2.95993735880123,-0.455160805825775,-0.252559294779049,-59.261273907982,-97.3573182155071,-128.718479882403,0.428307941816156,13.2830810906792,13.9792106643273,13.6759468370014,-4.74356134209179,2.99413038062647,0.913252304343828,58.9797659000656,-2.29960217158601,162.815763697983,0.926862683396925,5.42238183272366,-1.46652912716832,-45.7967884626684,32.9415195306929,-85.1598429470479,13.0869472862848,9.0019538547511,1.53335362701643,4.00058507609835,166.693883364125,-520.586733905195,517.281516736813,0.210565553862105,-0.0732680068625869,-9.99647003623725,12.6223472560722,36.1745924161768,0.154712678142426,6.20308311280071,5.6222282897465,6.00065820091258,-17.2708933015998,-46.2592724967152,-30.2805148632465,-0.106973315987836,-3.55842402614162,-4.4289245447167,-4.24360712594609,1.2904164208263,5.40687579488391,1.20263803117913,28.2422470239757,-1.7692750594104,-66.4178224604304,5.65544179155358,10.3075805373087,6.42973619688209,28.9708283983153,-43.0499338841129,-138.088166656388,-0.605939984321594,50.8007621765137,23.4496364593506,-565.494995117188,7.45499992370605,175.175003051758,38,0,0
108.805,-22.7586971605014,-141.953403232572,-123.06127810277,-0.39304114918372,-3.19664154506451,-0.986978872165688,-0.876506455935797,-60.1988485011713,-85.9144077936983,-126.35667827363,0.415830296049686,12.6647556316006,13.8800989280868,13.4928544109405,-4.44658930889351,3.483584287194,1.05898857989485,56.549130603198,5.18240927296155,172.001935643966,-0.896215631514783,2.72213612345778,-0.922080399638141,-40.09362184432,17.7432594412014,-67.1982628412851,19.2313900920856,6.68247609938188,1.88766340215243,-11.4749577315998,180.754686899043,-529.614130073934,452.112653896078,0.204516562014374,-0.0689609896811543,-9.85222779113121,7.09818333514682,29.1827808326568,0.154272975582546,6.16830719711711,5.96791006646639,6.33149383714694,-17.6555391137254,-47.8376054389046,-32.7376275327115,-0.093362346919421,-3.38725883317355,-4.21619733784841,-4.05552739214469,1.67263042651668,6.50127273204056,0.982658747328548,28.1166415686907,-5.05199060699547,-58.8577319490841,8.5371704099962,10.9262722731385,6.45173412526716,21.1086058458779,-49.1808379988374,-143.604622462826,-0.605939984321594,50.8007621765137,23.4496364593506,-565.494995117188,7.45499992370605,175.175003051758,38,0,0
108.81,-24.1159073743256,-143.461035260771,-132.689765340655,-0.399416183140404,-3.43728416794962,-1.51001752770441,-1.49021694422811,-61.030809371172,-72.4312744734749,-122.342183406974,0.401051632544181,11.975675174076,13.7804378581593,13.3119916719263,-4.04951081495583,4.08610621926066,1.0948795547094,53.3226543438392,11.4258330509542,179.271985578753,-2.51675326564072,0.174789121582333,-0.323273044581972,-33.6406365379606,4.42268346316241,-48.34231837475,24.3333988189697,4.75650882720947,2.18186283111572,-24.3250007629395,192.43000793457,-537.109985351562,398,0.199493810534477,-0.065384678542614,-9.7417079017224,1.87012040204352,22.4733400305044,0.156477288517142,6.11610190232442,6.26238705061096,6.60945814127276,-18.1085530133961,-51.5775973680466,-35.734100472616,-0.0775222769849878,-3.21165179747028,-4.00937979641782,-3.86973661570553,2.12732138135281,7.47301734623727,0.692306176952784,27.8701008860501,-8.11568173493711,-51.3737788328636,11.0217043471363,11.7254591728806,6.15256187529751,14.2835649168304,-47.074018414381,-145.80940684722,-0.704268307697893,49.1042888117364,22.0592987766422,-544.701387529264,9.41864860971334,180.191936631313,71.5308715426517,0.0105935270082466,0.00692864981899528
108.815,-25.4976746811671,-136.895928630862,-135.804273386453,-0.394028185716709,-3.6972758428323,-1.99022187876281,-2.05769298235527,-61.3459511760236,-48.9560341287046,-110.235471816208,0.375003724852264,10.940005842951,13.6780593977631,13.1319742341825,-3.16222962610396,5.24234451848325,0.593011132265065,46.1990735027869,11.6072601458969,177.163323494136,-3.14616835898251,-1.62472803955787,0.541826114548602,-23.5149507485168,0.290938112297421,-25.10253445841,24.3333988189697,4.75650882720947,2.18186283111572,-24.3250007629395,192.43000793457,-537.109985351562,398,0.199493810534477,-0.065384678542614,-9.79625143154942,-1.90979112847301,17.1444152097782,0.171626524176992,5.97855294346078,6.30626359030158,6.63551693579966,-18.8964038234995,-65.9014716673656,-41.3719611612908,-0.050764747800971,-3.01424946898466,-3.83143605211699,-3.70933164308929,2.93696546618014,7.84456634406898,0.0573455761806594,27.0314284660319,-10.1079566265721,-44.2604674500156,11.5623913215929,13.408520677984,4.28095311756309,12.5343338693639,-4.63719396146194,-131.801865856549,-1.28401011198458,39.1019161926445,13.8618959422984,-422.102698090428,20.9962815146739,209.771675464724,269.228211433709,0.0730527478170594,0.0477798289036084
108.82,-26.879376101717,-130.331135042467,-138.918632924334,-0.388640445206871,-3.95725512062958,-2.47040333241749,-2.61998233312915,-61.6610779540869,-25.4819131450037,-98.1293375052243,0.348957059192947,9.90438589525771,13.5756858190405,12.9561738946226,-2.27499074514781,6.39852768522925,0.0911666402242374,39.0758323327647,11.7886785899196,175.054761956061,-3.77555344016078,-3.42415939499708,1.40688402348086,-13.3897477783458,-3.84061022610567,-1.86385867595872,24.3333988189697,4.75650882720947,2.18186283111572,-24.3250007629395,192.43000793457,-537.109985351562,398,0.199493810534477,-0.065384678542614,-9.8507923605978,-5.68952242288756,11.8157444861729,0.186775037481527,5.84101054329248,6.35013803784363,6.66056602613475,-19.6842170668087,-80.2246629667658,-47.0095530219717,-0.0240084944861695,-2.81685655316014,-3.65350079264089,-3.54568583907869,3.74657094505264,8.21609762546936,-0.577584748003597,26.1927960361158,-12.1001365213116,-37.147495248523,12.1030525146756,15.0915019302977,2.4094336030462,10.7851862298246,37.7976069922938,-117.794992782195,-1.86372427266053,29.1000205129298,5.66488398163541,-299.50985447886,32.5733623677126,239.350003858556,466.916124596753,0.135508990406303,0.0886290600967909
108.825,-28.2611434085585,-123.766028412558,-142.033140970132,-0.383252447783176,-4.21724679551225,-2.9506076834759,-3.1755941654818,-61.9762197589385,-2.00667280023344,-86.0226259144586,0.322909151501031,8.86871656413269,13.4733073586443,12.7851149934597,-1.38770955629594,7.55476598445185,-0.410701782220102,31.9522514917124,11.9701056848623,172.946099871444,-4.40496853350257,-5.22367655613728,2.27198318261143,-3.264061988902,-7.97235557697066,21.3759252403813,24.3333988189697,4.75650882720947,2.18186283111572,-24.3250007629395,192.43000793457,-537.109985351562,398,0.199493810534477,-0.065384678542614,-9.90533589042483,-9.46943395340409,6.48681966544661,0.201924273141377,5.70346158442884,6.39401457753424,6.68483724221129,-20.4720678769122,-94.5485372660848,-52.6474137106464,0.00274903469784725,-2.61945422467452,-3.47555704834006,-3.37911639154274,4.55621502987997,8.58764662330108,-1.21254534877572,25.3541236160976,-14.0924114129466,-30.034183865675,12.6437394891322,16.7745634354011,0.537824845311783,9.03595518235812,80.2344314452129,-103.787451791524,-2.44346607694722,19.097647893838,-2.53251885270838,-176.911165040024,44.1509952726732,268.929742691966,664.61346448781,0.197968211215116,0.129480239181404
108.83,-29.3783895204737,-112.637087063816,-140.469141428045,-0.369209704388458,-4.46034064283756,-3.29720989659924,-3.58963260709868,-61.930302381902,17.1811276722713,-70.1619239838266,0.297315303501272,7.94515863973006,13.1153673615735,12.3636851248642,-0.710627997680913,8.28247417382597,-0.729568861013012,27.0935938529932,12.6294327937101,170.021405824912,-4.65666354820008,-5.76885666473409,2.81646668950613,4.99612298308254,-13.7382521490904,51.392777618357,24.3333988189697,4.75650882720947,2.18186283111572,-24.3250007629395,192.43000793457,-537.109985351562,398,0.199493810534477,-0.065384678542614,-10.0447840204542,-13.911735199942,1.69855725980018,0.212335387519718,5.45938951173791,6.40908387772543,6.67967691703742,-21.3535966842168,-98.3518050159657,-58.9897751979547,0.0349884639708522,-2.42033063510385,-3.4224207874456,-3.33485691438115,4.6626336109208,8.71421744057344,-1.99406735887842,23.0439103521378,-8.36729419909907,-21.2003322785531,10.7159330364202,16.9001407262952,0.0482660886523159,10.0271207362249,102.982180493007,-103.369211966583,-2.6967921257019,14.726975440979,-6.11448526382446,-123.340003967285,49.2099990844727,281.855010986328,751,0.225260615348816,0.147330716252327
