time,hip_angle_l,hip_angle_l_velocity,hip_angle_l_velocity_filt,hip_angle_l_torque_estimated,hip_angle_l_torque_desired,hip_angle_l_torque_measured,hip_angle_l_torque_interaction,knee_angle_l,knee_angle_l_velocity,knee_angle_l_velocity_filt,knee_angle_l_torque_estimated,knee_angle_l_torque_desired,knee_angle_l_torque_measured,knee_angle_l_torque_interaction,thigh_imu_l_accel_x,thigh_imu_l_accel_y,thigh_imu_l_accel_z,thigh_imu_l_gyro_x,thigh_imu_l_gyro_y,thigh_imu_l_gyro_z,shank_imu_l_accel_x,shank_imu_l_accel_y,shank_imu_l_accel_z,shank_imu_l_gyro_x,shank_imu_l_gyro_y,shank_imu_l_gyro_z,foot_imu_l_accel_x,foot_imu_l_accel_y,foot_imu_l_accel_z,foot_imu_l_gyro_x,foot_imu_l_gyro_y,foot_imu_l_gyro_z,insole_l_force_y,insole_l_cop_x,insole_l_cop_z,hip_angle_r,hip_angle_r_velocity,hip_angle_r_velocity_filt,hip_angle_r_torque_estimated,hip_angle_r_torque_desired,hip_angle_r_torque_measured,hip_angle_r_torque_interaction,knee_angle_r,knee_angle_r_velocity,knee_angle_r_velocity_filt,knee_angle_r_torque_estimated,knee_angle_r_torque_desired,knee_angle_r_torque_measured,knee_angle_r_torque_interaction,thigh_imu_r_accel_x,thigh_imu_r_accel_y,thigh_imu_r_accel_z,thigh_imu_r_gyro_x,thigh_imu_r_gyro_y,thigh_imu_r_gyro_z,shank_imu_r_accel_x,shank_imu_r_accel_y,shank_imu_r_accel_z,shank_imu_r_gyro_x,shank_imu_r_gyro_y,shank_imu_r_gyro_z,foot_imu_r_accel_x,foot_imu_r_accel_y,foot_imu_r_accel_z,foot_imu_r_gyro_x,foot_imu_r_gyro_y,foot_imu_r_gyro_z,insole_r_force_y,insole_r_cop_x,insole_r_cop_z
56.175,-28.2153395080566,40.5382690429688,43.7992430716759,-0.0272523449182594,3.37186833837343,4.10109901428223,4.0949235491706,-17.5074081420898,1.79372870922089,18.0566896843599,-0.0687244037651527,-1.5525048403657,-2.22857141494751,-2.21864529628375,4.11296393003211,8.82957344547911,0.955916884257222,-1.56060998956764,23.7726590151242,-35.7113115996665,0.899765464334395,10.0406075975692,-1.45371005383921,-12.7522584202768,45.3785184272318,-27.2390516503363,-14.0209914690234,2.35166879379141,-2.82009238973878,-6.44104644522929,87.2133577782552,-46.2943994520464,0,0,0,-16.6543319702148,-1.07623720169067,3.39007894388101,-0.0356114291166885,1.18478588673142,2.13186812400818,2.13854076570243,-46.9428044700623,-52.7356224060059,-63.076464951671,0.889774370259987,6.03725613673223,1.60439562797546,1.63062064734496,2.40920038357558,9.52680153430228,-1.56121519513829,-4.21977545167691,37.1179807253703,20.5065148795999,-5.46666300806432,8.43070360699677,-1.2836675370289,-0.470173761502465,38.8666290394036,-108.432273208733,-2.57266475433899,9.20527610214233,-1.59793011252099,-13.7763047589914,-9.62824509652983,-10.4263421091335,981.844328396146,0.0425431166757523,0.141080960815926
56.18,-28.2153395080566,40.5382690429688,42.9684924523829,-0.0334874328167062,3.23346377954386,4.10109901428223,4.10546880281912,-17.5074081420898,1.79372870922089,12.4603138363533,-0.0645053523146618,-1.46472631520369,-2.22857141494751,-2.21407059789494,3.82220440418697,9.01856713727844,0.890495990942057,-1.00421830430842,21.9030632985274,-35.0053522570795,0.890073480139552,10.1690263881508,-1.40040414076759,-10.8048875218696,43.8020753189973,-34.439238674094,-13.6971771856618,3.08402292055995,-2.47190501809073,-3.5916030942577,90.5546695512575,-50.1954227207488,0,0,0,-16.6543319702148,-1.07623720169067,2.44914863872414,-0.0428908112803546,1.13662607582564,2.13186812400818,2.14117779092616,-46.9428044700623,-52.7356224060059,-59.8921665458687,0.907690632409798,6.43303475776471,1.60439562797546,1.61878049700651,2.47946726898816,9.80786907595259,-1.81805277630149,-2.0779665987436,38.4222106972683,20.7757366627898,-5.63869572752269,8.45977955958128,-1.02198396376827,-3.4465701423246,44.4514853640217,-102.955105597391,-2.688727211555,9.15652992556958,-1.49289359682812,-16.4646190552729,-11.5702764549887,-12.4446977992225,1016.73547149756,0.0583128673508623,0.13254906134449
56.185,-27.5969518550463,36.2850060552963,41.5403137273525,-0.0369828192523771,3.01994259714293,4.00634630162452,4.03123300390294,-17.6134176302427,-2.0728739046409,8.34190041148708,-0.0603114186489367,-1.37555497031545,-2.09591770716631,-2.07269024488301,3.64216111240581,9.2705911597918,0.650186954607825,-0.417848759278276,21.3067376481672,-34.7006079333431,0.582823739610026,10.3208936015951,-1.3811382998006,-7.38370705393846,36.9839438081236,-37.6640564885384,-13.6947221755981,3.08957529067993,-2.46926522254944,-3.5699999332428,90.5800018310547,-50.2249984741211,0,0,0,-16.6425529668843,-0.882907070997584,1.57468212812367,-0.0447235531051773,1.0193982113056,1.91156821644298,1.92076903412499,-48.0794610744467,-53.122282490725,-57.8004802614502,0.925777261246077,6.81031780952662,2.4263748529768,2.41026313096861,2.35605168440406,9.50551826820995,-2.29962609078433,-0.0558015484605909,36.775462663264,19.4837387341163,-6.10884797638467,8.14204562521037,-0.928386027602982,-2.52438750324073,43.4459549271947,-101.859054856578,-2.76124036916808,9.27877577568787,-1.59857915444452,-19.5311652747825,-13.6503561997007,-18.976717570101,1073.85455345814,0.080478047477701,0.116755790208026
56.19,-26.9738101166774,31.9990445245704,40.1075021343836,-0.0404574428038395,2.80583727749761,3.91086514220411,3.95499664212458,-17.7202421058116,-5.96920246594734,4.23458047171858,-0.0561174753634784,-1.28636869991878,-1.96224417460879,-1.93042124621577,3.46295502213937,9.52310883243998,0.408530257127314,0.168777985888742,20.7201109030002,-34.3989141786858,0.273285947331618,10.4729472539424,-1.36213159325719,-3.95110255650405,30.1254391189138,-40.8586581350765,-13.6947221755981,3.08957529067993,-2.46926522254944,-3.5699999332428,90.5800018310547,-50.2249984741211,0,0,0,-16.6306834080795,-0.688090642932263,0.700681371743072,-0.0465147716226749,0.901637046363257,1.6895746713028,1.69283715496108,-49.2248561497471,-53.5119151688304,-55.7170408365847,0.943866060701805,7.18747768655943,3.25467334936005,3.20191004951276,2.23115046997592,9.19869571972346,-2.78293948574537,1.96554660774347,35.1060905541602,18.1797512834308,-6.58130039617804,7.82164685776429,-0.836067738677848,-1.57237609965542,42.3900267858941,-100.796422409618,-2.83342430203202,9.40233384847067,-1.70587966954765,-22.6007484644061,-15.7315905558464,-25.5435347947857,1131.14619746757,0.10269315257393,0.100906284621923
56.195,-26.350698091342,27.7132873597386,38.6747588616317,-0.043931900676132,2.59174216695584,3.81538853557598,3.87715859312229,-17.8270614877092,-9.86534524008224,0.127456379744271,-0.0519237320562428,-1.19718668215754,-1.82857701595611,-1.78773806995193,3.28375747688963,9.77561446438281,0.166885082472356,0.755376759152977,20.1335121297359,-34.0972348095785,-0.0362370853724876,10.6249936559725,-1.34312579300343,-0.518661734660772,23.2672614612075,-44.053107454624,-13.6947221755981,3.08957529067993,-2.46926522254944,-3.5699999332428,90.5800018310547,-50.2249984741211,0,0,0,-16.6188144152463,-0.493283504225518,-0.173277709987692,-0.0483059047301726,0.783881496582314,1.46759171139747,1.46407771667385,-50.3701966096042,-53.9015292682271,-53.6337007555788,0.961953997636102,7.56461957961946,4.08293235029715,3.99518359639467,2.10625521116548,8.89188780134131,-3.2662298350553,3.98679838076251,33.4367980450997,16.8758260102892,-7.0537302882001,7.50126336777231,-0.743753851731015,-0.62041009047234,41.3341489940185,-99.7338406317622,-2.90560479297659,9.52588602968029,-1.81317506828061,-25.6701852882472,-17.8127256732759,-32.1100388963909,1188.43510966105,0.124907198395646,0.0850575347818422
56.2,-25.8636576557326,24.4625993420787,37.022290673979,-0.0472131669581958,2.37391958844497,3.70597232061619,3.78337988038252,-17.9380466821604,-12.9051289427816,-3.39848856124412,-0.0478129083770961,-1.11462014597528,-1.70490248180995,-1.65496596098076,3.21756397121298,10.0221576540557,-0.0551316907391679,1.08041874983419,19.1708723358439,-33.9569527046163,-0.269458243790295,10.8013468938978,-1.33729684142135,2.25923380774947,17.2696817296414,-47.35328500323,-13.5652050311028,3.22744211829926,-2.48149848236626,-1.23460525425604,90.0805732768612,-50.8691477041337,0,0,0,-16.6070732475167,-0.1260603200284,-0.778355559444753,-0.0495347763991572,0.657598959496871,1.29219031480783,1.28118366654615,-51.2604282647756,-52.7744923160318,-51.9047621980184,0.980613975149777,7.89976617697359,4.80676197391429,4.68635576106555,2.1213450197411,8.81701846669,-3.43541568794045,5.02738289374722,31.9206099539158,15.5378985320803,-7.40026900394822,7.10649732620318,-0.632165150682197,0.350330777076215,39.9052822834663,-99.8377854965266,-2.87389908753549,9.54888238351118,-1.88785799678563,-28.0170136978914,-19.2556752963631,-36.8095846708535,1232.13487680544,0.142079238160932,0.0721841762886379
56.205,-25.6803859314601,23.522570330388,34.8795641320643,-0.0500628731643309,2.14780034478546,3.56545402376755,3.65615539412378,-18.058318313901,-14.0331636568531,-5.62684464303505,-0.0438876019206665,-1.04682839953368,-1.60354502178798,-1.54479088519058,3.40360675196164,10.2553662102054,-0.233313508920988,0.821621628291977,17.3689973771062,-34.1769302579272,-0.332345944325057,11.0319351291919,-1.36087972912189,3.57586416359552,13.1936270653515,-50.8891006763006,-13.1466145619465,3.67301818685104,-2.52103553351103,6.31322911278205,88.4664546702122,-52.950993543527,0,0,0,-16.595618639803,0.625962840907324,-0.783216047062757,-0.0495085287266388,0.512297308102834,1.22077937706507,1.20170930222066,-51.5811527826795,-48.2623534597458,-50.9670451015736,1.0005487826547,8.14114203467813,5.29742428603943,5.1472942105117,2.44888512669297,9.25985269128893,-2.9034905542506,3.87897066690361,30.746318014918,14.1242192556559,-7.46577702533859,6.54574866310158,-0.477566220200906,1.36287451511015,37.6440424339911,-102.545450380662,-2.61031888192922,9.34743192341381,-1.88974072391903,-28.7507033375489,-19.2740174623865,-37.34150948468,1245.49851316907,0.147995504280348,0.0659533726338447
56.21,-25.4971229460643,22.5825861417477,32.7369397609747,-0.0529124434889951,1.92169188308492,3.42494242720008,3.52631254432022,-18.1785842107746,-15.161144583269,-7.85509447095979,-0.0399624826331505,-0.97903988558046,-1.50219239475571,-1.43527410505387,3.58964066170225,10.4885636463591,-0.411486830926087,0.562836846875716,15.5672083364955,-34.396897322131,-0.395230646209211,11.2625123694338,-1.38446149232846,4.89243173905077,9.1177667580453,-54.4247477524003,-12.7280440522823,4.11857300916648,-2.56057069942544,13.8607035792686,86.8524130289746,-55.032740115047,0,0,0,-16.5841645782751,1.37795014340509,-0.788076302919956,-0.0494822823056783,0.367002585072872,1.14937184438325,1.12183557248316,-51.9018620075966,-43.7504297540823,-50.029372717941,1.02048263961569,8.3825063829483,5.78806320209781,5.61168183823177,2.77640961567293,9.70266580038983,-2.37159078414714,2.73061319936893,29.5720820692417,12.7106073871696,-7.53128192313458,5.9850267379679,-0.322974661402356,2.37536997240128,35.3829104063665,-105.25298615623,-2.34675124451891,9.14599106900308,-1.89162336127905,-29.484357992959,-19.2923587538074,-37.8734089349353,1258.86151231946,0.153911488296669,0.0597228660801223
56.215,-25.3138512217918,21.642557130057,30.5942132190601,-0.0557621496951302,1.69557263942541,3.28442413035144,3.39362484096364,-18.2988558425152,-16.2891792973405,-10.0834505527507,-0.0360371761767209,-0.911248139138858,-1.40083493473374,-1.32678034902765,3.7756834424509,10.7217722025088,-0.589668649107907,0.304039725333499,13.7653333777578,-34.6168748754419,-0.458118346743973,11.4931006047279,-1.408044380029,6.20906209489682,5.04171209375533,-57.9605634254709,-12.3094535831259,4.56414907771827,-2.6001077505702,21.4085379463067,85.2382944223256,-57.1145859544403,0,0,0,-16.5727099705615,2.12997330434081,-0.792936790537961,-0.0494560346331599,0.221700933678835,1.07796090664049,1.04174536586285,-52.2225865255004,-39.2382908977962,-49.0916556214962,1.04041744712062,8.62388224065285,6.27872551422294,6.08003057997128,3.1039497226248,10.1455000249888,-1.83966565045729,1.58220097252533,28.3977901302439,11.2969281107452,-7.59678994452496,5.42427807486629,-0.168375730921065,3.38791371043522,33.1216705568914,-107.960651040365,-2.08317103891264,8.94454060890571,-1.89350608841245,-30.2180476326165,-19.3107009198308,-38.4053337487617,1272.22514868309,0.159827754416085,0.0534920624253292
56.22,-25.1105756825673,21.7380330274558,28.6698560833475,-0.0612394669760596,1.47467659585542,3.10221140779771,3.21626454243777,-18.4585755745276,-17.2424061156437,-11.9585694806839,-0.0322227230213586,-0.851394603489173,-1.3120694234002,-1.23227029388607,3.86202729796422,10.9848374203167,-0.581670008225381,-0.427573857015538,12.4843857497912,-35.0105565329536,-0.528534726506276,11.7694540407156,-1.49042553464941,7.84934409613535,0.831209555398138,-61.3919196159968,-12.0307308195698,5.12897136856469,-1.97124731830246,31.9460221840084,82.4527339010652,-60.5232772393259,0,0,0,-16.5117210230464,4.51334117514752,-0.195010310405747,-0.0517860009277954,0.102545579696945,0.974004929706396,0.929107417580522,-52.5710576361,-37.5228443007986,-47.9188695383568,1.05769288970868,8.82137748611848,6.7143783201633,6.49769476486713,3.39490566522721,10.5600160651861,-1.6630148570841,-0.025296043696037,28.4045229726608,8.63300466739274,-7.86386592638289,5.41372943656178,-0.14580891425044,3.38448536187841,31.6718210130413,-106.964489353978,-1.94954597949982,8.8424129486084,-1.8944605588913,-30.5900001525879,-19.3199996948242,-38.6749992370605,1279,0.16282707452774,0.05033328384161
56.225,-24.8867097732772,22.8983685504794,26.9698706634299,-0.0694193897569884,1.25913040887777,2.87710504496745,2.99296802021896,-18.6588767865497,-18.0159633023587,-13.470622125525,-0.0285218957334682,-0.799698452848097,-1.23624412223632,-1.15243417739927,3.84585518198643,11.2786308605799,-0.38221391116595,-1.64547394917021,11.7390042726255,-35.5829030243486,-0.606699953732258,12.0928963602714,-1.63327922578656,9.82260845309633,-3.5179582600285,-64.7161879003206,-11.8958125557891,5.81647386617458,-0.654986663182013,45.5589000680136,78.4622642012896,-65.296745530475,0,0,0,-16.3997880684013,8.57451544146822,1.02284352900691,-0.0565391799959172,0.010265965992834,0.836571555281314,0.783219176374231,-52.9480953628762,-38.68318033792,-46.5042393452821,1.07223527374625,8.97376767557495,7.09350482598269,6.86346571821302,3.64826881554594,10.9454514959901,-1.85168954349166,-2.10504346882354,29.6257506606957,4.68314835759058,-8.33824799506477,5.96897208513262,-0.259013726094984,2.33629265961416,31.0562157752035,-102.159440902963,-1.94954597949982,8.8424129486084,-1.8944605588913,-30.5900001525879,-19.3199996948242,-38.6749992370605,1279,0.16282707452774,0.05033328384161
56.23,-24.6628545385012,24.0586487456602,25.2699663032787,-0.0775989224977312,1.043594499708,2.65200941579935,2.76665117802597,-18.8591684476843,-18.7894836038369,-14.9826026717277,-0.0248212449107355,-0.748004767215157,-1.16042243662181,-1.07464427175759,3.82968383713757,11.5724102920008,-0.18276732469669,-2.86331596865217,10.9936583372049,-36.1552222247609,-0.684861453835066,12.4163232572486,-1.7761261052848,11.795778719634,-7.86691869571952,-68.0402976748083,-11.7609007252653,6.50394358186106,0.661211229175936,59.171128854275,74.471984777582,-70.0699862101282,0,0,0,-16.2878604510133,12.6354960603415,2.2406392979523,-0.0612921324199866,-0.082009247577112,0.699144734040212,0.637812272421281,-53.3251151115042,-39.8434610471739,-45.0896766054877,1.08677696436478,9.12615059866726,7.47261325405528,7.23408189647693,3.90161988484473,11.3308685482213,-2.04035523339501,-4.18469172613562,30.8469201173893,0.733480387303474,-8.81260744396462,6.52418825827677,-0.372213140037,1.28814993792888,30.4406398910391,-97.3546215692696,-1.94954597949982,8.8424129486084,-1.8944605588913,-30.5900001525879,-19.3199996948242,-38.6749992370605,1279,0.16282707452774,0.05033328384161
56.235,-24.4389886292111,25.2189842686838,23.5699808833611,-0.08577884527866,0.828048312730354,2.42690305296908,2.53737832736795,-19.0594696597065,-19.563040790552,-16.4946553165689,-0.0211204176228451,-0.696308616574081,-1.08459713545793,-0.999158392735381,3.81351172115978,11.866203732264,0.0166887723627408,-4.08121606080684,10.2482768600392,-36.727568716156,-0.763026681061048,12.7397655768044,-1.91897979642195,13.769043076595,-12.2160865111462,-71.3645659591321,-11.6259824614845,7.19144607947095,1.97747188429638,72.7840067382803,70.4815150778063,-74.8434545012773,0,0,0,-16.1759274963682,16.6966703266622,3.45849313736495,-0.0660453114881084,-0.174288861281223,0.56171135961513,0.493137095723069,-53.7021528382804,-41.0037970842953,-43.6750464124131,1.10131934840236,9.27854078812373,7.85173975987467,7.60973488295073,4.15498303516346,11.7163039790253,-2.22902991980257,-6.26443915126313,32.0681478054242,-3.21637592249869,-9.2869895126465,7.07943090684761,-0.485417951881545,0.239957235664626,29.8250346532014,-92.549573118255,-1.94954597949982,8.8424129486084,-1.8944605588913,-30.5900001525879,-19.3199996948242,-38.6749992370605,1279,0.16282707452774,0.05033328384161
56.24,-24.2460949048481,25.1749279597947,23.0409071006321,-0.0958212538908133,0.642939593657893,2.2002971137521,2.30381712369824,-19.269791014596,-21.0631034287567,-17.6327384196273,-0.0180190516736226,-0.652530057143922,-1.01009930999599,-0.927518875710483,3.87807496575902,11.9444401442519,0.103320432755737,-5.41022580199288,12.1161895888492,-37.1625568957202,-0.779999999999973,12.8471317995049,-1.92730834474698,16.0515740767888,-15.050191716917,-74.4574557845734,-11.6446095605585,7.10210248353654,2.49402106815612,69.075872015483,64.777550168919,-75.1146697969287,0,0,0,-16.0298834797497,17.4305311490868,5.37980424819344,-0.0725345456677914,-0.204457409023724,0.459327398819383,0.384526199504227,-54.0365190001795,-40.5157111413699,-42.533163594684,1.10146505815293,9.42454069799285,8.0845879278088,7.84421318268817,4.12129625673823,11.8020628777503,-2.24937122249726,-4.50545939847256,31.7068297202874,-7.41797343964055,-9.25385006848195,7.63733008305793,-0.623458276265025,0.890978794869497,25.1275593475435,-93.2226908687459,-2.19262509960577,9.09537326978163,-1.73043153915198,-29.9690739025401,-19.3777604134784,-38.8338409182626,1283.12575550055,0.16644210842778,0.0461485236285866
56.245,-24.0617809719473,24.7967762340303,22.8366065725765,-0.106380919181045,0.466262812218443,1.97326139584203,2.06725944851452,-19.4829047220452,-22.7647866973277,-18.6671534219258,-0.0150837846200781,-0.61094513429871,-0.935965182318121,-0.858910377999209,3.96503775932045,11.9628867974316,0.15866039229483,-6.770137800073,14.7091318435617,-37.5594690099924,-0.779999999999973,12.8945660505384,-1.89832074689316,18.4200332504786,-17.4641981824085,-77.4863506893882,-11.7058305689667,6.79725992594065,2.78876544657409,60.5627424978936,58.59792215793,-74.1369974196677,0,0,0,-15.8743683161344,17.2414552862046,7.49636818993736,-0.0795057487950427,-0.217398471486245,0.366659747075666,0.286932571678998,-54.3590686340716,-39.5703308216962,-41.4668700846547,1.09761720580365,9.56877686702437,8.27687334356155,8.04325168160514,4.0079811014915,11.8046981139188,-2.22301886081198,-1.68152730676553,30.9064987357713,-11.6896587350453,-9.07992448135909,8.19600015078596,-0.768396265534093,2.01339419998346,19.2975059969225,-95.4154676312005,-2.50314805184198,9.4185190245264,-1.52089163527351,-29.1758677554973,-19.4515472071446,-39.0367542238709,1288.3962278376,0.171060156241122,0.0408026753501237
56.25,-23.8774758276186,24.4186425395327,22.6323157861063,-0.116940080958722,0.289594455191612,1.74623650359084,1.82842708642048,-19.6960082676735,-24.4663888251744,-19.7015191006022,-0.0121486575277702,-0.569362194331758,-0.861834589550025,-0.793050590998242,4.05199640626766,11.9813325710265,0.213997713079414,-8.12998495398003,17.3019504599825,-37.9563621984533,-0.779999999999973,12.9419980397824,-1.86933453124409,20.7883794898191,-19.8780895417363,-80.5151011685447,-11.7670486581965,6.49243190403794,3.08349577080656,52.050018908662,52.4185888078227,-73.1593716603915,0,0,0,-15.7188605678903,17.0523884389558,9.61283120835771,-0.0864766195170334,-0.230338916884945,0.273996513968787,0.190935311230288,-54.6816028879507,-38.6249955802373,-40.4006274182984,1.09376953693006,9.7130061584968,8.46914959064105,8.2473625231467,3.89467134940877,11.8073332244324,-2.19666775567647,1.1422701324481,30.106205913137,-15.9611403452844,-8.90600718746467,8.75464357965896,-0.91332734377945,3.13575608538519,13.467730638546,-97.6081398363041,-2.81365619752888,9.74164937083351,-1.31136172280758,-28.3826994306053,-19.5253304824627,-39.2396578540402,1293.66644886471,0.175677983853825,0.0354570819757367
56.255,-23.6931618947177,24.0404908137684,22.4280152580507,-0.127499746248953,0.112917673752162,1.51920078568077,1.58763107730629,-19.9091219751228,-26.1680720937454,-20.7359341029006,-0.00921339047422564,-0.527777271486546,-0.787700461872159,-0.729933451954801,4.1389591998291,11.9997792242062,0.269337672618506,-9.48989695206015,19.8948927146951,-38.3532743127255,-0.779999999999973,12.9894322908159,-1.84034693339027,23.1568386635088,-22.2920960072278,-83.5439960733596,-11.8282696666046,6.18758934644204,3.37824014922454,43.5368893910726,46.2389607968338,-72.1816992831305,0,0,0,-15.5633454042751,16.8633125760736,11.7293951501016,-0.0934478226442848,-0.243279979347466,0.18132886222507,0.0968157086070087,-55.0041525218428,-37.6796152605636,-39.3343339082691,1.08992168458078,9.85724232752831,8.66143500639381,8.45646621137419,3.78135619416204,11.8099684606009,-2.17031539399119,3.96620222415514,29.305874928621,-20.2328256406891,-8.7320816003418,9.313313647387,-1.05826533304852,4.25817149049915,7.63767728792504,-99.8009165987587,-3.1241791497651,10.0647951255783,-1.10182181892911,-27.5894932835624,-19.5991172761288,-39.4425711596484,1298.93692120176,0.180296031667167,0.0301112336972738
56.26,-23.6909559631348,24.0359649658203,22.7526973596803,-0.130909043025293,-0.0199145123822658,1.51648354530334,1.56957651030007,-19.9116725921631,-26.1884384155273,-21.6968402088851,-0.00552731741410301,-0.488375947208186,-0.786813199520111,-0.742729049209757,4.20368770891765,11.9681561455412,0.251424418232332,-9.29977748653227,19.5360680369752,-38.7052930630284,-0.689775745699958,12.94488787285,-1.78427325469703,23.5553863738527,-22.7468828271243,-85.4607379073425,-11.8290023803711,6.18394088745117,3.38176774978638,43.435001373291,46.1650009155273,-72.1699981689453,0,0,0,-15.5614841461182,16.8610496520996,13.2155162182045,-0.0988326421315107,-0.250356356309474,0.180219784379005,0.0964190607306883,-55.0080129051209,-37.6683006286621,-38.9456086420421,1.08515255880467,10.0378911680247,8.66373634338379,8.48041864623393,3.86226329068529,11.7728488364647,-2.00812707316762,4.65849945948817,28.8376399563543,-20.7557114240814,-8.46994185525289,9.28019518192646,-1.01488787284999,3.96037385045381,6.37867086743254,-100.325130234336,-3.10374446902473,9.94917813882212,-1.08469620674165,-26.8276891050655,-19.5814248806852,-41.3768598747275,1294.22342183118,0.185465428901248,0.0253711496714486
56.265,-23.6909559631348,24.0359649658203,23.0838031737689,-0.134231885496603,-0.15222198031035,1.51648354530334,1.55307204928424,-19.9116725921631,-26.1884384155273,-22.6569022112563,-0.00183197126610821,-0.448999173215348,-0.786813199520111,-0.758913772518344,4.26814999807891,11.9359250009605,0.232622917226968,-9.09087191980598,19.1414686331589,-39.0567849689488,-0.598454169388186,12.8992270846941,-1.72786875168093,23.9300900094093,-23.1779578060833,-87.3640997375154,-11.8290023803711,6.18394088745117,3.38176774978638,43.435001373291,46.1650009155273,-72.1699981689453,0,0,0,-15.5614841461182,16.8610496520996,14.6940718886135,-0.104198504211683,-0.257362030584047,0.180219784379005,0.0995622280249169,-55.0080129051209,-37.6683006286621,-38.5650726086302,1.08037204264458,10.2189898265413,8.66373634338379,8.50670076081458,3.94552708085191,11.735245834454,-1.84428542154943,5.32500769618634,28.3734053636292,-21.233209862313,-8.20672084117776,9.23990625120068,-0.969227084694094,3.64535751967608,5.17497688772391,-100.82915636358,-3.07929961451225,9.82824044429069,-1.06990065544233,-26.0662285602523,-19.5626234616479,-43.3322156514135,1289.38875014408,0.190641754615147,0.0206381750444354
56.27,-23.6909559631348,24.0359649658203,23.4148931998634,-0.137554569526064,-0.28452313947113,1.51648354530334,1.53583518646794,-19.9116725921631,-26.1884384155273,-23.6169184353515,0.00186319867808399,-0.409624276810436,-0.786813199520111,-0.777352671205446,4.33260921350904,11.9036953932455,0.213822312726515,-8.88197631424538,18.7468880448778,-39.4082601148127,-0.507136947528841,12.8535684737644,-1.67146693817957,24.3047757781133,-23.609012230256,-89.2673708104009,-11.8290023803711,6.18394088745117,3.38176774978638,43.435001373291,46.1650009155273,-72.1699981689453,0,0,0,-15.5614841461182,16.8610496520996,16.1725570576078,-0.109564110433468,-0.264367370809684,0.180219784379005,0.105377401930655,-55.0080129051209,-37.6683006286621,-38.184554720175,1.07559175443205,10.4000798497985,8.66373634338379,8.53736166491471,4.0287869007825,11.6976446254531,-1.68045158233117,5.99148415202256,27.9091929068278,-21.7106855321658,-7.94351237817139,9.19961924155686,-0.923568473764414,3.33035620970374,3.97134030330327,-101.333158459536,-3.0548559255946,9.70730851638592,-1.05510580963373,-25.3048043238763,-19.5438229391115,-45.2874781916042,1284.55430898682,0.195817833508251,0.015905426098074
56.275,-23.5833071568484,23.8396451601764,23.6600818965424,-0.141053787340363,-0.401644601834219,1.4214683697036,1.42330095584324,-20.0611847796257,-26.0902785779414,-24.4491642162913,0.00744450714648048,-0.371198847803215,-0.772981877528435,-0.783885713378515,4.33622085647777,11.890260736763,0.193159508824643,-8.13555249319828,17.9061728090955,-39.988423103433,-0.415374231768745,12.8076871158844,-1.62931595088246,24.4518821409071,-24.7856321008029,-91.1792812522761,-11.7968914561294,6.13888733503834,3.51840290388337,42.1780609893489,44.3526127212113,-73.2856826345284,0.136809823506953,0,0,-15.507659742975,16.3702502684619,17.2346119914634,-0.114798129108879,-0.282538798452499,0.15075305186054,0.0846041339837413,-55.1829422153362,-37.6192207098691,-37.863511711203,1.06849704647585,10.5781073799175,8.74131200259332,8.64967332217308,4.05784969147584,11.6173282179498,-1.60241104528716,6.51441717973314,27.9014807425015,-22.1242217712316,-7.76299693323316,9.13784969147588,-0.905049080585753,2.14785270821713,4.38273505606897,-101.069480386088,-3.06719354792524,9.67819705690774,-1.00966018912942,-24.2518013576454,-19.4174745754978,-47.8215293869713,1278.74263791214,0.200866076738814,0.011099259977871
56.28,-23.1768427858309,23.098373528171,23.666762871647,-0.145042435957116,-0.476605875740492,1.06270653183858,1.04719431103523,-20.6257184640474,-25.7196430082592,-24.9265671923422,0.0182607638427692,-0.335416075217784,-0.720757056950933,-0.753546457567914,4.17091793627529,11.9290036086855,0.167330927543015,-5.89707544878968,15.8271314516106,-41.2033230377915,-0.322391339154847,12.7611956695774,-1.6267330927543,23.967197652659,-28.0317426865693,-93.1148304915297,-11.6756458327457,5.96877245429484,4.03431500625427,37.4320586862069,37.5093298938793,-77.4983255815473,0.653381449139704,0,0,-15.3044275574662,14.5170716810894,17.1404581712134,-0.119665916093855,-0.331704205996355,0.0394914660404552,-0.0149247071886339,-55.8434468182397,-37.4339029250281,-37.7076297996167,1.05497874671193,10.7476013222195,9.03422506512178,8.98103980846062,3.93645535945215,11.4184481420812,-1.76254824923331,6.63877701553363,29.1610226691987,-22.3601865878786,-7.81207123766827,9.01645535945218,-0.961871959405363,-1.44263896130435,9.27741064462621,-98.6747563684943,-3.18163450464623,9.90398604641417,-0.879135670778855,-22.3895603910659,-18.992594295181,-51.9618516364096,1270.2192060892,0.205558537022258,0.00609015186627989
56.285,-22.7703590326012,22.3570665487033,23.6734441653331,-0.149031274772172,-0.551570724167481,0.703927586451844,0.671698438540966,-21.1902790682005,-25.3489897648577,-25.4039929333054,0.0290775363111573,-0.299631596334486,-0.668529746038178,-0.724254381489372,4.0056071336199,11.9677483280578,0.141501114628117,-3.65849166283112,13.7479909552502,-42.4182809045297,-0.22940401266118,12.7147020063306,-1.62415011146281,23.4824900522805,-31.2780080627884,-95.0504720272517,-11.5543944277768,5.79864946164057,4.55025170984125,32.6858300704282,30.6657207453025,-81.7111694080162,1.16997770743783,0,0,-15.1011856808514,12.6638047250847,17.046299861248,-0.124533935198758,-0.380871957987665,-0.0717754252770217,-0.111314187820663,-56.5039829172379,-37.2485763033273,-37.5517404548174,1.04145980232926,10.9171033468228,9.32715209517981,9.31572245301987,3.8150552387521,11.2195585826364,-1.92269308930573,6.76314278142023,30.4206246570244,-22.5961626564839,-7.86114788220659,8.89505523875211,-1.01869754781816,-5.03330184305556,14.1723196352906,-96.2799181587295,-3.29608091847258,10.1297858026456,-0.748604928379924,-20.5272306237156,-18.5676937544912,-56.102371316693,1261.69536782728,0.210251221065194,0.00108080489587849
56.29,-22.3638946615837,21.6157949166978,23.6801251404377,-0.153019923388925,-0.626531998073755,0.345165748586824,0.297289551934912,-21.7548127526222,-24.9783541951755,-25.8813959093563,0.039893793007446,-0.263848823749055,-0.616304925460676,-0.695486616443423,3.84030421341742,12.0064911999803,0.115672533346488,-1.42001461842252,11.6689495977653,-43.6331808388882,-0.136421120047281,12.6682105600236,-1.62156725333465,22.9978055640325,-34.5241186485547,-96.9860212665052,-11.4331488043931,5.62853458089707,5.06616381221216,27.9398277672862,23.8224379179705,-85.923812355035,1.68654933307058,0,0,-14.8979534953426,10.8106261377122,16.9521460409981,-0.129401722183735,-0.430037365531522,-0.183037011097106,-0.204513773653389,-57.1644875201413,-37.0632585184862,-37.3958585432311,1.02794150256534,11.0865972891248,9.62006515770827,9.65321643848694,3.69366090672841,11.0206785067678,-2.08283029325189,6.88750261722072,31.6801665837215,-22.832127473131,-7.9102221866417,8.77366090672841,-1.07552042663777,-8.62379351257704,19.0669952238478,-93.8851941411357,-3.41052187519356,10.355574792152,-0.618080410029362,-18.6649896571362,-18.1428134741744,-60.2426935661314,1253.17193600434,0.214943681348639,-0.00392830321571258
56.295,-22.1172560119629,21.1659984588623,23.5527738192264,-0.15663942229841,-0.685083627597306,0.127472534775734,0.0654408567725037,-22.0973663330078,-24.7534561157227,-26.1348109174618,0.0506119396449179,-0.229057499578137,-0.584615409374237,-0.687205071138321,3.74721098717165,12.0382411281961,0.1298740897111,0.347784456661054,10.9199343615822,-45.1130893312589,-0.110904230735586,12.6235177436077,-1.45414729505228,21.8872215583434,-39.4977692591559,-97.9608245174696,-9.97374740809804,7.81759337535982,5.0643985238099,39.6478263805615,10.3930648520576,-88.9523229223638,2.41205640980801,0,0,-14.7746341705322,9.68613529205322,16.4899501314381,-0.134219216759669,-0.481706415247001,-0.250549465417862,-0.250814121209989,-57.5652753257751,-36.9508094787598,-37.2752312949562,1.01433674128546,11.2243826636446,9.79780197143555,9.87781718418317,3.63133155126973,10.9298740897111,-2.19236169229425,7.07869485584116,32.5843401391324,-23.2868945074165,-7.9193971795096,8.76901944864283,-1.09660816668125,-10.7579568693109,21.7101898230844,-92.7131619338505,-3.53448885370489,10.3943864233865,-0.575147351993393,-17.4701010493202,-17.8489452537269,-64.4892437815501,1242.74628077495,0.218507121456839,-0.00841853257763499
56.3,-22.1172560119629,21.1659984588623,23.2186280734611,-0.15968888973901,-0.718308316851709,0.127472534775734,0.0531697018305958,-22.0973663330078,-24.7534561157227,-26.042585049235,0.0611774042592201,-0.195800184428541,-0.584615409374237,-0.709965102557995,3.7655475473725,12.0591971969971,0.20583983911464,1.38911997424058,12.223220739174,-47.0017226923348,-0.189489488739261,12.5816056060057,-1.03240641043257,19.8110184456538,-47.1363856955623,-97.4530926036187,-6.44976824911332,13.6465570998826,4.26386483086054,76.7426873271455,-13.1969204259175,-90.1533673756968,3.45985984985698,0,0,-14.7746341705322,9.68613529205322,15.4599267221133,-0.138958526735186,-0.537232282906481,-0.250549465417862,-0.226568347383078,-57.5652753257751,-36.9508094787598,-37.2090161017178,1.00060022081688,11.3132254759716,9.79780197143555,9.926353844282,3.66014614587108,11.0058398391146,-2.22379579549572,7.37298532820059,32.9400758749515,-24.0792150099227,-7.86700700750715,8.94452652485104,-1.06255455487966,-10.6447682260957,20.8790617857616,-93.4278673667234,-3.67313931230641,10.1446900279883,-0.667371837980857,-17.3050722273504,-17.7572623527963,-68.8991872692962,1229.38678691432,0.220328067910363,-0.0121075951735946
56.305,-22.1172560119629,21.1659984588623,22.8844663939899,-0.162738502593155,-0.751534590422037,0.127472534775734,0.0431380805199738,-22.0973663330078,-24.7534561157227,-25.950354783227,0.0717433726866268,-0.162541283407259,-0.584615409374237,-0.731466809902196,3.78388498195037,12.0801542650861,0.281809210937207,2.43050514779824,13.526569263844,-48.8904461127003,-0.268078494072964,12.5396914698278,-0.610645415141708,17.7347163294301,-54.7753663786157,-96.9453364786232,-2.92562104954117,19.4757987779471,3.46329296454353,113.839317138397,-36.7880305899389,-91.3544691007122,4.50771325430631,0,0,-14.7746341705322,9.68613529205322,14.4298541962271,-0.143698062704218,-0.592760798311308,-0.250549465417862,-0.199492982536682,-57.5652753257751,-36.9508094787598,-37.1427977510146,0.986863045323709,11.4020725247591,9.79780197143555,9.97588447746383,3.68896211449344,11.0818092109372,-2.2552313976292,7.66728983377123,33.2958285739929,-24.8715732941514,-7.81461433728469,9.1200419700963,-1.02849931923506,-10.5315741854916,20.047894116183,-94.1426068802521,-3.81179638244092,9.89498172584277,-0.759600721683545,-17.140035535998,-17.6655750799759,-73.3093410447486,1216.02665600759,0.222149101195534,-0.0157968336821284
56.31,-22.1172560119629,21.1659984588623,22.5503206482246,-0.165787970033756,-0.784759279676441,0.127472534775734,0.035655057228929,-22.0973663330078,-24.7534561157227,-25.8581289150001,0.082308837300929,-0.129283968257664,-0.584615409374237,-0.751105481433742,3.80222154215122,12.1011103338871,0.357774960340748,3.47184066537776,14.8298556414357,-50.7790794737762,-0.34666375207664,12.4977793322258,-0.188904530521995,15.6585132167405,-62.4139828150221,-96.4376045647723,0.598358109443555,25.3047625024699,2.66275927159416,150.934178084981,-60.3780158679139,-92.5555135540451,5.55551669435527,0,0,-14.7746341705322,9.68613529205322,13.3998307869023,-0.148437372679736,-0.648286665970788,-0.250549465417862,-0.169883069565551,-57.5652753257751,-36.9508094787598,-37.0765825577761,0.973126524855121,11.4909153370862,9.79780197143555,10.0256641566413,3.71777670909479,11.1577749603408,-2.28666550083067,7.96158030613066,33.651564309812,-25.6638937966575,-7.76222416528224,9.29554904630451,-0.994445707433471,-10.4183855422764,19.2167660788602,-94.8573123131251,-3.95044684104243,9.64528533044449,-0.851825207671009,-16.9750067140282,-17.5738921790453,-77.7192845324947,1202.66716214697,0.223970047649059,-0.019485896278088
56.315,-22.0131599150878,20.7388584209271,22.1597889874856,-0.163772246965244,-0.812082135648354,0.0581270907268009,-0.0383703033720764,-22.2014621460102,-22.6177563518556,-25.3148945786286,0.0837534627250323,-0.093149242687331,-0.578073386978419,-0.761757552965749,3.58377685206868,12.2037635415768,0.279865046401839,3.38807813264814,15.2210230911472,-52.166383887184,-0.65831400436288,12.5395324073504,-0.329986689508124,13.8976536073822,-65.7921274861505,-94.0485543859425,1.9310609604524,27.9538816555858,3.67448305710503,156.658136062416,-69.6921939273693,-61.0187076101328,17.4599884149423,0.0367644209348653,-0.0242566708675759,-14.7030681748988,9.79292023056886,12.5078195247176,-0.152086057267582,-0.688418565168244,-0.253166274376189,-0.140741959402812,-57.77346695178,-37.6983046161145,-37.1629445562838,0.949956521594256,11.5112870764861,9.93910965518521,10.2161950697602,3.76720775459399,11.2569739582691,-2.2895818287137,7.6472763778786,33.098737283482,-25.4542862659551,-7.5599144677652,9.80458657365756,-0.759730092803723,-10.9895809036132,17.355675727326,-95.3699597048747,-4.05809708104928,9.67731039072652,-0.919107084432877,-17.6082270213734,-17.878799420376,-84.6480250821379,1183.15871529104,0.227367319245722,-0.0225324644942158
56.32,-21.8323881986613,19.99709345442,21.7277519799474,-0.158025328215547,-0.835055038677488,-0.0622971645854029,-0.160479393573836,-22.3822333694678,-18.9089322587737,-24.4394618240491,0.0784789402473938,-0.0548978138727695,-0.566712609265377,-0.76460525708995,3.19092113533567,12.3665918978543,0.0886063422028691,2.47549906356399,14.940229531429,-53.1842605411625,-1.14162991902784,12.6429154907012,-0.885670762518646,12.3692432084615,-66.0314401790922,-90.2737955092762,1.64941081886399,28.260292426258,6.02115473965106,139.271686887522,-68.4890736103745,-5.3675939212759,37.3612319599699,0.100608961463605,-0.0663804407221581,-14.5787877430978,9.97836134895339,11.7175512297586,-0.154931011138857,-0.717206900657736,-0.257710585461406,-0.11185573351574,-58.1350093986952,-38.9963934307441,-37.3616981029677,0.919839094276018,11.4812166962687,10.1845024537869,10.5093977556378,3.83182218168823,11.3732799270388,-2.27148978912731,6.88466659637121,31.8766471315266,-24.5066080019062,-7.24718064062904,10.5592830821184,-0.377212684405784,-12.0648926038977,14.7359994485914,-95.733714998146,-4.14290154473465,9.91686791578762,-0.9680089733223,-18.8294392990795,-18.4758365886956,-93.4317084872039,1159.12214841198,0.231925537447366,-0.0251054755249179
56.325,-21.6516078621538,19.2552931169261,21.2956943707685,-0.152278135424615,-0.858029037167163,-0.182727162315961,-0.279476911032285,-22.5630132129828,-15.1999313107925,-23.5639873245479,0.0732041662546879,-0.0166445610427193,-0.555351289814807,-0.763983017523685,2.7980466853178,12.5294280185854,-0.102661482147939,1.56287647823984,14.6594225820985,-54.2021857324856,-1.62496888056298,12.7463035038637,-1.44138133326762,10.8407599274466,-66.2707642836352,-86.4988566336171,1.36774724681726,28.5667178080967,8.36793832299737,121.884408641569,-67.28589592271,50.2861734852716,57.26342449377,0.16445654641276,-0.108506219244417,-14.454501384997,10.1638113100788,10.9272452509365,-0.157776100671468,-0.745996608916075,-0.262255113241634,-0.0818552227525728,-58.4965690857251,-40.2945441446067,-37.5604611271942,0.889720230811325,11.4511448821483,10.4299069539192,10.8003032964821,3.89643968991486,11.4895914418467,-2.25339688682386,6.12202044989402,30.6544987043268,-23.5588845479157,-6.93443190081217,11.3140155782053,0.00532296429583201,-13.1402555803111,12.1161982508602,-96.0974876370514,-4.22771005231224,10.1564368641249,-1.01691319409332,-20.0507098101687,-19.0729022266717,-102.215810741319,1135.08443535168,0.23648397300718,-0.0276786092493891
56.33,-21.4708275256464,18.5134927794321,20.8636367615896,-0.146530942633682,-0.881003035656839,-0.30315716004652,-0.395310681181425,-22.7437930564978,-11.4909303628114,-22.6885128250467,0.067929392261982,0.0216086917873309,-0.543989970364236,-0.759480516204216,2.40517223529994,12.6922641393165,-0.293929306498746,0.650253892915681,14.378615632768,-55.2201109238087,-2.10830784209813,12.8496915170263,-1.99709190401659,9.31227664643162,-66.5100883881783,-82.7239177579581,1.08608367477053,28.8731431899353,10.7147219063437,104.497130395616,-66.0827182350454,105.939940891819,77.16561702757,0.228304131361915,-0.150631997766677,-14.3302150268963,10.3492612712041,10.1369392721144,-0.160621190204079,-0.774786317174414,-0.266799641021862,-0.0513713357239841,-58.8581287727551,-41.5926948584693,-37.7592241514207,0.859601367346632,11.4210730680279,10.6753114540516,11.0879821147224,3.96105719814148,11.6059029566546,-2.23530398452041,5.35937430341683,29.4323502771269,-22.6111610939252,-6.62168316099531,12.0687480742923,0.387858612997447,-14.2156185567246,9.49639705312893,-96.4612602759569,-4.31251855988983,10.3960058124622,-1.06581741486433,-21.2719803212579,-19.6699678646478,-110.999912995434,1111.04672229138,0.241042408566995,-0.0302517429738603
56.335,-21.292897988945,20.1888779774729,20.8407535449404,-0.137796420980199,-0.927550585317264,-0.408038980380671,-0.492466423363457,-22.7871788740453,-7.24888306600792,-20.8826845225847,0.0709568226948191,0.0734065928802014,-0.531640067458034,-0.749785401015515,2.18593986374919,12.6784432996826,-0.0524759484659606,-1.71079077799003,15.2733867775247,-56.4395167684172,-2.22508419272867,12.6147199343465,-2.23767869325768,11.4951041229126,-65.668295797767,-76.8476348607688,-0.0067299187241725,26.5977820567352,9.95120949770615,94.2035898057199,-56.0450820158668,124.665968686764,94.1388314860041,0.244912943867538,-0.169454491805922,-14.2617461912847,8.615938499799,9.523226766934,-0.158137963579212,-0.805440794928888,-0.274574236389578,-0.0243249928992964,-59.2300056477169,-44.7073621754121,-38.630740897731,0.830547875279073,11.3386873692607,10.8451762517413,11.2959736208597,3.90085567102051,11.5887027497355,-2.22413745711264,3.44398839515694,28.9890310136709,-20.0516461169832,-6.13867526226799,12.7883161454265,0.796058415812212,-14.0459378105508,9.04866360835328,-97.4617580822102,-4.49463857283307,10.9180021790773,-1.09173756859238,-24.353883295176,-21.1376902548399,-123.521534579625,1085.53298990478,0.244867573682928,-0.0332159493675272
56.34,-21.1161388487672,22.8669301159215,20.987578301175,-0.127822283029837,-0.983878661196903,-0.506479101138975,-0.580167470032779,-22.7735819562605,-2.78546283526016,-18.6908600648973,0.0774278866862255,0.130825778154473,-0.518879305684656,-0.735250873300416,2.03871263731375,12.5913511375659,0.36846950176492,-4.67274349900884,16.6558020492189,-57.742571163403,-2.18983260330047,12.2393941880815,-2.34758070735736,15.2173852433632,-64.3780415441858,-70.0994003122766,-1.43605050442393,23.2514434658281,7.89761658774463,86.8515594073406,-42.3425811479687,128.077079318899,109.898365583318,0.24193008369082,-0.178612965707035,-14.2164236593517,6.08666699450942,8.9827169173189,-0.153444592519157,-0.836870774089285,-0.283689061813506,0.000439682750288376,-59.6061867760876,-48.5756595768894,-39.7813483409391,0.801934297524239,11.2345983615474,10.983721598185,11.4675961381788,3.78888003401328,11.5161259479716,-2.21584296548248,1.0503619525013,28.8687096844678,-16.8234504547492,-5.58501794595448,13.4933479339905,1.21493024313554,-13.3598502312656,9.50178861407525,-98.7264120529823,-4.717131874247,11.5571735955433,-1.10812657990483,-28.2077116745078,-22.9666259915215,-137.594177580729,1059.40534126976,0.248388864986281,-0.0363425573652289
56.345,-20.9393881369292,25.5448545578158,21.1343960564198,-0.11784862067255,-1.04020405120605,-0.604914528013969,-0.665051043090567,-22.7599856868124,1.67774456789697,-16.4991401191524,0.0838986421203177,0.188242225531297,-0.50611915237789,-0.716172802575785,1.89149243105886,12.504263128232,0.789394880211984,-7.63455498634841,18.0381514037249,-59.0455634253354,-2.15458269476056,11.8640863383331,-2.45747748104058,18.9394888756811,-63.0878488133136,-63.351487537318,-2.86530293636698,19.9052644371273,5.84412159848263,79.4998795730659,-28.6407336512735,131.488027300326,125.657148224685,0.238947365744705,-0.187771002908076,-14.1711032885159,3.55751609152316,8.44223284063198,-0.148751445251351,-0.868299254585789,-0.292803452618637,0.0235058366443626,-59.9823499671548,-52.4437725277945,-40.9319009201647,0.773322084139888,11.1305143170712,11.122260338423,11.6333034413266,3.6769097362983,11.44355260686,-2.20754886935544,-1.3431503557636,28.7483940925016,-13.5954087213567,-5.03138702947487,14.1983461047886,1.63378209755084,-12.6737953664367,9.95489201360775,-99.991005721734,-4.9396145665964,12.1963145346387,-1.12451480974621,-32.0613562931882,-24.7954745197472,-151.666149561281,1033.2789384696,0.251909988385224,-0.0394690162780557
56.35,-20.7626289967515,28.2229066962645,21.2812208126544,-0.107874482722189,-1.09653212708569,-0.703354648772273,-0.747408019107447,-22.7463887690277,6.14116479864473,-14.3073156614651,0.0903697061117241,0.245661410805569,-0.493358390604512,-0.692550082555902,1.74426520462342,12.4171709661153,1.21034033044286,-10.5965077073672,19.420566675419,-60.3486178203212,-2.11933110533236,11.4887605920682,-2.56737949514026,22.6617699961317,-61.7975945597324,-56.6032529888257,-4.29462352206673,16.5589258462202,3.79052868852112,72.1478491746867,-14.9382327833755,134.89913793246,141.416682321999,0.235964505567987,-0.196929476809189,-14.1257807565829,1.02824458623357,7.90172299101688,-0.144058074191296,-0.899729233746186,-0.301918278042565,0.0441134138298453,-60.3585310955256,-56.3120699292719,-42.0825083633729,0.744708506385054,11.026425309358,11.2608056848667,11.7923175145718,3.56493409929106,11.3709758050961,-2.19925437772527,-3.73677679841925,28.6280727632986,-10.3672130591227,-4.47772971316136,14.9033778933526,2.05265392487417,-11.9877077871515,10.4080170193297,-101.255659692506,-5.16210786801033,12.8354859511047,-1.14090382105865,-35.91518467252,-26.6244102564289,-165.738792562385,1007.15128983458,0.255431279688577,-0.0425956242757574
56.355,-20.5858782849134,30.9008311381588,21.4280385678992,-0.0979008203649019,-1.15285751709485,-0.801790075647268,-0.827587004882666,-22.7327924995796,10.6043722018019,-12.1155957157202,0.0968404615458163,0.303077858182393,-0.480598237297746,-0.664503285055227,1.59704499836853,12.3300829567814,1.63126570888993,-13.5583191947068,20.802916029925,-61.6516100822537,-2.08408119679245,11.1134527423198,-2.67727626882348,26.3838736284495,-60.5074018288602,-49.8553402138671,-5.72387595400978,13.2127468175194,1.73703369925911,64.7961693404119,-1.23638528668031,138.310085913888,157.175464963367,0.232981787621872,-0.206087514010231,-14.0804603857472,-1.50090631675269,7.36123891432995,-0.13936492692349,-0.931157714242689,-0.311032668847696,0.0615259228375767,-60.7346942865928,-60.1801828801769,-43.2330609425984,0.716096293000702,10.9223412648818,11.3993444251047,11.9439268554476,3.45296380157608,11.2984024639845,-2.19096028159823,-6.13028910668415,28.5077571713323,-7.13917132573014,-3.92409879668174,15.6083760641506,2.47150577928946,-11.3016529223226,10.8611204188622,-102.520253361258,-5.38459056035972,13.4746268902,-1.15729205090003,-39.7688292912004,-28.4532587846546,-179.810764542938,981.024887034419,0.258952403087519,-0.0457220831885842
56.36,-20.2222213997961,31.5195329658483,22.5334653895198,-0.0834625389017416,-1.25479208773275,-0.799950352719104,-0.805744522465777,-22.5102585802652,14.5163150451476,-8.07043510438138,0.0992326977972354,0.382867514029896,-0.418611292691017,-0.583043643936414,1.68754633818172,12.3866787296727,1.13581552880043,-11.8910474567019,20.8248787756679,-63.677227524847,-2.10150926763634,11.452864963927,-1.54570696174635,19.557428586403,-51.3267877492327,-44.4429428694088,-5.88935327529907,12.8253297805786,1.49928224086761,63.9449996948242,0.349999994039536,138.705001831055,159,0.232636451721191,-0.207147821784019,-14.1927444078635,-6.88652501736061,5.34618035550924,-0.135895689591033,-1.00083958868705,-0.334779017464304,0.0604196480697071,-61.5539553671671,-67.2640970947654,-46.7338719660151,0.682231234135392,10.7289431462898,11.4948032247826,12.0444769226229,2.82268401883684,11.2641888788364,-1.82434245018211,-12.4459351364262,27.6122127339176,4.38752149045142,-3.66426566450925,16.2922594938177,2.72433804254529,-9.51741360215623,13.5318688752392,-104.424584589538,-5.68750065670057,13.5419289153119,-0.985068368732543,-55.3994670825177,-36.020094918135,-211.312074385022,921.860811469135,0.266846369150594,-0.0580435543325977
56.365,-19.8341121564047,31.868583628249,23.7643450469006,-0.0684404752498628,-1.36269285530745,-0.784981519350952,-0.769512349562485,-22.2603800707892,18.3558688519281,-3.78281823897383,0.101090797033351,0.46558223245888,-0.350182336526279,-0.491310247630408,1.80916811654718,12.4620842322593,0.520409330271179,-9.61777125367337,20.6687224182604,-65.7973503773413,-2.12583362330943,11.885838494908,-0.25165123993783,11.3502108018892,-41.113561373407,-39.2056988825108,-5.88935327529907,12.8253297805786,1.49928224086761,63.9449996948242,0.349999994039536,138.705001831055,159,0.232636451721191,-0.207147821784019,-14.3256578077876,-12.6458558725158,3.13816171342375,-0.132586888117094,-1.07552629265206,-0.360439874666852,0.0528907083659912,-62.4311878894282,-74.7686800730514,-50.5422178627855,0.647680236757954,10.5238614009812,11.5846163409791,12.1309599574664,2.12457501101909,11.2349996520287,-1.41082840373953,-19.2747727661315,26.6152144520082,17.0001503579809,-3.4429140278841,16.9733414526643,2.95541942143968,-7.58948318954815,16.4928336522355,-106.412575139611,-6.0009249261861,13.53435539118,-0.788158669595936,-72.5712453389651,-44.337808266317,-245.093740731525,858.374243162363,0.275312453851636,-0.0715682808813879
56.37,-19.4459844060634,32.217650935095,24.9952833986525,-0.053417695272408,-1.47059876811927,-0.770011972195504,-0.732550663668806,-22.0104896458819,22.1956057474409,0.505003081007435,0.10294898487274,0.54830089513079,-0.281750117333734,-0.396204582998993,1.93079569443476,12.5374933305496,-0.0950262138399937,-7.34438664970054,20.5125586145529,-67.9175743276779,-2.15015913888696,12.3188326721878,1.04246618878604,3.14260165703087,-30.8998479809214,-33.9682051581666,-5.88935327529907,12.8253297805786,1.49928224086761,63.9449996948242,0.349999994039536,138.705001831055,159,0.232636451721191,-0.207147821784019,-14.4585775456736,-18.4054613607765,0.930037782194111,-0.129277928863294,-1.15021655804495,-0.386101955504762,0.0403237121438108,-63.3084622424329,-82.2736209066128,-54.3507453601422,0.613127591819724,10.3187698763704,11.6744337399048,12.2087421311475,1.42643271394437,11.2058090333357,-0.997294638921758,-26.1039360282638,25.6181686283371,29.6133806574338,-3.2215518361287,17.6544558888348,3.18651181942609,-5.66146084377463,19.4539396225356,-108.40066048681,-6.31436414127601,13.5267815059053,-0.591239580840372,-89.7438424299103,-52.6559182438132,-278.87701795335,794.884647505046,0.283778942257064,-0.0850936523553867
56.375,-19.0578751626719,32.5667015974956,26.2261630560333,-0.0383956316205292,-1.57849953569397,-0.755043138827351,-0.695423864681729,-21.7606111364059,26.0351595542214,4.79261994641498,0.104807084108856,0.631015613559773,-0.213321161168996,-0.298293594923266,2.05241747280023,12.6128988331361,-0.710432412369242,-5.07111044667202,20.3564022571454,-70.0376971801721,-2.17448349456005,12.7518062031689,2.33652191059456,-5.06461612748294,-20.6866216050958,-28.7309611712686,-5.88935327529907,12.8253297805786,1.49928224086761,63.9449996948242,0.349999994039536,138.705001831055,159,0.232636451721191,-0.207147821784019,-14.5914909455977,-24.1647922159317,-1.27798085989137,-0.125969127389355,-1.22490326200996,-0.411762812707309,0.0223054030197309,-64.1856947646941,-89.7782038848988,-58.1590912569126,0.578576594442285,10.1136881310617,11.7642468561013,12.2777043165886,0.728323706126609,11.176619806528,-0.583780592479188,-32.9327736579691,24.6211703464276,42.2260095249633,-3.00020019950355,18.3355378476814,3.41759319832048,-3.73353043116655,22.4149043995318,-110.388651036883,-6.62778841076153,13.5192079817734,-0.394329881703765,-106.915620686358,-60.9736315919951,-312.658684299853,731.398079198274,0.292245026958106,-0.0986183789041768
56.38,-18.7186421659264,31.5084115674595,27.3359369981127,-0.0225723574069855,-1.67996536186126,-0.76384310478793,-0.682477722641174,-21.5090341706095,26.0528414954994,8.79611693707106,0.106138982878185,0.690210461596711,-0.143796926707441,-0.1971228649547,1.64205643338098,12.225744400044,-0.513120333370008,-3.780022844432,20.6855124933034,-69.618215560495,-2.20576138627171,12.6637253608046,2.64783480588041,-8.93448225347302,-2.65176573639952,-28.4728705397197,-5.41284696114537,12.4446944038413,1.41337822277146,67.3088419460047,2.33362667010769,138.406763276232,175.051325292371,0.233630928992234,-0.198538554606334,-14.9031670041331,-29.594205955314,-5.4086941830428,-0.133421558562015,-1.31436030786154,-0.438487694120651,-0.00251522768118813,-65.1902573466176,-94.4659720079591,-63.7164535723587,0.547053026947111,9.84246904371152,11.7288681414093,12.2127318445968,0.518477227456582,11.1303670980435,-0.436495582358777,-35.9249019848344,23.022589012495,49.3163757705394,-3.06097212547811,18.2700373941416,3.28174371570678,-1.19722037786097,25.7163808397041,-110.805255516828,-7.08709904221947,13.6888238360722,-0.416592573725802,-108.958151484653,-63.2067885024707,-328.372418066924,691.436778238076,0.295000113949737,-0.104757745605447
56.385,-18.3937650314185,30.0374270354993,28.4101233380758,-0.00651507146693308,-1.77953762320617,-0.779613692951363,-0.677488968907802,-21.2569745776983,24.9496033409294,12.7160373600589,0.107316469874029,0.742503502872882,-0.0739557448269667,-0.0941817492431572,1.07569515220393,11.7029493712652,-0.0774578093876425,-2.77708152197444,21.1569265533859,-68.4539177476736,-2.23907675575271,12.4228296122497,2.67089929244419,-11.5320053630555,17.6759881966914,-29.6751345855679,-4.79661522001825,11.9524457305828,1.30228466310851,71.6590599929648,4.89891003368843,138.021072555143,195.809363199765,0.234917015749206,-0.187404801400659,-15.267253245716,-34.926523295069,-10.1030610082802,-0.144029698296346,-1.4081438392192,-0.465522995752611,-0.0335276830484246,-66.2321026863835,-98.3273057933543,-69.7864432142051,0.51641932008881,9.55186922253899,11.6567740240907,12.1025622568365,0.451846488494578,11.0791126834574,-0.367302122667466,-37.7915751086513,21.2476676184928,54.7866771791487,-3.20448448631936,17.9855753931884,3.03828524642251,1.51736528355414,29.1175225483536,-110.760961578297,-7.58916844445377,13.9103972056621,-0.503135089974435,-106.563290605483,-63.6552646300996,-338.786028432321,658.377680830003,0.296080049227448,-0.108730677254824
56.39,-18.0688724051776,28.5663723597915,29.4843609005052,0.00954298016316461,-1.87911463264422,-0.795385033133688,-0.674042063930948,-21.0049029653511,23.8463125785603,16.636144704053,0.108494013018222,0.794799037737402,-0.0041112325768446,0.00945732420461869,0.509306864146838,11.1801294130586,0.358225489117826,-1.77409237436203,21.6283630928,-67.2895644154295,-2.27239371387372,12.1819223766055,2.69396487883567,-14.1296523352631,38.0047114566592,-30.8774559612547,-4.18035409394329,11.4601735844965,1.19118580596047,76.0094854796296,7.4643157225452,137.635363442431,216.568390952084,0.236203163833093,-0.176270517283095,-15.6313568487143,-40.2590949058335,-14.7976516839218,-0.154638343878741,-1.50193184263501,-0.492559586560177,-0.0704155855316504,-67.2739977064383,-102.188823706058,-75.8567223028896,0.485784152465316,9.26125554414359,11.5846764689715,11.9843558487589,0.385212572252569,11.0278558248097,-0.298105363493075,-39.6583372445861,19.4726615875447,60.2572394385236,-3.34800369053292,17.7010998276937,2.79481516784592,4.23208038971014,32.5188264400991,-110.716665527613,-8.09126178781639,14.1319811409556,-0.589681732994146,-104.168315527616,-64.103762143267,-349.200135369668,625.317007002236,0.297160036001762,-0.112703798353043
56.395,-17.7439952706697,27.0953878278313,30.5585472404683,0.025600266103217,-1.97868689398913,-0.811155621297121,-0.672651869622645,-20.7528433724399,22.7430744239902,20.5560651270408,0.109671500014067,0.847092079013572,0.0657299493036299,0.113001929282324,-0.057054417030217,10.6573343842798,0.793888013100191,-0.771151051904473,22.0997771528825,-66.1252666026081,-2.30570908335472,11.9410266280505,2.71702936539945,-16.7271754448456,58.3324653897501,-32.0797200071029,-3.56412235281617,10.9679249112381,1.08009224629752,80.3597035265897,10.0295990861259,137.249672721341,237.326428859479,0.237489250590064,-0.16513676407742,-15.9954430902972,-45.5914122455885,-19.4920185091592,-0.165246483613072,-1.59571537399267,-0.519594888192136,-0.113016598685082,-68.3158430462042,-106.050157491453,-81.926711944736,0.455150445607015,8.97065572297107,11.512582351653,11.8587480600744,0.318581833290564,10.9766014102235,-0.228911903801764,-41.525010368403,17.6977401935425,65.7275408471329,-3.49151605137416,17.4166378267405,2.55135669856165,6.94666605112525,35.9199681487486,-110.672371589082,-8.59333119005068,14.3535545105455,-0.676224249242779,-101.773454648447,-64.5522382708959,-359.613745735065,592.257909594163,0.298239971279473,-0.11667673000242
56.4,-17.5579836083947,20.188698877899,29.3390152557785,0.0326711778943602,-2.04723896562595,-0.945995918217202,-0.79285099617082,-20.4134383552883,20.7690089190008,21.8378326505929,0.110133309084685,0.87929630728501,0.222498773549004,0.302592190236504,0.108308140211954,10.0452956795155,1.23512297659255,-2.35993743054028,23.2795333744521,-60.5272146957718,-0.890789914987771,11.4333837195761,2.06678036566905,-13.486580921203,61.9409410147697,-32.2739707021955,-3.56883767406363,10.7236165564677,1.0280732991699,70.1588964560013,10.9110872633843,125.418639305455,303.619762431583,0.225338763454622,-0.160448968666798,-17.1026762529095,-54.2167434894957,-25.531224346417,-0.188557525121815,-1.67573308710697,-0.654015494959588,-0.268408679063663,-70.1195996427841,-106.39482108232,-86.814425759928,0.436349962658379,8.65543436815046,11.1740799747386,11.4601231633882,0.512136368929777,10.8593569349016,-0.00296937230699473,-44.93079044263,18.7063837526436,75.7574283261951,-4.59515313846512,15.6097109584255,1.78167031559333,7.33832595065467,42.3393698772333,-104.517202863358,-8.65799617767334,14.3820924758911,-0.687370657920837,-101.465003967285,-64.6100006103516,-360.954986572266,588,0.298379063606262,-0.117188431322575
56.405,-17.3925105949163,12.4788283317764,27.7804698803109,0.0384132479424135,-2.11120157393437,-1.09843089758788,-0.933557904560966,-20.0611396494575,18.6663171424346,22.7295321565818,0.110489294287692,0.908529045864911,0.392109521783396,0.503368636231168,0.381832304646565,9.42009758937927,1.67715756375919,-4.33177168473159,24.5639391730537,-54.2740277795749,0.738144171421922,10.8863353907069,1.31703109351346,-9.38311544726667,63.0776099961613,-32.3191962584843,-3.66534727587333,10.5159745641619,0.984790192850397,57.8075711852363,11.543611930904,111.89628961869,376.640945615465,0.211202614034889,-0.156714335086391,-18.3197081457795,-63.328408553329,-31.7689070577173,-0.213745159408795,-1.75371142127167,-0.804303502994851,-0.444625742232475,-72.0358907775972,-106.219596825832,-91.5270963524388,0.419299812929762,8.33659046716224,10.7962130197063,11.0164699753472,0.744143472691275,10.7323635728427,0.246132991731678,-48.5639101311629,20.1264662201116,86.460809981209,-5.84066495865844,13.5778171654827,0.934233841853961,7.38656654402938,49.2046093218718,-97.4590010452205,-8.65799617767334,14.3820924758911,-0.687370657920837,-101.465003967285,-64.6100006103516,-360.954986572266,588,0.298379063606262,-0.117188431322575
56.41,-17.2270296908741,4.76859014126174,26.2218501857657,0.0441555918004924,-2.17516723229326,-1.25087314580502,-1.07749795350029,-19.7088241442988,16.5635250992251,23.6212741831708,0.110845296465818,0.937763178404976,0.561728357889051,0.701762492597241,0.655369512053111,8.79486968673574,2.11921322930013,-6.30369996563856,25.8484062184151,-48.0205426807966,2.36715593338769,10.3392609758938,0.567246069640146,-5.27945429999696,64.2143331794976,-32.3644239713492,-3.76186147973356,10.3083226704689,0.941505022580373,45.4556569427831,12.1761667602982,98.3732951200562,449.665610807034,0.197065790534311,-0.152979523420362,-19.5367980726914,-72.4405081059834,-38.0068872122826,-0.238933994765552,-1.83169347382529,-0.954598677498478,-0.625234430096829,-73.952273290558,-106.044364213794,-96.239991668167,0.402248850166492,8.01773136213505,10.4183280461268,10.5682064453523,0.976161639687895,10.6053641551182,0.495247234191219,-52.1972030646383,21.5466164040676,97.1647020258875,-7.0862361709561,11.5458264818912,0.0867569581926193,7.43480943775187,56.0701761347544,-90.400462657448,-8.65799617767334,14.3820924758911,-0.687370657920837,-101.465003967285,-64.6100006103516,-360.954986572266,588,0.298379063606262,-0.117188431322575
56.415,-17.0615566773957,-2.94128040486086,24.6633048102981,0.0498976618485457,-2.23912984060168,-1.4033081251757,-1.22487947380283,-19.356525438468,14.460833322659,24.5129736891596,0.111201281668826,0.966995916984877,0.731339106123443,0.897081938666539,0.928893676487723,8.16967159659948,2.56124781646678,-8.27553421982986,27.1328120170168,-41.7673557645997,3.99609001979738,9.79221264702459,-0.18250320251545,-1.17598882606062,65.3510021608892,-32.409649527638,-3.85837108154326,10.1006806781632,0.898221916260869,33.1043316720181,12.8086914278179,84.8509454332909,522.686793990916,0.182929641114578,-0.149244889839954,-20.7538299655614,-81.5521731698167,-44.2445699235829,-0.264121629052532,-1.90967180798998,-1.10488668553374,-0.809541430400935,-75.868564425371,-105.869139957306,-100.952662260678,0.385198700437875,7.69888746114682,10.0404610910945,10.1165396873608,1.20816874344939,10.4783707930593,0.744349598229892,-55.8303227531712,22.9666988715356,107.868083680901,-8.33174799114943,9.51393268894841,-0.760679515546747,7.48305003112658,62.9354155793929,-83.3422608393106,-8.65799617767334,14.3820924758911,-0.687370657920837,-101.465003967285,-64.6100006103516,-360.954986572266,588,0.298379063606262,-0.117188431322575
56.42,-17.0833510840009,-5.2148261272314,21.0698298646375,0.0479579779893255,-2.25797343971263,-1.52683795982287,-1.34693156266249,-19.2526368976445,10.6842937172798,23.1054387108128,0.11630333398398,0.996681945612234,0.814812545393325,1.00259989876281,1.08793746241733,8.35837855045805,2.63887623359629,-11.1010672280761,26.8792122626205,-36.4087751222625,4.21213363517386,9.98109546885503,-0.586202115241782,1.71324058899079,48.333710633983,-29.4183290384816,-3.72079738787668,9.84686604587152,0.791507966335989,28.9940384640177,11.9350988799878,75.740595522838,575.294471366418,0.169132369149921,-0.14431837741273,-21.6846925387548,-85.1033663057319,-50.8835079822816,-0.292946614006973,-1.97491856641259,-1.21780760074622,-0.9594245187939,-77.1025491116501,-106.381125672471,-103.455220262092,0.358017525142489,7.35603685286486,9.74501743490714,9.74511670167907,1.01419617275653,10.5479374624173,0.692460825580995,-54.9018131829022,22.2834759346379,112.461726036933,-9.16305861129781,8.45509214389304,-1.38591772487708,4.90966269583933,65.0902835912209,-79.062727979769,-8.99696140090955,14.8627148538133,-0.552152475444672,-97.2844177412871,-61.9954541099661,-360.471062397131,561.691309115348,0.298459844687524,-0.11912228834344
56.425,-17.1590121369304,-5.92445858472806,16.8912225089931,0.0438087357478547,-2.26383727571869,-1.64204556613677,-1.46426559932039,-19.2202105973564,6.42649909020336,21.0366090788077,0.122770292197586,1.02649654167642,0.873503227498721,1.07916670869946,1.21404088995791,8.78119592515297,2.61167745510714,-14.1719955288708,26.1832165841103,-31.3078594258131,4.02174218574982,10.3816592975134,-0.890333911074959,4.25301429302783,26.0954276605337,-25.5537214551752,-3.51589744225377,9.57978531155365,0.666554513228126,27.2545529865546,10.6283212421247,67.8999287524314,622.026918043224,0.155433423344101,-0.139049320263648,-22.5331805724223,-87.0548564776,-57.637460614843,-0.322816122992365,-2.03649904626271,-1.31997283653401,-1.1006743011748,-78.1401907208696,-107.090757776257,-105.321879691192,0.327923801581309,7.0063017002799,9.47330120542474,9.39652366612753,0.697701295791922,10.6740408899579,0.553994316908975,-52.6611955161195,20.9952734068691,115.297603165599,-9.87517208446819,7.67621803261294,-1.94720160824402,1.5823149345408,65.8900680989826,-75.5827495872182,-9.43341008369254,15.4815600608746,-0.378046715961178,-91.9015311602467,-58.6289867028572,-359.847965824604,527.816466815229,0.298563857707425,-0.12161230587795
56.43,-17.2346767977495,-6.63412488097621,12.7124158968822,0.03965929565019,-2.26970139134118,-1.75725866611364,-1.58514003979786,-19.1877827508234,2.1685014306236,18.9676807948722,0.129237558787436,1.05631255944659,0.932196708263318,1.15117000680437,1.3401503307276,9.20403346185137,2.584477379647,-17.243070266569,25.4871877171171,-26.206700492718,3.8313416575289,10.7822422270171,-1.19448020940186,6.79290910591538,3.85608425682473,-21.6889295884497,-3.31098772599781,9.31269184151814,0.541595101727573,25.5149845619036,9.32148129070304,60.0588881006282,668.761593151993,0.141733824305445,-0.133780011860112,-23.3817090661553,-89.0064397060784,-64.3917353089481,-0.352687056302251,-2.09808246257174,-1.42214294406067,-1.24319789833835,-79.1778818099236,-107.800423718777,-107.188628131757,0.297828643003983,6.65654987060979,9.2015720191816,9.04831208526531,0.381191326801326,10.8001503307276,0.415521205475586,-50.4204710057115,19.7070094512939,118.133615522778,-10.5873195146971,6.89730678080013,-2.50851225637581,-1.74519149099699,66.6898907443871,-72.1026052522521,-9.86987957848653,16.1004347775065,-0.203932654262269,-86.5183878968078,-55.2623587660928,-359.224839539781,493.940009196703,0.298667875687177,-0.124102442148694
56.435,-17.310337850679,-7.34375733847287,8.53380854123775,0.0355100534087191,-2.27556522734724,-1.87246627242753,-1.70938094245047,-19.1553564505353,-2.08929319645283,16.8988511628671,0.135704517001042,1.08612715551078,0.990887390368714,1.21832166871049,1.46625375826819,9.62685083654629,2.55727860115785,-20.3139985673638,24.791192038607,-21.1057847962686,3.64095020810487,11.1828060556754,-1.49861200523503,9.33268280995242,-18.3821987166246,-17.8243220051433,-3.10608778037491,9.04561110720027,0.41664164861971,23.7754990844405,8.01470365283998,52.2182213302216,715.4940398288,0.128034878499625,-0.128510954711029,-24.2301970998228,-90.9579298779466,-71.1456879415096,-0.382556565287643,-2.15966294242186,-1.52430817984847,-1.38612537419664,-80.2155234191431,-108.510055822563,-109.055287560856,0.267734919442803,6.30681471802483,8.92985578969921,8.70177980401105,0.0646964498367159,10.9262537582682,0.277054696803565,-48.1798533389288,18.4188069235251,120.969492651444,-11.2994329878674,6.11843266952003,-3.06979613974275,-5.07253925229553,67.4896752521488,-68.6226268597013,-10.3063282612695,16.7192799845678,-0.0298268947787753,-81.1355013157674,-51.8958913589839,-358.601742967254,460.065166896584,0.298771888707079,-0.126592459683204
56.44,-17.4258077880305,-8.70585039755883,4.70281934411002,0.0397863614144551,-2.21168305123204,-1.97191750461149,-1.82098780624371,-19.2498367059273,-6.4847946871631,13.4641182553637,0.140388856774861,1.10590709739787,1.03691428244379,1.26779888821974,1.90298761463553,10.2210437742271,2.53184740474615,-20.6494922012239,21.563818301299,-18.6224512306577,3.06357473763825,11.7056944313132,-1.36579937600452,10.0571669018614,-31.8229596714044,-18.1863045485371,-3.05125498771667,8.9741382598877,0.383203148841858,23.3099994659424,7.66499996185303,50.1199989318848,728,0.124368935823441,-0.127100914716721,-25.1079455726323,-90.6987039876748,-76.0288066888087,-0.389989002413204,-2.18213343338769,-1.62026917392301,-1.5224152936134,-81.3144979754438,-109.741904916661,-109.834635075623,0.239267515362238,5.96620062026147,8.61457600187374,8.31457381588303,-0.165220762030805,11.0580240143708,0.131084428476889,-45.3167751597048,16.3551801778142,123.637779155097,-12.012794743311,5.41261889004446,-3.5304093788409,-9.44557197833176,65.4895352949622,-68.0230350737741,-9.88619890516869,16.8914093453255,0.180668981671524,-53.6841457893867,-40.5055219652613,-316.566037713529,395.453058523211,0.300654062262169,-0.124398758252605
56.445,-17.5558149642778,-10.3062407745523,0.999086923987049,0.0471407886701468,-2.12232231145483,-2.06560544103702,-1.92962703474922,-19.3906779710992,-10.9303232232654,9.53055628215804,0.144421585935147,1.12201944428602,1.07831127760856,1.30759598234533,2.45318639500805,10.8778125886357,2.50706367590054,-19.9855330457305,17.411778789757,-17.0956511449838,2.34484660111561,12.2732418218777,-1.07335137562634,10.1183612940727,-42.0485426099258,-20.0925098659215,-3.05125498771667,8.9741382598877,0.383203148841858,23.3099994659424,7.66499996185303,50.1199989318848,728,0.124368935823441,-0.127100914716721,-25.9963276285141,-89.6317776211766,-80.2280710817563,-0.389223244244853,-2.19031305663805,-1.71395711034855,-1.65519806353297,-82.4358098705768,-111.164473405326,-110.216666587085,0.211396164167696,5.62894120828956,8.2834001587336,7.91550999230584,-0.363490592795675,11.1918561501371,-0.0176179445967672,-42.2264583530302,14.0083752365078,126.244660263301,-12.7265661340645,4.73354471967479,-3.9542111421008,-14.2003762531559,62.4665323197201,-68.4758735761383,-9.15313362297021,16.9003133506916,0.404446813886227,-18.1715404996126,-26.1842445259995,-259.402368643812,319.614848255649,0.303185790162958,-0.120493934612971
56.45,-17.6858283399041,-11.906707465998,-2.70482210823931,0.0544955666209534,-2.03295731051984,-2.15929784496227,-2.04067438973289,-19.5315259522725,-15.3760637439434,5.59680673745011,0.148454507395713,1.13813255948979,1.11971024678483,1.34242535516122,3.00341141155339,11.5346127209984,2.48227876524534,-19.3215422294123,13.2595412886335,-15.5687782540033,1.62608419211496,12.8408162758816,-0.780889429895035,10.1795586043325,-52.2746131543286,-21.9988060805124,-3.05125498771667,8.9741382598877,0.383203148841858,23.3099994659424,7.66499996185303,50.1199989318848,728,0.124368935823441,-0.127100914716721,-26.8847520468038,-88.5648003784032,-84.427535716199,-0.388457449561401,-2.19849306993292,-1.80764951427379,-1.7860125799162,-83.5571752353534,-112.587109729024,-110.598716315681,0.183523483930609,5.29166571413692,7.95220852350709,7.52151713472305,-0.56176987803724,11.3256946676751,-0.166327408527944,-39.1359941849132,11.6614583880468,128.851665680366,-13.4403715609341,4.05443816772244,-4.37803311430464,-18.9554072603378,59.4433851928888,-68.9287336720604,-8.42003338462837,16.9092177806442,0.628235316924078,17.3427582051293,-11.862284178081,-202.235973730355,243.773021650752,0.305717638788934,-0.11658892477222
56.455,-17.8158417155304,-13.5071741574437,-6.40873114046566,0.0618503445717601,-1.94359230958485,-2.25299024888752,-2.15368139366644,-19.6723739334459,-19.8218042646215,1.66305719274217,0.152487428856279,1.15424567469356,1.1611092159611,1.37248017237146,3.55363642809873,12.1914128533611,2.45749385459014,-18.6575514130941,9.10730378751005,-14.0419053630227,0.907321783114301,13.4083907298856,-0.488427484163729,10.2407559145922,-62.5006836987314,-23.9051022951034,-3.05125498771667,8.9741382598877,0.383203148841858,23.3099994659424,7.66499996185303,50.1199989318848,728,0.124368935823441,-0.127100914716721,-27.7731764650935,-87.4978231356299,-88.6270003506418,-0.38769165487795,-2.20667308322778,-1.90134191819904,-1.91419605250977,-84.6785406001299,-114.009746052721,-110.980766044277,0.155650803693523,4.95439021998429,7.62101688828058,7.13353729461665,-0.760049163278805,11.4595331852132,-0.315036872459121,-36.0455300167963,9.31454153958568,131.458671097431,-14.1541769878037,3.37533161577008,-4.80185508650847,-23.7104382675197,56.4202380660576,-69.3815937679825,-7.68693314628654,16.9181222105968,0.852023819961929,52.8570569098712,2.45967616983744,-145.069578816898,167.931195045854,0.30824948741491,-0.112683914931468
56.46,-17.9391244269352,-13.7285565253065,-8.70665389530394,0.0746314724623137,-1.78917479059238,-2.26523530908993,-2.18671904774924,-19.8789060763618,-21.9535810049175,-2.53003293851503,0.164695698399315,1.16524664132418,1.16719308069774,1.36274659938111,3.80598564425773,12.4576908263305,2.47561274509803,-16.6047221357679,3.14037158073106,-13.2504884669917,0.481439075630252,13.605612745098,-0.420124299719868,9.40098385033024,-61.7122842964346,-28.3956690700972,-3.04512069221972,9.13363011728148,0.489238949654316,23.5789335127972,7.03108449276088,48.6664757034024,767.699754901961,0.109620568545989,-0.121527498053173,-28.6296036393035,-87.9627988719139,-90.4957268432051,-0.372271403107879,-2.15643061468061,-1.97470372915268,-2.01885507758548,-85.6933694279294,-108.66428243012,-110.37860029927,0.151381128845619,4.65970143760465,7.17187041152759,6.63439961504243,-0.58216736694677,11.790887605042,-0.217300420168075,-31.2285441954559,3.5456305979182,132.788982259571,-14.3187745098039,2.7931267507003,-4.82389005602242,-25.2678549814988,46.871470501781,-70.8827246948162,1.272599537416,19.068258656841,0.688336670904809,41.0237696030561,13.3468629093397,-99.0859219283283,129.083508403361,0.266909260322348,-0.119747168259273
56.465,-18.0594983304716,-13.35222513285,-10.3953448618877,0.0897653868255826,-1.60655136356701,-2.24217993446759,-2.18542983047265,-20.1139214593155,-23.0825749321812,-6.83581423514751,0.180448198322425,1.17403262961333,1.1579709308488,1.3336301621784,3.92924544817929,12.554725140056,2.51232843137253,-13.9497959677698,-3.61350157346889,-12.7777821004945,0.182468487394962,13.6423284313726,-0.448972338935558,8.17065221150187,-56.1498902029948,-34.0066288861223,-3.03632722365088,9.36226055017706,0.641240509096481,23.9644485388149,6.12237121744984,46.5828605873578,824.609068627451,0.0884788899032884,-0.113538045266575,-29.4722209640578,-89.0917922989661,-91.3543821237955,-0.350498497022154,-2.08086297868102,-2.03925877809525,-2.11105831383768,-86.6620920799159,-100.384993296711,-109.349810324334,0.157341282261419,4.38345063544172,6.67156871969626,6.09152813801697,-0.241235994397747,12.2078728991597,-0.012741596638656,-25.6629123871771,-3.70685064149114,133.566033820936,-14.2453431372549,2.25288165266108,-4.67178221288517,-25.4394538679669,34.4936866721998,-72.8383044575855,13.7982817541818,22.1466044230955,0.356696904138649,8.6680710736443,22.7460788857369,-57.9459942372239,106.267331932773,0.206550976335846,-0.131564818033088
56.47,-18.1798664942643,-12.975911684862,-12.0839553072544,0.104898579564097,-1.42393664450592,-2.21912565918601,-2.18460293514819,-20.348925636119,-24.2115150260515,-11.1413902208275,0.196199947124997,1.18281819896351,1.14874922073617,1.30091600872215,4.05249937474991,12.6517548269308,2.54904236694676,-11.2949963936192,-10.3670526852716,-12.3050982738774,-0.116487845138048,13.6790423669468,-0.477819002601027,6.94037923811499,-50.5877613391036,-39.6173211568578,-3.0275341743777,9.59088008137358,0.793234820705371,24.3499451824645,5.21370127197264,44.4993448235503,881.515668767507,0.0673382193513107,-0.105548973438055,-30.3147981106066,-90.2207318926487,-92.2129964614486,-0.328726629125733,-2.00529894594463,-2.10381074888366,-2.19927093336802,-87.630768540664,-92.1060989415374,-108.321069404804,0.163301151481461,4.10721300564203,6.17129088356262,5.55655249352234,0.0996791216486743,12.6248383103241,0.191807472989203,-20.0975459628296,-10.9589860635612,134.343048330443,-14.1719152661064,1.71266231492598,-4.51968162264908,-25.6110445721499,22.1164930478364,-74.7937909731794,26.3233667135465,25.2248034057449,0.0250729508269407,-23.6860846511456,32.1448466828486,-16.8080282058416,83.452243397359,0.146195570390732,-0.143381904310347
56.475,-18.3002403978006,-12.5995802924055,-13.7726462738382,0.120032493927366,-1.24131321748055,-2.19607028456367,-2.1837303050693,-20.5839410190727,-25.3405089533153,-15.4471715174599,0.211952447048107,1.19160418725266,1.13952707088723,1.26514992575127,4.17575917867147,12.7487891406563,2.58575805322126,-8.64007022562109,-17.1209258394716,-11.8323919073802,-0.415458433373338,13.7157580532213,-0.506667041816717,5.71004759928662,-45.0253672456637,-45.228280972883,-3.01874070580886,9.81951051426917,0.945236380147536,24.7354602084822,4.3049879966616,42.4157297075057,938.424982492997,0.04619654070861,-0.097559520651457,-31.1574154353609,-91.3497253197009,-93.071651742039,-0.306953723040007,-1.92973130994504,-2.16836579782622,-2.28328320829774,-88.5994911926505,-83.8268098081289,-107.292279429868,0.16926130489726,3.83096220347909,5.67098919173129,5.02969075247291,0.440610494197697,13.0418236044418,0.396366296518622,-14.5319141545507,-18.2114673029706,135.120099891809,-14.0984838935574,1.17241721688677,-4.36757377951183,-25.782643458618,9.73870921825522,-76.7493707359487,38.8490489303124,28.3031491719994,-0.306566815939219,-56.0417831805574,41.5440626592458,24.3318994852627,60.6360669267707,0.08583728640423,-0.155199554084162
56.48,-18.4167281883809,-12.5561008453369,-14.1127893101526,0.117218791437727,-1.01687708299437,-2.12464082352665,-2.13395308781249,-20.8162543046183,-24.8295421016828,-17.9709685488305,0.225970720957771,1.21340029723322,1.14239106171906,1.23901803848395,4.0022694685094,12.6504905232971,2.60340932367788,-6.22536557820656,-20.6686320265297,-11.6674129738444,-0.175108864603036,13.5814369886617,-0.476476690805245,6.55290710967293,-40.6082397548626,-47.27817621983,-2.86892252603665,9.87322372081543,0.943528529702622,20.775082557894,2.88588611653849,35.3150130135134,990.368211776897,0.0200921726361754,-0.0900822824165183,-32.0021382265097,-90.8387588365474,-92.7756596844766,-0.286249888188399,-1.86819317557422,-2.1974362608263,-2.32751722793605,-89.1852365617788,-71.4853233633503,-102.348337277324,0.172008678608253,3.60091950040787,5.28311119615301,4.62346431632983,1.17504994397119,13.0564766908052,0.444583760076157,-10.6414045331504,-21.4967222432711,135.265058945177,-12.5903906353548,1.35807248804118,-3.41581711710628,-26.4812126799925,-6.04430077622193,-66.4520245869315,40.2962036132812,28.658805847168,-0.344882816076279,-59.7799987792969,42.6300010681152,29.0850009918213,58,0.0788637921214104,-0.15656490623951
56.485,-18.5327146007048,-12.5561008453369,-14.2767844333762,0.112060367720082,-0.786966685713718,-2.04688820954355,-2.07686861943883,-21.048227129266,-24.104313015086,-20.2621138615415,0.239763201716871,1.23689714696837,1.14683406823238,1.21265028219294,3.7900048196836,12.5266694781487,2.61857108430829,-3.84191184947472,-23.7976949714486,-11.5426248205077,0.135707228320454,13.4247654621474,-0.438572289229214,7.66664137820339,-36.3404849107459,-48.8629857672066,-2.70067364249985,9.90408968096112,0.921740907422102,16.2467699098361,1.40003360608652,27.5585092891102,1041.6655019098,-0.00666189895449928,-0.0826715537039234,-32.8471816057469,-90.1135302319301,-92.3288154330171,-0.265684594191084,-1.80848445377144,-2.22187279664956,-2.36285921594783,-89.7209836447847,-58.612510329619,-96.8926764667848,0.174336502079272,3.37690074500734,4.90989864903416,4.23999386840262,1.96093453664767,13.0185722892292,0.472380321231906,-6.96951312121669,-24.2638995435135,135.327453021845,-10.8948004048534,1.63856505970385,-2.3595477931874,-27.2486598230135,-22.2730001176657,-54.5534741662728,40.2962036132812,28.658805847168,-0.344882816076279,-59.7799987792969,42.6300010681152,29.0850009918213,58,0.0788637921214104,-0.15656490623951
56.49,-18.6486954824921,-12.5561008453369,-14.4407717368821,0.106902189969617,-0.557067251164192,-1.96913930300915,-2.01839318314048,-21.2801888928406,-23.3791185093155,-22.553149926431,0.25355502481429,1.26039287631206,1.15127686289149,1.18512686430948,3.57775029219333,12.4028543371128,2.63373212198617,-1.45857177007192,-26.9266087144342,-11.4178426173976,0.446508500716911,13.2681014061427,-0.400669695034528,8.78032254096097,-32.0729335643806,-50.4477197467048,-2.53243278151138,9.93495416933682,0.899954324032593,11.7186731836097,-0.0857480550182042,19.8023754151611,1092.96034605328,-0.0334146948408258,-0.0752611783543227,-33.692184691098,-89.3883362081159,-91.8819924882642,-0.245120280800958,-1.74877857903723,-2.24630816727465,-2.39410077059881,-90.2567051819637,-45.7403111053973,-91.4372757964712,0.176664214553559,3.152892671409,4.53670389766904,3.86431732911831,2.74678165628425,12.9806696950345,0.500175556974669,-3.29779679470216,-27.0309448974798,135.3898441234,-9.19929102454423,1.91904425674457,-1.303328834962,-28.0160703721406,-38.5009256321335,-42.6554910997254,40.2962036132812,28.658805847168,-0.344882816076279,-59.7799987792969,42.6300010681152,29.0850009918213,58,0.0788637921214104,-0.15656490623951
56.495,-18.7646818948159,-12.5561008453369,-14.6047668601058,0.101743766251971,-0.327156853883536,-1.89138668902606,-1.95816081028398,-21.5121617174883,-22.6538894227187,-24.844295239142,0.26734750557339,1.2838897260472,1.15571986940481,1.15711552704088,3.36548564336754,12.2790332919644,2.64889388261658,0.924881958659929,-30.0556716593531,-11.2930544640609,0.757324593640401,13.1114298796284,-0.362765293458498,9.89405680949142,-27.8051787202639,-52.0325292940815,-2.36418389797458,9.96582012948251,0.878166701752073,7.19036053555181,-1.57160056547018,12.0458716907579,1144.25763618618,-0.0601687664315005,-0.0678504496417278,-34.5372280703352,-88.6631076034986,-91.4351482368047,-0.224554986803643,-1.68906985723446,-2.27074470309791,-2.42152118371682,-90.7924522649697,-32.867498071666,-85.981614985932,0.178992038024578,2.92887391600848,4.16349135055019,3.4958977358048,3.53266624896073,12.9427652934585,0.527972118130418,0.374094617231587,-29.7981221977222,135.452238200068,-7.50370079404287,2.19953682840724,-0.247059511043116,-28.7835175151615,-54.7296249735773,-30.7569406790667,40.2962036132812,28.658805847168,-0.344882816076279,-59.7799987792969,42.6300010681152,29.0850009918213,58,0.0788637921214104,-0.15656490623951
56.5,-18.8388149419526,-10.7596230380879,-13.9653523064539,0.0902612801806057,-0.0893342586600724,-1.72282767890924,-1.80506937109849,-21.7315715893214,-20.9841510067444,-24.9151656469513,0.272623035800612,1.33666722440707,1.1494404949848,1.11855539124894,3.11463983514717,12.0196168459012,2.52981608603257,1.91482904545778,-29.7739108589346,-10.9995648126285,0.391906111146871,12.7770057312126,-0.0620440466224625,10.7326404043728,-29.4103401918672,-49.8112387098928,-2.24936534857764,9.66703625343151,0.871779819344421,6.78989279783427,-1.2243027094333,7.79936799932735,1135.48084229506,-0.0681966521484484,-0.0663672231415548,-35.3595704190384,-85.0172431213273,-90.2976602306957,-0.205138553182418,-1.78382351345108,-2.23510755856074,-2.38543303028842,-90.8972087064484,-21.1495031561684,-75.2025730597558,0.165537259093199,2.68582841026977,3.9425607876781,3.2863580235416,4.52643299632943,12.524363964196,0.560045978491828,1.43021857154555,-29.7094318952434,134.714914111312,-7.0920593727864,2.06225861291778,0.230613046558042,-35.8780548380608,-51.9383612818391,-4.05614791600584,33.3957717694689,22.5163594929186,1.55727859582649,-68.6135161502584,35.1197581507923,55.7257684924182,54.9954021508146,0.0591176271058609,-0.117363691194081
56.505,-18.9096579569052,-8.82167063987649,-13.2626767981097,0.0782805019489985,0.149123256858012,-1.54711356642656,-1.64253489985822,-21.9500040470329,-19.2399941445809,-24.8113048303333,0.277228556317246,1.39175181447489,1.14231694988416,1.07996856470102,2.86074480005154,11.7495157447356,2.40016755747311,2.79515856036775,-29.2237049121159,-10.6927833150084,-0.0267505956597371,12.428575310709,0.259376263764555,11.5496128708613,-31.4777807193073,-47.2902950990143,-2.1387458420635,9.3422936801295,0.866604641330734,6.71426443283845,-0.73271868711979,3.82888167051993,1121.97578723678,-0.0747512064266285,-0.0653504127289547,-36.1801685038472,-81.1413380673161,-89.1057602893662,-0.185811535740495,-1.89073817949363,-2.1947408029904,-2.3416681401207,-90.9680517214011,-9.52178928207711,-64.0040284254447,0.150839702709291,2.44127300413895,3.73360340032861,3.09455366137222,5.53661111468863,12.0759961362612,0.592458110631696,2.28053685299269,-29.3959812346315,133.914614552303,-6.78144310644601,1.89209491918346,0.662774808422947,-43.4708969041594,-47.6500894781488,23.8109496449892,25.951923375434,15.8901887742663,3.60923729807559,-78.1426826696662,27.0180753946535,84.4645255533985,51.7541889368279,0.037816430011776,-0.0750753376149066
56.51,-18.9804975938769,-6.88381064832153,-12.5600347951778,0.0663002949923404,0.387569402095935,-1.37140783245392,-1.477552798605,-22.1684260893117,-17.4959204483941,-24.7074489660715,0.281833857230575,1.44683377796488,1.13519374445283,1.04281489956139,2.60686187133752,11.4794275226994,2.27052521089575,3.67544609885607,-28.6735252005607,-10.3860164455352,-0.44538733981582,12.0801615042823,0.580781247987621,12.3665463819584,-33.5451226657572,-44.7694716933432,-2.02813161017775,9.01756659140566,0.861429710083117,6.63863967400155,-0.241158104822605,-0.141415335078979,1108.47137613497,-0.0813054481664585,-0.0643336508005437,-37.0007274603857,-77.2656178266299,-87.913917180954,-0.166485439861486,-1.99764774756431,-2.1543759722129,-2.29553363492793,-91.0388913583728,2.10537015210025,-52.8060177671318,0.136142847143444,2.19672925905172,3.52465597661574,2.9075484673475,6.54674106510398,11.6276496876811,0.62486869727604,3.13081458903255,-29.0825455201697,133.114353153677,-6.4708416511044,1.72193933930065,1.09491596368086,-51.0633769236212,-43.3620221505125,51.6767184296366,18.5084299236265,9.26433400882404,5.6610981575485,-87.6713948134054,18.9167789480109,113.201912275019,48.5131302723936,0.0165162486146726,-0.0327890004554146
56.515,-19.0394916301327,-5.06984850591728,-11.7113186545021,0.0579450084786324,0.598712901497149,-1.18175872167278,-1.29607134698746,-22.3675991243671,-15.6098370407751,-24.2238376696536,0.286423135534385,1.51340397421633,1.1302153422964,1.00981649441199,2.37342631946,11.2352859981315,2.14892364172271,4.23481141312108,-27.9782933276931,-10.1894743408487,-0.862364040685799,11.7511101754017,0.844877429372197,13.0244895956744,-35.5866649706933,-42.5178784672625,-1.94236087799072,8.76577186584473,0.857417047023773,6.57999992370605,0.140000000596046,-3.22000002861023,1098,-0.0863876342773438,-0.063545249402523,-37.7765466132042,-72.6147272852952,-86.2344179765386,-0.148147465451776,-2.15973194093082,-2.11599242598599,-2.24965744405903,-91.0220112747778,13.433910561795,-41.1916492264821,0.12144795189324,1.97163167476387,3.29833191287269,2.70687200656562,7.35479571562034,11.2012736029054,0.653099464452522,3.55211519882933,-28.35430605854,131.828016278095,-6.30376725397057,1.34018316512492,1.43000000000001,-57.5865814716208,-39.3490324585587,77.3752436946423,12.8293568925757,3.97280853430434,6.89060588377859,-92.2980650024844,6.85294931630771,133.163501924572,45.0701606642367,0,0
56.52,-19.0575855799355,-3.68393070381914,-10.3585772882449,0.0621036652061309,0.715570799656559,-0.944021391581066,-1.06391277252498,-22.5002879141469,-13.2339778245825,-22.4295238746165,0.290956134294218,1.61961407340511,1.13264123316804,0.98676524656114,2.21061870863325,11.0807567403976,2.05510230667001,3.68632793659659,-26.7825312142763,-10.3734377429129,-1.2735222442991,11.4889623274603,0.911104254115281,13.1335049450457,-37.5387210703736,-41.1960673561351,-1.94236087799072,8.76577186584473,0.857417047023773,6.57999992370605,0.140000000596046,-3.22000002861023,1098,-0.0863876342773438,-0.063545249402523,-38.3977723108228,-65.2891618621295,-82.872028456287,-0.133224091166597,-2.51222846665609,-2.08445584465473,-2.20960973666905,-90.7023518458096,23.729300367049,-28.1425999055015,0.106762942354755,1.81370435546075,3.01207679001967,2.44880584054555,7.46517375685882,10.8508233219732,0.666896719607334,2.49262227212673,-26.1944394491206,128.864161467062,-6.63214192665502,0.228124399647339,1.43000000000001,-60.4175738256075,-36.2863824871579,95.5876204989898,13.2417547880701,3.28812239860167,5.28132910408898,-80.0033319024696,-18.8858300697233,122.829358655738,40.9309841177941,0,0
56.525,-19.0756803925465,-2.29794681437171,-9.00577141665334,0.066262520238752,0.832434270172945,-0.706272725008967,-0.829185073024531,-22.6329830311781,-10.858005315785,-20.6351245179087,0.295489349209635,1.72582923721165,1.13506723971803,0.966738240719179,2.04780333434215,10.9262201139518,1.96127649775649,3.13781830569336,-25.5867120810649,-10.5574099172531,-1.68470005394949,11.2268019790255,0.977334236877761,13.2425254928029,-39.4908702536504,-39.8741932145795,-1.94236087799072,8.76577186584473,0.857417047023773,6.57999992370605,0.140000000596046,-3.22000002861023,1098,-0.0863876342773438,-0.063545249402523,-39.0190276315257,-57.9632471201224,-79.5094786008335,-0.118300005261835,-2.86474180114229,-2.05291775950479,-2.16928333469501,-90.3826771739142,34.0251811069176,-15.0929283419325,0.0920772325630857,1.65576950540949,2.72580801712026,2.19205746141629,7.57555706146296,10.5003563298551,0.680694632682853,1.4330788236118,-24.0344698466817,125.900165324915,-6.9605322578523,-0.883987394239255,1.43000000000001,-63.2487011751764,-33.2235864736051,113.800865758671,13.6541723487161,2.60340361371031,3.67197558619997,-67.7080125293586,-44.6258368068289,112.494722604334,36.7916101951393,0,0
56.53,-19.0937743423494,-0.912029012273575,-7.65303005039615,0.0704211769662505,0.949292168332355,-0.46853539491725,-0.592001323782106,-22.7656718209579,-8.48214609959233,-18.8408107228716,0.300022347969467,1.83203933640043,1.13749313058967,0.950160954066219,1.8849957235154,10.771690856218,1.86745516270378,2.58933482916887,-24.3909499676482,-10.7413733193172,-2.09585825756279,10.9646541310841,1.04356106162085,13.3515408421742,-41.4429263533307,-38.5523821034521,-1.94236087799072,8.76577186584473,0.857417047023773,6.57999992370605,0.140000000596046,-3.22000002861023,1098,-0.0863876342773438,-0.063545249402523,-39.6402533291443,-50.6376816969567,-76.1470890805819,-0.103376630976656,-3.21723832686756,-2.02138117817353,-2.12943843090861,-90.063017744946,44.3205709121716,-2.04387902095188,0.0773922230246008,1.49784218610638,2.43955289426725,1.93543540117276,7.68593510270144,10.149906048923,0.694491887837665,0.373585896909202,-21.8746032372623,122.936310513882,-7.28890693053675,-1.99604615971683,1.43000000000001,-66.079693529163,-30.1609365022044,132.013242563019,14.0665702442104,1.91871747800764,2.06269880651036,-55.4132794293438,-70.3646161928599,102.1605793355,32.6524336486967,0,0
56.535,-19.0758926339559,1.05401797667098,-6.04506652712484,0.0755091822488587,0.981622943119334,-0.256782719846206,-0.378478192587299,-22.8222301971088,-5.64997552329771,-16.5725712001355,0.297406396015673,1.96418274005267,1.18173701630669,0.979218604948576,1.67560431832684,10.5508365781557,1.81687311984788,0.966523465214697,-21.9526512365374,-11.7223522080468,-2.88188594720597,10.4973699357981,1.14383870085558,13.6016885456041,-43.1317853685641,-36.6532565026273,-2.00720410823331,8.83611686009665,0.8680277497807,6.94755253040869,0.415664492299104,-4.84527187274821,1084.70903384599,-0.0869996198969616,-0.0628375159873316,-40.1285477258869,-46.5358811888805,-71.7731176943983,-0.0928123663935956,-3.62857447688963,-2.03042892151394,-2.13140860468254,-89.5444841304343,54.5526518540106,10.1350549133642,0.0638778369383702,1.42636739542964,2.20121848327226,1.72565786172276,7.66928817929653,9.81473765773743,0.640929039315513,-0.665211661456771,-18.6057509844597,115.971587044119,-7.21489249762337,-2.56470536144499,1.47430322051336,-66.5596097949343,-31.7500169214694,142.391455887859,13.9431458066731,3.06917832122341,0.540736767625627,-47.392289411747,-84.1489788908335,109.325761052338,31.1640860019013,0,0
56.54,-19.0341085185219,3.4053725454004,-4.26764967567901,0.0812142842059189,0.957787574442125,-0.0623122102123156,-0.18010178643112,-22.8281996541108,-2.514836174289,-13.9896143795601,0.290040571091838,2.11354689621003,1.25376312495703,1.04018204609545,1.43527718813892,10.2859305369259,1.79502519892171,-1.36999030050117,-18.6889494685533,-13.2328257535601,-3.91693120108349,9.89382112021253,1.26673325606531,13.9455910046272,-44.6456305068129,-34.3706882206798,-2.11512691628231,8.95319661203768,0.88568783291685,7.55929425383417,0.874470845910599,-7.55031757460674,1062.58801390824,-0.088018187391327,-0.0616595892055871,-40.528477904746,-44.5764189085534,-66.7273534978817,-0.0851453264685286,-4.07897364266273,-2.06644197583911,-2.16229593805855,-88.8938508216561,64.7418555033535,21.7348789309273,0.0511423376718507,1.4123411797093,1.99474363847462,1.54554401510613,7.56824154501297,9.48974983396059,0.542613395147725,-1.69017585305508,-14.6002988146611,106.349061376943,-6.8735187331519,-2.77226061024365,1.54803995363919,-65.4773285268322,-36.4297876383722,147.563479144148,13.4637069923338,5.43890107290441,-0.923088686175199,-42.2116008287551,-89.9892018368139,128.117703372218,31.4371850134785,0,0
56.545,-18.9923224106166,5.75683923823305,-2.49014806829158,0.0869196582101851,0.933951069177787,0.132167572728028,0.0201942863867823,-22.8341693957658,0.620452673520377,-11.4065343909518,0.282674394929391,2.26291817478197,1.32579266816503,1.10551768176054,1.19493859797627,10.0210118636784,1.77317623617966,-3.70661548263807,-15.4250920712827,-14.7433713258506,-4.95202581098856,9.29024352446313,1.38963367148939,14.2895098626041,-46.159547832613,-32.0880110946961,-2.22305487061943,9.07028194691477,0.903348758172268,8.17106514810145,1.33329907765635,-10.2554922662942,1040.46593913191,-0.0890368034559798,-0.0604816062545239,-40.9284271542349,-42.616863191467,-61.681348694613,-0.0774779209414434,-4.5293942856742,-2.10245674744311,-2.19580473593564,-88.2431864874949,74.931545023835,33.3352560849176,0.0384062311143452,1.3983142951503,1.78825894794502,1.36221239006547,7.46719009233095,9.16474651317245,0.444293062808454,-2.71518891996652,-10.5946556452836,96.72607686061,-6.53212869030722,-2.97982575629321,1.62178020289364,-64.3949956502579,-41.1097815096652,152.735749027839,12.9842453160035,7.80873682457358,-2.38698394234376,-37.0306652051556,-95.829703273231,146.910541783955,31.7102970477542,0,0
56.55,-18.9505382951826,8.10819380696247,-0.712731216845752,0.0926247601672453,0.910115700500578,0.326638082361918,0.222139575969108,-22.8401388527678,3.75559202252908,-8.82357757037649,0.275308570005555,2.41228233093932,1.39781877681537,1.17540213619996,0.954611467788353,9.75610582244854,1.75132831525349,-6.04312924835393,-12.1613903032987,-16.2538448713639,-5.98707106486607,8.68669470887755,1.51252822669912,14.6334123216272,-47.6733929708618,-29.8054428127486,-2.33097767866843,9.18736169885581,0.921008841308419,8.78280687152693,1.79210543126785,-12.9605379681527,1018.34491919416,-0.0900553709503452,-0.0593036794727794,-41.328357333094,-40.6574009111399,-56.6355844980963,-0.0698108810163765,-4.9797934514473,-2.13846980176828,-2.2325231494854,-87.5925531787167,85.1207486731779,44.9350801024806,0.0256707318478257,1.38428807942996,1.58178410314738,1.17481443492977,7.36614345804739,8.83975868939561,0.345977418640666,-3.74015311156483,-6.58920347548492,87.1035511934339,-6.19075492583575,-3.18738100509186,1.69551693601947,-63.3127143821558,-45.7895522265679,157.907772284128,12.5048065016643,10.1784595762546,-3.85080939614459,-31.8499766221637,-101.669926219211,165.702484103835,31.9833960593314,0,0
56.555,-18.752275655838,13.1132663687388,1.75653888404674,0.0952333606758432,0.901566982939983,0.461864903493787,0.366230961410855,-22.7505753763485,6.55090707410883,-6.02848201884603,0.267986364695871,2.54198767450962,1.49368652700572,1.27380243690947,0.947260585358666,9.76420195119554,1.70643648784803,-8.83544823585697,-10.29272954095,-19.1035062905532,-6.12502604870618,8.71050487798882,1.37962868306587,14.5885872930492,-40.9440673358751,-28.2683317087023,-2.39260514607208,9.17477218814104,0.96149816713848,9.13341498127105,1.86235345550389,-12.9809983257604,1002.47882928268,-0.0900284731301746,-0.0578150146407188,-41.7864363950759,-43.1429728351749,-53.4109527499434,-0.0644183531633331,-5.2048496579386,-2.43214655127842,-2.53060995093241,-86.632569421089,92.5124636807973,54.3760871445256,0.0144197199508374,1.38999645237941,1.45433802245287,1.06167710581477,6.67266458604675,8.50295443933845,0.306117268326226,-4.27455657887592,-3.08289744376212,79.1832357796242,-5.64481765905685,-2.91199678077309,1.93717912171626,-62.3146902749373,-49.817906771359,168.936814442864,11.1847958713107,8.91980216336925,-4.62900109942944,-24.563627847083,-89.9119242139275,173.960373395021,30.063843904357,0,0
56.56,-18.5438941224818,18.2898617699613,4.27046774632135,0.0976413901356876,0.894008214553944,0.593249975645548,0.507595013642668,-22.6548325362374,9.32408315557772,-3.21979648983594,0.260667354655179,2.67041390494634,1.59109269549395,1.37847610701146,0.95499078465585,9.78996928218612,1.66005529206497,-11.6571300369251,-8.51446558740198,-22.0397095626906,-6.204904774777,8.77492320546529,1.23017816332046,14.5186019496179,-33.6814973788982,-26.7795525848017,-2.45123275630001,9.15378973838096,1.00346318952684,9.46710193725808,1.9074462724506,-12.8276826375602,987.018430688325,-0.0899339030056828,-0.0563063111048292,-42.2482562169156,-45.9161486094733,-50.3043678365071,-0.0591733297738975,-5.41530783786288,-2.74248713460139,-2.84944051067277,-85.6526099393141,99.7227201042056,63.6768732061763,0.00326537111969921,1.39698196865938,1.33201399690951,0.948405278863784,5.94087238591404,8.16540240336175,0.270043004939406,-4.77717859079108,0.390920512006041,71.3735076830941,-5.08566657656109,-2.6053655419851,2.18969896542403,-61.3221708590036,-53.8038901949648,180.344425422154,9.81044148024292,7.42634117367479,-5.36277176277872,-17.1413481994767,-77.0153742667817,181.535967133541,28.00245742511,0,0
56.565,-18.3355026524735,23.4667040166085,6.78451648503782,0.100049534422172,0.886449085728804,0.724641312881098,0.649807537084293,-22.5590851306388,12.0973914756657,-0.41097702894235,0.253347995608239,2.79884625937479,1.68850350878541,1.48788921553895,0.962721352566801,9.81573784188925,1.61367188459931,-14.4789463896026,-6.73611683751839,-24.9760528473821,-6.28478730985675,8.83934460472315,1.08072051704224,14.4486132689427,-26.4185811070124,-25.2907024686201,-2.50986316217957,9.1328062880749,1.04543021301303,9.80080480507363,1.95254123964369,-12.674359638517,971.557294866439,-0.0898393283716242,-0.0547975356265651,-42.7100980605865,-48.6894566223761,-47.1976347858855,-0.0539280562760556,-5.62577605346405,-3.05284251648347,-3.17260579251756,-84.6726037282711,106.933320347957,72.9781027748634,-0.0078895096054274,1.40396781804297,1.20968413835744,0.82960686909474,5.20904529034477,7.82783427125058,0.23396702135501,-5.27982457018571,3.86490411642977,63.5634071804748,-4.52648883100288,-2.2987196815177,2.44223085051483,-60.3296041148825,-57.7900636897843,191.752580372212,8.43602155322591,5.93280896844508,-6.09657741590737,-9.71871462122096,-64.1182093489646,189.111922113477,25.9409726488585,0,0
56.57,-18.1295109592286,28.1415929955794,9.30440479046231,0.102389198664085,0.88467791494204,0.852964736111886,0.789534387659018,-22.4584778170809,14.8636025131795,2.40518919985893,0.245986667546751,2.92384487283555,1.78808916133383,1.60415099175641,1.00734897257256,9.84432136872738,1.5701543345974,-17.2291653737401,-4.81669840461032,-27.9272760134094,-6.3211076814534,8.90972307963663,0.914689126025221,14.3634718588418,-18.9571924277513,-23.8504005078071,-2.56266347425662,9.10776374264152,1.08132147321689,10.1355262713958,2.0144461657343,-12.5040715306154,956.073992415557,-0.0897995400919213,-0.0532712214800908,-43.1719273952488,-51.3449335893065,-44.2876261276814,-0.0483072651125658,-5.81382092414046,-3.37178358037969,-3.50876786084243,-83.6868072542617,114.109964945506,82.199925257565,-0.0185565614328742,1.40606878842793,1.09464122723604,0.712547505378016,4.47632330893375,7.49796190140223,0.201080342181839,-5.80472182209546,7.45457010057062,55.9225474408765,-3.99367228150631,-2.00212893553222,2.67490695828557,-59.4670845405184,-61.1979576660471,203.194430018106,7.10069750015336,4.5180114922211,-6.79432383398602,-2.13851265537643,-51.1312512546759,196.308735381275,23.8147984831114,0,0
56.575,-17.9620335519254,24.7292212932784,11.9204791959048,0.103626930419593,0.976202457016487,0.931940643820396,0.880256183865877,-22.2794506260722,17.5176692807556,5.34207824117777,0.237942823983774,2.99359642463559,1.92281274173571,1.76010253435913,1.64676338301439,9.91830320134049,1.57279654290501,-18.8275383005665,-0.621784968082396,-31.1207598814972,-5.65527118793545,9.07618220301612,0.481366963577037,14.0340113167817,-8.29049963035912,-23.1914794236869,-2.52153053579323,9.01727145440848,1.0193056881044,10.4869399561496,2.34736444147105,-12.0601807062836,940.220742569892,-0.0906428306406479,-0.0514609523486162,-43.6339320984412,-52.1032380200702,-44.546278566635,-0.0366288473229163,-5.64057328541821,-3.82937918967572,-3.98792850083475,-82.606871736163,120.745130730533,90.1492983546436,-0.021368917454805,1.32943121208914,1.09696404758779,0.707519840479551,3.72857835787987,7.29186965340859,0.219575800335113,-6.68871991019739,12.9118719507349,51.0034732089293,-3.88534174089425,-1.86737631184407,2.58771408413441,-60.7001150840701,-55.2872398223546,215.188750940434,6.39447695961473,4.37119863760599,-6.9113944080816,7.98775101111715,-36.6862988577748,197.399968702459,20.6441485139783,0,0
56.58,-17.7945561446222,21.3168495909774,14.5365536013472,0.1048646621751,1.06772699909093,1.01091655152891,0.971107272352103,-22.1004234350635,20.1717360483316,8.27896728249661,0.229898980420796,3.06334797643564,2.05753632213758,1.92042233712956,2.28617779345622,9.9922850339536,1.57543875121262,-20.4259112273928,3.57312846844553,-34.3142437495849,-4.98943469441749,9.2426413263956,0.0480448011288525,13.7045507747216,2.37619316703304,-22.5325583395666,-2.48039759732983,8.92677916617544,0.957289902991914,10.8383536409034,2.68028271720779,-11.6162898819517,924.367492724226,-0.0914861211893745,-0.0496506832171416,-44.0959368016335,-52.8615424508339,-44.8049310055887,-0.0249504295332668,-5.46732564669596,-4.28697479897174,-4.47120304049806,-81.5269362180642,127.380296515561,98.0986714517223,-0.0241812734767357,1.25279363575034,1.09928686793955,0.697607482929277,2.98083340682599,7.08577740541495,0.238071258488388,-7.57271799829932,18.3691738008991,46.0843989769821,-3.7770112002822,-1.73262368815592,2.50052120998326,-61.9331456276219,-49.3765219786621,227.183071862761,5.6882564190761,4.22438578299087,-7.02846498217719,18.1140146776107,-22.2413464608736,198.491202023643,17.4734985448452,0,0
56.585,-17.6270867230813,17.9046405995147,17.1525032654963,0.106102334912309,1.15924717703501,1.08988869345887,1.0619019458382,-21.9214047805411,22.8256762630388,11.2157162852382,0.22185552040939,3.13309620229863,2.19225347856557,2.08485794996649,2.92556171494084,10.0662633389188,1.5780808335328,-22.0242079396032,7.76784188049146,-37.5075753439807,-4.323629949731,9.40909251256722,-0.385256699381393,13.3751059422047,13.0423773485184,-21.8736686745329,-2.43926662019289,8.8362911928522,0.895277074954816,11.1897505693305,3.01318511852742,-11.1724202234994,908.51499880312,-0.0923293715277946,-0.0478405004040501,-44.5579194752291,-53.6198107236523,-45.0635711113153,-0.0132725686012269,-5.29408626887581,-4.74454858890819,-4.95817672648069,-80.4470521941252,134.01514591847,106.047665501829,-0.0269934953981504,1.17615971369231,1.10160957753314,0.683479823085328,2.2331241102138,6.87969498444057,0.256565834729677,-8.45667393505241,23.8262154325887,41.1655592994042,-3.66868582515463,-1.59787748982651,2.41333249341718,-63.1661173770413,-43.4660859735088,239.176820864389,4.98206955298629,4.07757992879796,-7.14552997404055,28.2397954972768,-7.79708283721282,199.582383311959,14.3029997606239,0,0
56.59,-17.5054396057129,15.4260663986206,19.1731748159394,0.106995855022213,1.23991951897743,1.14725279808044,1.1308878321292,-21.7913684844971,24.7534561157227,13.9131247372634,0.211116691433578,3.181027779587,2.29010987281799,2.21624554967923,3.36224574031377,10.0122102007535,1.56128201090928,-22.538143586988,9.47610805992409,-40.2662244354609,-3.62054771410896,9.49579126131696,-0.780680987459922,13.2712668431426,22.8444008461403,-21.0906653115092,-2.4276308873477,8.81678335629251,0.852550738312186,11.3749685952468,3.30018145510754,-10.8680729054254,893.837305291571,-0.0931358203508921,-0.0457585107237863,-44.8934963226318,-54.1706047058105,-45.6418220234331,-0.000399516573178669,-5.06585417913591,-5.07692289352417,-5.32312167072545,-79.662641658783,138.834594726562,113.195579742667,-0.0323788404930383,1.08395143453755,1.10329675674438,0.665366320653127,1.58543744025192,6.75065433278976,0.238373052915687,-8.41028767244068,27.7877329090135,36.7041056689598,-3.70359883034356,-1.49031828150481,2.31643670921669,-64.421904260068,-37.6811376935803,250.332028716565,4.29411527881243,3.87679960277615,-7.2070670540164,37.329964997764,6.00001600634788,198.32150734959,11.2254625203846,0,0
56.595,-17.5054396057129,15.4260663986206,19.6134504476451,0.10697573678191,1.29178444531516,1.14725279808044,1.14219514638842,-21.7913684844971,24.7534561157227,15.9747827070588,0.193225428827195,3.17104317996048,2.29010987281799,2.25321563763878,3.26082831918123,9.61833323961086,1.49288421526176,-20.1737753423821,4.58431169177389,-41.8706171728721,-2.81864252375863,9.37078839340942,-1.07549907214755,13.7662700470626,30.3509788444089,-19.9783639944655,-2.49428626654796,8.98568115331979,0.861023887598909,11.1190664887408,3.46527953754694,-10.9341120934155,882.280436371816,-0.0938444465687041,-0.0429554281670707,-44.8934963226318,-54.1706047058105,-47.0683135981829,0.0156436823294937,-4.69169496819308,-5.07692289352417,-5.35816646194252,-79.662641658783,138.834594726562,118.215946214064,-0.0445930756308643,0.950420281471736,1.10329675674438,0.643242213327853,1.20335320249676,6.82612776246979,0.122804363718137,-5.8945066831063,27.7789975583561,33.4574670079553,-4.11870269358375,-1.4549401113423,2.19379238598663,-65.7380304257846,-32.2302788833558,259.259557088439,3.65467555890408,3.53279008193929,-7.12120594286794,43.669732443093,18.076944403122,190.817796882304,8.39520890738346,0,0
56.6,-17.5054396057129,15.4260663986206,20.0537470738495,0.106955617582271,1.34365184482662,1.14725279808044,1.15310719810202,-21.7913684844971,24.7534561157227,18.0365389868047,0.175333313077776,3.16105810421934,2.29010987281799,2.29318585870446,3.15940606196928,9.2244374964854,1.42448315807232,-17.8092943531171,-0.307717941188097,-43.4750864155876,-2.01669909464094,9.24577956475284,-1.37033121520552,14.2612968551599,37.8579147930851,-18.8660096374468,-2.5609448242032,9.15458700422132,0.869497440926895,10.8631521795689,3.63038549267159,-11.0001544304776,870.723016363943,-0.0945531065772852,-0.0401522119456487,-44.8934963226318,-54.1706047058105,-48.4948731950384,0.0316876462504725,-4.31751791550637,-5.07692289352417,-5.39485875404161,-79.662641658783,138.834594726562,123.236552081124,-0.0568078932032494,0.816882760986485,1.10329675674438,0.619943123102741,0.821250745093624,6.90160479109263,0.00723016363940786,-3.37860572901156,27.7702617911544,30.2106735313168,-4.53382635100939,-1.41956025417535,2.0711422144745,-67.0542193508435,-26.7791601494839,268.187511168594,3.01520534737778,3.18876415704344,-7.03534073744114,50.0098021995872,30.1544486869972,183.313728601348,5.56482033402688,0,0
56.605,-17.5054396057129,15.4260663986206,20.4940227055553,0.106935499341967,1.39551677116434,1.14725279808044,1.16357285397162,-21.7913684844971,24.7534561157227,20.0981969566001,0.157442050471393,3.15107350459282,2.29010987281799,2.33565290965082,3.05798864083674,8.83056053534273,1.3560853624248,-15.4449261085112,-5.19951430933829,-45.0794791529988,-1.21479390429061,9.1207766968453,-1.66514929989314,14.7563000590799,45.3644927913536,-17.7537083204031,-2.62760020340346,9.32348480124861,0.877970590213618,10.6072500730629,3.79548357511099,-11.0661936184677,859.166147444188,-0.0952617327950973,-0.0373491293889331,-44.8934963226318,-54.1706047058105,-49.9213647697882,0.0477308451531448,-3.94335870456354,-5.07692289352417,-5.43226339649415,-79.662641658783,138.834594726562,128.256918552521,-0.0690221283410754,0.683351607920673,1.10329675674438,0.596693600794307,0.439166507338463,6.97707822077266,-0.108338525558143,-0.862824739677171,27.761526440497,26.9640348703124,-4.94893021424958,-1.38418208401284,1.94849789124444,-68.3703455165601,-21.3283013392594,277.115039540468,2.37576562746943,2.84475463620658,-6.94947962629267,56.3495696449162,42.2313770837714,175.810018134062,2.7345667210257,0,0
56.61,-17.5013083349504,15.3614873486905,20.8763940479503,0.106846539832545,1.44321646216364,1.14511637445556,1.17142948028383,-21.7815321198164,24.6501296255341,22.1059129655482,0.139607710074281,3.1385684426792,2.29841818482845,2.38835885450577,2.96432032250293,8.44486961702774,1.29162012093863,-13.105823079438,-9.99659786810377,-46.5656248518082,-0.405167399819984,9.00828061813065,-1.9445995968713,15.2754598426205,52.6563979815081,-16.7572404074607,-2.69014817418015,9.484085588951,0.883311778268047,10.3335376851235,3.94586424294842,-11.1366156051834,847.5229643903,-0.0959882604881343,-0.0345228872781458,-44.9115952191808,-53.8670831719976,-51.2758447685019,0.0636404103581411,-3.56705741204746,-5.08760501111211,-5.48004534297253,-79.5933937146069,139.041247741274,133.222589238023,-0.0812457589362013,0.549085610811479,1.10400889777385,0.575458504289269,0.101412344865173,7.03406881077039,-0.216129711091137,1.58556922011236,27.327276856191,23.5802531738284,-5.36233092047719,-1.36053078610096,1.81082856889316,-69.662310159929,-16.1046204857546,285.912753581136,1.72647155629644,2.52914677333553,-6.83409995126468,62.7704905484597,54.1532804271206,168.05343975611,0.0450033594057021,0,0
56.615,-17.3792845614863,13.4540405091366,19.6057525997036,0.1047931115409,1.37198136708085,1.08201364229014,1.1178400974586,-21.4909991568315,21.5982143780073,22.5714040073169,0.123422936078065,3.05415196978076,2.5438176371823,2.67946065707966,3.09192804533295,8.2933354461671,1.33947301699988,-11.4910339942434,-12.0840081489651,-44.6751400691413,0.623669865497005,9.25286208688818,-1.7850899433338,16.4832695648799,53.8116942375824,-19.0678329196092,-2.63539071192965,9.4076798925287,0.799265445650902,9.55194049434455,3.67602711454218,-11.3320148394947,833.432944994486,-0.0972246377069647,-0.03103969778357,-45.4461754438685,-44.9020830514475,-50.5733486634903,0.0757139254962106,-3.13015533707398,-5.40311865609336,-5.83128568850548,-77.5480435212022,145.145079250463,136.620356142561,-0.0937203009752925,0.39403772073058,1.12504313654704,0.577080905891309,1.0292268296084,6.5635153328347,-0.101814459389247,2.1074217903277,14.7503017048377,16.28744555736,-5.72654462938785,-1.67157461049911,1.24456929883497,-70.2629329294221,-17.3715078574723,290.993431434553,0.796868229837822,3.02451074365631,-5.87648117531839,71.4983275779723,61.6342830157686,153.091434578814,1.37425047221835,0,0
56.62,-17.2572549693309,11.5465027131743,18.3350505610488,0.102739585331735,1.3007428751598,1.01890790107736,1.06377360460246,-21.200452339812,18.5461536002126,23.0369172459786,0.107237390312549,2.9697314714914,2.78922879138405,2.97119881434762,3.21954185312424,8.14179404941495,1.38732819492162,-9.87616790799565,-14.1715179677732,-42.7845651389,1.65255619081425,9.49745521848815,-1.6255726835947,17.6911368814229,54.9670455838409,-21.3785356121263,-2.58063063857513,9.33127055270854,0.715215105292942,8.7703060331831,3.40617711897994,-11.5274233913986,819.342253717531,-0.0984610738823169,-0.0275563421934579,-45.9807811599597,-35.9366554357794,-49.8708190600235,0.0877880163586202,-2.69323242846954,-5.71864734631064,-6.18008288169575,-75.5025957954819,151.249201820236,140.018285069268,-0.106195437861651,0.238982437206827,1.14607837833576,0.582408155200408,1.95708555709088,6.09293941660433,0.0125062434237813,2.62929924502973,2.17272682170484,8.99429018410292,-6.09077570579215,-1.98263326699035,0.678283026761139,-70.8635843395508,-18.6384556405854,296.074351559577,-0.132779424660781,3.51989833535758,-4.91881673541826,80.2265807935052,69.1156423352634,138.128715939825,2.70356097004424,0,0
56.625,-17.1352311958667,9.6390558736204,17.064409112802,0.10068615704009,1.22950778007701,0.955805168911937,1.00924774108175,-20.9099193768271,15.4942383526858,23.5024082877473,0.0910526163163338,2.88531499859296,3.03462824373789,3.26282341031349,3.34714957595426,7.99025987855431,1.43518109098287,-8.26137882280103,-16.2589282486345,-40.8940803562332,2.68139345613124,9.74203668724568,-1.46606303005719,18.8989466036823,56.1223418399151,-23.6891281242747,-2.52587317632462,9.25486485628624,0.631168772675796,7.98870884240412,3.1363399905737,-11.7228226257099,805.252234321717,-0.0996974511011473,-0.0240731526988822,-46.5153613846474,-26.9716553152293,-49.168322955012,0.0998615314966897,-2.25633035349607,-6.03416099129189,-6.52534177217789,-73.4572456020773,157.353033329425,143.416051973806,-0.118669979900742,0.0839345471259273,1.16711261710895,0.592501741245939,2.88490004183411,5.62238593866864,0.126821495125671,3.15115181524507,-10.4042483296484,1.70148256763452,-6.45498941470281,-2.2936770913885,0.112023756702953,-71.464207109044,-19.9053430123031,301.155029412994,-1.0623827511194,4.01526230567836,-3.96119795947197,88.9544178230179,76.5966449239113,123.166710762529,4.03280808285689,0,0
56.63,-17.0266173230562,7.92573327499376,15.6757085143001,0.0976923872482803,1.15711358046101,0.936471843217263,0.998040457752305,-20.6968685031633,12.0261534826153,23.2339446518098,0.079400379492282,2.78878338035989,3.22249034408294,3.49604601796936,3.45436243830795,7.84825145216137,1.33469071278302,-6.32210286067501,-18.2453269390697,-38.6114171517006,3.5864749857761,9.8920310411898,-1.27062863040345,19.4604789457633,54.6513476485514,-26.7114245515611,-2.4860303401947,9.19927024841309,0.570014655590057,7.42000007629395,2.94000005722046,-11.8649997711182,795,-0.100597068667412,-0.0215387009084225,-46.8845082574749,-17.3570291540692,-47.000124114665,0.111926435057063,-1.85508844904748,-6.20990824000648,-6.72630361818837,-71.4931648706288,163.041765330895,146.866797340835,-0.131836625418333,-0.0588160937725718,1.15982316171069,0.579963527461993,3.69379745160565,5.20969964407159,0.309025232544272,3.10904339732337,-20.9731347491733,-5.3267510512131,-6.76913465736933,-2.57367016420338,-0.461766410415878,-70.5937767336297,-22.3464619600613,304.247117607307,-1.98699534614929,4.68474273622838,-2.90594497653604,95.5272403245964,79.9181396580478,108.769138553877,4.84881643886368,0,0
56.635,-16.9538393137059,6.731202049535,13.971923744059,0.092187558961597,1.08163617029493,1.03404674553989,1.10329634046305,-20.6908038454669,7.447117416059,21.0051894066503,0.0798562534588608,2.65991000279847,3.25664155410721,3.57390661237751,3.50708337192532,7.73171044100717,0.838004022387784,-3.51648592548161,-19.9615834525397,-35.2816739758667,4.16085568360745,9.78936395993492,-0.97927610251798,18.2957539665621,46.1659836089006,-31.6341004195378,-2.4860303401947,9.19927024841309,0.570014655590057,7.42000007629395,2.94000005722046,-11.8649997711182,795,-0.100597068667412,-0.0215387009084225,-46.8117302812026,-6.00898287606933,-40.917521311489,0.123966225897741,-1.5491624528684,-6.01231903013861,-6.54848549696328,-69.7464926462206,167.620801529764,150.458440242222,-0.146849523400987,-0.168696705629386,1.07688449225561,0.49822677213224,4.18493457004115,4.95164454794447,0.672522195906142,1.56064430732652,-26.1767148768397,-11.6470968942312,-6.94949574606033,-2.77067996877356,-1.05557061010626,-65.7944246869802,-27.9234392134128,302.027288823417,-2.8981162234361,5.81915815473699,-1.59010296656139,96.3430280801137,72.129315497256,95.8816451550899,4.29385924289136,0,0
56.64,-16.8810578339436,5.53661386297637,12.2680577290146,0.0866824681777372,1.00615516099624,1.1316263007118,1.2081071594449,-20.6847388985779,2.86786299863402,18.7763278835238,0.0803121491637433,2.53103047992316,3.29079439262844,3.64932224761851,3.55980681953504,7.61516387260673,0.341293647538287,-0.710735204730284,-21.6779218055268,-31.9517720215684,4.7352637707239,9.68669198301072,-0.687909681516879,17.1309734475689,37.6802149455294,-36.5570110248121,-2.4860303401947,9.19927024841309,0.570014655590057,7.42000007629395,2.94000005722046,-11.8649997711182,795,-0.100597068667412,-0.0215387009084225,-46.7389488345199,5.33960453236203,-34.8346284600177,0.136006590854619,-1.24322186863934,-5.81472039824939,-6.36443038941928,-67.9997371319252,172.200056079507,154.050254410736,-0.161863137272152,-0.27858255713199,0.993941867878515,0.423510388315178,4.67609510830014,4.69357714648637,1.0360364925837,0.0121713820767086,-31.3805431366947,-17.9677441222973,-7.12986543525148,-2.96769916773622,-1.64940312528944,-60.994843783717,-33.5006824043568,299.807354187218,-3.80928054742919,6.95362766772934,-0.27419821079447,97.1588547363871,64.3401199271771,82.9935372174918,3.73887558384164,0,0
56.645,-16.8082798245932,4.34208263751761,10.5642729587734,0.0811776398910539,0.93067775083016,1.22920120303442,1.31244515232388,-20.6786742408815,-1.71117306792231,16.5475726383643,0.0807680231303221,2.40215710236175,3.32494560265271,3.72150183097788,3.61252775315241,7.49862286145254,-0.155393042856945,2.09488173046312,-23.3941783189967,-28.6220288457345,5.30964446855525,9.58402490175584,-0.396557153631408,15.9662484683677,29.1948509058785,-41.4796868927887,-2.4860303401947,9.19927024841309,0.570014655590057,7.42000007629395,2.94000005722046,-11.8649997711182,795,-0.100597068667412,-0.0215387009084225,-46.6661708582475,16.6876508103619,-28.7520256568417,0.148046381695296,-0.937295872460266,-5.61713118838152,-6.17353184420832,-66.2530649075169,176.779092278376,157.641897312124,-0.176876035254806,-0.388463168988805,0.911003198423432,0.356198895267615,5.16723222673563,4.43552205035925,1.39953345594557,-1.53622770792014,-36.5841232643611,-24.2880899653154,-7.31022652394248,-3.1647089723064,-2.24320732497982,-56.1954917370675,-39.0776596577083,297.587525403329,-4.720401424716,8.08804308623795,1.04164379918017,97.9746424919044,56.5512957663854,70.1060438187044,3.18391838786933,0,0
56.65,-16.746004250782,4.44722589314829,9.23776341658065,0.0748076894530433,0.921703194061038,1.28762876189424,1.37713341544715,-20.7453463307145,-5.85908181838214,13.1843167080722,0.081039369257367,2.26006498319353,3.33933309853857,3.76992116937008,3.50954358137971,7.28717122545784,-0.223984014143241,3.88247726983136,-23.8832190465387,-25.6391483800879,5.01642858032146,9.41208612940577,-0.261593605657307,15.4552429364828,19.0699833891818,-44.2555440738481,-2.4860303401947,9.19927024841309,0.570014655590057,7.42000007629395,2.94000005722046,-11.8649997711182,795,-0.100597068667412,-0.0215387009084225,-46.3367983246605,29.34166441435,-19.7323914539839,0.160587520376709,-0.757564623163624,-5.29381501847557,-5.84961104204332,-64.5943673100087,181.803792364695,161.851982839837,-0.190958490806002,-0.474696883253001,0.791433227585986,0.259831786803855,5.49933728414735,4.24874677855108,1.41525528815626,-4.5710146678428,-41.7440961045041,-35.1523916150643,-7.1814595186813,-2.70278495038659,-2.19210418196984,-50.779385524226,-42.4130422051887,295.726816057975,-6.54678292222886,9.36335297421383,1.3280438967544,103.096428809972,45.0309127426497,65.4378424516346,3.69829807895818,0,0
56.655,-16.6889386472012,5.19654490832226,8.0983448274957,0.0680093957686137,0.945691396218288,1.32664878512252,1.42186136680634,-20.8480656123346,-9.79300663248331,9.25898571675167,0.0812192348658775,2.11143113231457,3.3439236895066,3.80382983570839,3.32939156634006,7.02869224735748,-0.0803845818652538,5.16536333148429,-23.7639557694504,-22.8284030389789,4.29320962139416,9.2058251266792,-0.204153832746106,15.2682896913173,8.13321854699992,-45.9671332666564,-2.4860303401947,9.19927024841309,0.570014655590057,7.42000007629395,2.94000005722046,-11.8649997711182,795,-0.100597068667412,-0.0215387009084225,-45.880268267125,42.6420778829802,-9.25766178731308,0.17337625757149,-0.640394579264374,-4.90820537716077,-5.45585890204988,-62.9793926018567,187.049027276124,166.368299017062,-0.204578768539899,-0.549203870090086,0.653715490763902,0.152867284644312,5.75259446471035,4.09731464996701,1.25860136203483,-8.34231288928482,-46.8820870147422,-48.2681287629682,-6.89948245166272,-1.91429352224201,-1.82135655681577,-45.057971555799,-44.6371411562956,294.044236851485,-8.82668281434116,10.7084062121333,1.1041810010837,110.352116727198,31.6618053062455,64.8438635793447,4.74265758643443,0,0
