X[s],"Avanti sensor 2: ACC.X 2",X[s],"Avanti sensor 2: ACC.Y 2",X[s],"Avanti sensor 2: ACC.Z 2",X[s],"Avanti sensor 2: GYRO.X 2",X[s],"Avanti sensor 2: GYRO.Y 2",X[s],"Avanti sensor 2: GYRO.Z 2",X[s],"L RECTUS FEMORIS: EMG 4",X[s],"L BICEPS FEMORIS: EMG 5",X[s],"Avanti sensor 7: ACC.X 7",X[s],"Avanti sensor 7: ACC.Y 7",X[s],"Avanti sensor 7: ACC.Z 7",X[s],"Avanti sensor 7: GYRO.X 7",X[s],"Avanti sensor 7: GYRO.Y 7",X[s],"Avanti sensor 7: GYRO.Z 7",X[s],"R RECTUS FEMORIS: EMG 10",X[s],"R BICEPS FEMORIS: EMG 15"
0.000000,0,0.000000,0,0.000000,0,0.000000,0,0.000000,0,0.000000,0,0.000000,0,0.000000,0,0.000000,0,0.000000,0,0.000000,0,0.000000,0,0.000000,0,0.000000,0,0.000000,0,0.000000,0
0.0027,0,0.0027,0,0.0027,0,0.0027,0,0.0027,0,0.0027,0,0.0004655172,0,0.0004655172,0,0.0027,0,0.0027,0,0.0027,0,0.0027,0,0.0027,0,0.0027,0,0.0004655172,0,0.0004655172,0
0.0054,0,0.0054,0,0.0054,0,0.0054,0,0.0054,0,0.0054,0,0.0009310344,0,0.0009310344,0,0.0054,0,0.0054,0,0.0054,0,0.0054,0,0.0054,0,0.0054,0,0.0009310344,0,0.0009310344,0
0.0081,0,0.0081,0,0.0081,0,0.0081,0,0.0081,0,0.0081,0,0.001396552,0,0.001396552,0,0.0081,0,0.0081,0,0.0081,0,0.0081,0,0.0081,0,0.0081,0,0.001396552,0,0.001396552,0
0.0108,0,0.0108,0,0.0108,0,0.0108,0,0.0108,0,0.0108,0,0.001862069,0,0.001862069,0,0.0108,0,0.0108,0,0.0108,0,0.0108,0,0.0108,0,0.0108,0,0.001862069,0,0.001862069,0
0.0135,0,0.0135,0,0.0135,0,0.0135,0,0.0135,0,0.0135,0,0.002327586,0,0.002327586,0,0.0135,0,0.0135,0,0.0135,0,0.0135,0,0.0135,0,0.0135,0,0.002327586,0,0.002327586,0
0.0162,0,0.0162,0,0.0162,0,0.0162,0,0.0162,0,0.0162,0,0.002793103,0,0.002793103,0,0.0162,0,0.0162,0,0.0162,0,0.0162,0,0.0162,0,0.0162,0,0.002793103,0,0.002793103,0
0.0189,0,0.0189,0,0.0189,0,0.0189,0,0.0189,0,0.0189,0,0.003258621,0,0.003258621,0,0.0189,0,0.0189,0,0.0189,0,0.0189,0,0.0189,0,0.0189,0,0.003258621,0,0.003258621,0
0.0216,0,0.0216,0,0.0216,0,0.0216,0,0.0216,0,0.0216,0,0.003724138,0,0.003724138,0,0.0216,0,0.0216,0,0.0216,0,0.0216,0,0.0216,0,0.0216,0,0.003724138,0,0.003724138,0
0.0243,0,0.0243,0,0.0243,0,0.0243,0,0.0243,0,0.0243,0,0.004189655,0,0.004189655,0,0.0243,0,0.0243,0,0.0243,0,0.0243,0,0.0243,0,0.0243,0,0.004189655,0,0.004189655,0
0.027,0,0.027,0,0.027,0,0.027,0,0.027,0,0.027,0,0.004655172,0,0.004655172,0,0.027,0,0.027,0,0.027,0,0.027,0,0.027,0,0.027,0,0.004655172,0,0.004655172,0
0.0297,0,0.0297,0,0.0297,0,0.0297,0,0.0297,0,0.0297,0,0.00512069,0,0.00512069,0,0.0297,0,0.0297,0,0.0297,0,0.0297,0,0.0297,0,0.0297,0,0.00512069,0,0.00512069,0
0.0324,0,0.0324,0,0.0324,0,0.0324,0,0.0324,0,0.0324,0,0.005586207,0,0.005586207,0,0.0324,0,0.0324,0,0.0324,0,0.0324,0,0.0324,0,0.0324,0,0.005586207,0,0.005586207,0
0.0351,0,0.0351,0,0.0351,0,0.0351,0,0.0351,0,0.0351,0,0.006051724,0,0.006051724,0,0.0351,0,0.0351,0,0.0351,0,0.0351,0,0.0351,0,0.0351,0,0.006051724,0,0.006051724,0
0.0378,0,0.0378,0,0.0378,0,0.0378,0,0.0378,0,0.0378,0,0.006517241,0,0.006517241,0,0.0378,0,0.0378,0,0.0378,0,0.0378,0,0.0378,0,0.0378,0,0.006517241,0,0.006517241,0
0.0405,0,0.0405,0,0.0405,0,0.0405,0,0.0405,0,0.0405,0,0.006982759,0,0.006982759,0,0.0405,0,0.0405,0,0.0405,0,0.0405,0,0.0405,0,0.0405,0,0.006982759,0,0.006982759,0
0.0432,0,0.0432,0,0.0432,0,0.0432,0,0.0432,0,0.0432,0,0.007448276,0,0.007448276,0,0.0432,0,0.0432,0,0.0432,0,0.0432,0,0.0432,0,0.0432,0,0.007448276,0,0.007448276,0
0.0459,0,0.0459,0,0.0459,0,0.0459,0,0.0459,0,0.0459,0,0.007913793,0,0.007913793,0,0.0459,0,0.0459,0,0.0459,0,0.0459,0,0.0459,0,0.0459,0,0.007913793,0,0.007913793,0
0.0486,0,0.0486,0,0.0486,0,0.0486,0,0.0486,0,0.0486,0,0.00837931,0,0.00837931,0,0.0486,0,0.0486,0,0.0486,0,0.0486,0,0.0486,0,0.0486,0,0.00837931,0,0.00837931,0
0.0513,0,0.0513,0,0.0513,0,0.0513,0,0.0513,0,0.0513,0,0.008844827,0,0.008844827,0,0.0513,0,0.0513,0,0.0513,0,0.0513,0,0.0513,0,0.0513,0,0.008844827,0,0.008844827,0
0.054,0,0.054,0,0.054,0,0.054,0,0.054,0,0.054,0,0.009310344,0,0.009310344,0,0.054,0,0.054,0,0.054,0,0.054,0,0.054,0,0.054,0,0.009310344,0,0.009310344,0
0.0567,0,0.0567,0,0.0567,0,0.0567,0,0.0567,0,0.0567,0,0.009775862,0,0.009775862,0,0.0567,0,0.0567,0,0.0567,0,0.0567,0,0.0567,0,0.0567,0,0.009775862,0,0.009775862,0
0.0594,0,0.0594,0,0.0594,0,0.0594,0,0.0594,0,0.0594,0,0.01024138,0,0.01024138,0,0.0594,0,0.0594,0,0.0594,0,0.0594,0,0.0594,0,0.0594,0,0.01024138,0,0.01024138,0
0.0621,0,0.0621,0,0.0621,0,0.0621,0,0.0621,0,0.0621,0,0.0107069,0,0.0107069,0,0.0621,0,0.0621,0,0.0621,0,0.0621,0,0.0621,0,0.0621,0,0.0107069,0,0.0107069,0
0.0648,0,0.0648,0,0.0648,0,0.0648,0,0.0648,0,0.0648,0,0.01117241,0,0.01117241,0,0.0648,0,0.0648,0,0.0648,0,0.0648,0,0.0648,0,0.0648,0,0.01117241,0,0.01117241,0
0.0675,0,0.0675,0,0.0675,0,0.0675,0,0.0675,0,0.0675,0,0.01163793,0,0.01163793,0,0.0675,0,0.0675,0,0.0675,0,0.0675,0,0.0675,0,0.0675,0,0.01163793,0,0.01163793,0
0.0702,0,0.0702,0,0.0702,0,0.0702,0,0.0702,0,0.0702,0,0.01210345,0,0.01210345,0,0.0702,0,0.0702,0,0.0702,0,0.0702,0,0.0702,0,0.0702,0,0.01210345,0,0.01210345,0
0.0729,0,0.0729,0,0.0729,0,0.0729,0,0.0729,0,0.0729,0,0.01256897,0,0.01256897,0,0.0729,0,0.0729,0,0.0729,0,0.0729,0,0.0729,0,0.0729,0,0.01256897,0,0.01256897,0
0.0756,0,0.0756,0,0.0756,0,0.0756,0,0.0756,0,0.0756,0,0.01303448,0,0.01303448,0,0.0756,0,0.0756,0,0.0756,0,0.0756,0,0.0756,0,0.0756,0,0.01303448,0,0.01303448,0
0.0783,0,0.0783,0,0.0783,0,0.0783,0,0.0783,0,0.0783,0,0.0135,0,0.0135,0,0.0783,0,0.0783,0,0.0783,0,0.0783,0,0.0783,0,0.0783,0,0.0135,0,0.0135,0
0.081,0,0.081,0,0.081,0,0.081,0,0.081,0,0.081,0,0.01396552,0,0.01396552,0,0.081,0,0.081,0,0.081,0,0.081,0,0.081,0,0.081,0,0.01396552,0,0.01396552,0
0.0837,0,0.0837,0,0.0837,0,0.0837,0,0.0837,0,0.0837,0,0.01443103,0,0.01443103,0,0.0837,0,0.0837,0,0.0837,0,0.0837,0,0.0837,0,0.0837,0,0.01443103,0,0.01443103,0
0.0864,0,0.0864,0,0.0864,0,0.0864,0,0.0864,0,0.0864,0,0.01489655,0,0.01489655,0,0.0864,0,0.0864,0,0.0864,0,0.0864,0,0.0864,0,0.0864,0,0.01489655,0,0.01489655,0
0.0891,0,0.0891,0,0.0891,0,0.0891,0,0.0891,0,0.0891,0,0.01536207,0,0.01536207,0,0.0891,0,0.0891,0,0.0891,0,0.0891,0,0.0891,0,0.0891,0,0.01536207,0,0.01536207,0
0.0918,0,0.0918,0,0.0918,0,0.0918,0,0.0918,0,0.0918,0,0.01582759,0,0.01582759,0,0.0918,0,0.0918,0,0.0918,0,0.0918,0,0.0918,0,0.0918,0,0.01582759,0,0.01582759,0
0.09450001,0,0.09450001,0,0.09450001,0,0.09450001,0,0.09450001,0,0.09450001,0,0.0162931,0,0.0162931,0,0.09450001,0.293457,0.09450001,-0.9580078,0.09450001,-0.1542969,0.09450001,1.585366,0.09450001,3.597561,0.09450001,2.012195,0.0162931,0,0.0162931,0
0.0972,0,0.0972,0,0.0972,0,0.0972,0,0.0972,0,0.0972,0,0.01675862,0,0.01675862,0,0.0972,0.2929688,0.0972,-0.9589844,0.0972,-0.1542969,0.0972,1.646341,0.0972,3.47561,0.0972,1.95122,0.01675862,0,0.01675862,0
0.0999,0,0.0999,0,0.0999,0,0.0999,0,0.0999,0,0.0999,0,0.01722414,0,0.01722414,0,0.0999,0.2910156,0.0999,-0.9589844,0.0999,-0.1518555,0.0999,1.52439,0.0999,3.231707,0.0999,1.95122,0.01722414,0,0.01722414,0
0.1026,0,0.1026,0,0.1026,0,0.1026,0,0.1026,0,0.1026,0,0.01768965,0,0.01768965,0,0.1026,0.2910156,0.1026,-0.9580078,0.1026,-0.152832,0.1026,1.52439,0.1026,3.353659,0.1026,1.829268,0.01768965,0,0.01768965,0
0.1053,0,0.1053,0,0.1053,0,0.1053,0,0.1053,0,0.1053,0,0.01815517,0,0.01815517,0,0.1053,0.2875977,0.1053,-0.9604492,0.1053,-0.1533203,0.1053,1.585366,0.1053,3.414634,0.1053,2.073171,0.01815517,0,0.01815517,0
0.108,0,0.108,0,0.108,0,0.108,0,0.108,0,0.108,0,0.01862069,0,0.01862069,0,0.108,0.2924805,0.108,-0.9580078,0.108,-0.1552734,0.108,1.463415,0.108,3.353659,0.108,2.012195,0.01862069,0,0.01862069,0
0.1107,0,0.1107,0,0.1107,0,0.1107,0,0.1107,0,0.1107,0,0.01908621,0,0.01908621,0,0.1107,0.2915039,0.1107,-0.9584961,0.1107,-0.15625,0.1107,1.341463,0.1107,3.353659,0.1107,2.012195,0.01908621,0,0.01908621,0
0.1134,0,0.1134,0,0.1134,0,0.1134,0,0.1134,0,0.1134,0,0.01955172,0,0.01955172,0,0.1134,0.2929688,0.1134,-0.9589844,0.1134,-0.1533203,0.1134,1.402439,0.1134,3.231707,0.1134,1.829268,0.01955172,0,0.01955172,0
0.1161,0,0.1161,0,0.1161,0,0.1161,0,0.1161,0,0.1161,0,0.02001724,0,0.02001724,0,0.1161,0.2939453,0.1161,-0.956543,0.1161,-0.1582031,0.1161,1.219512,0.1161,3.353659,0.1161,1.890244,0.02001724,0,0.02001724,0
0.1188,0,0.1188,0,0.1188,0,0.1188,0,0.1188,0,0.1188,0,0.02048276,0,0.02048276,0,0.1188,0.2924805,0.1188,-0.9555664,0.1188,-0.1577148,0.1188,1.219512,0.1188,3.536585,0.1188,1.829268,0.02048276,0,0.02048276,0
0.1215,0,0.1215,0,0.1215,0,0.1215,0,0.1215,0,0.1215,0,0.02094828,0,0.02094828,0,0.1215,0.2929688,0.1215,-0.9599609,0.1215,-0.1567383,0.1215,1.219512,0.1215,3.353659,0.1215,1.829268,0.02094828,0,0.02094828,0
0.1242,0,0.1242,0,0.1242,0,0.1242,0,0.1242,0,0.1242,0,0.02141379,0,0.02141379,0,0.1242,0.2919922,0.1242,-0.9589844,0.1242,-0.1552734,0.1242,1.341463,0.1242,3.353659,0.1242,2.134146,0.02141379,0,0.02141379,0
0.1269,0,0.1269,0,0.1269,0,0.1269,0,0.1269,0,0.1269,0,0.02187931,0,0.02187931,0,0.1269,0.293457,0.1269,-0.9604492,0.1269,-0.1542969,0.1269,1.341463,0.1269,3.353659,0.1269,1.585366,0.02187931,0,0.02187931,0
0.1296,0,0.1296,0,0.1296,0,0.1296,0,0.1296,0,0.1296,0,0.02234483,0,0.02234483,0,0.1296,0.2978516,0.1296,-0.9628906,0.1296,-0.15625,0.1296,1.158537,0.1296,3.719512,0.1296,1.829268,0.02234483,0,0.02234483,0
0.1323,0,0.1323,0,0.1323,0,0.1323,0,0.1323,0,0.1323,0,0.02281034,0,0.02281034,0,0.1323,0.2958984,0.1323,-0.9628906,0.1323,-0.1586914,0.1323,1.036585,0.1323,3.719512,0.1323,1.95122,0.02281034,0,0.02281034,0
0.135,0,0.135,0,0.135,0,0.135,0,0.135,0,0.135,0,0.02327586,0,0.02327586,0,0.135,0.2949219,0.135,-0.9638672,0.135,-0.1606445,0.135,1.097561,0.135,3.780488,0.135,1.95122,0.02327586,0,0.02327586,0
0.1377,0,0.1377,0,0.1377,0,0.1377,0,0.1377,0,0.1377,0,0.02374138,0,0.02374138,0,0.1377,0.2924805,0.1377,-0.9614258,0.1377,-0.1586914,0.1377,1.097561,0.1377,3.597561,0.1377,1.768293,0.02374138,0,0.02374138,0
0.1404,0,0.1404,0,0.1404,0,0.1404,0,0.1404,0,0.1404,0,0.0242069,0,0.0242069,0,0.1404,0.2954102,0.1404,-0.9599609,0.1404,-0.1601563,0.1404,1.036585,0.1404,3.963415,0.1404,1.890244,0.0242069,0,0.0242069,0
0.1431,0,0.1431,0,0.1431,0,0.1431,0,0.1431,0,0.1431,0,0.02467241,0,0.02467241,0,0.1431,0.2919922,0.1431,-0.9624023,0.1431,-0.1601563,0.1431,1.097561,0.1431,3.841464,0.1431,1.585366,0.02467241,0,0.02467241,0
0.1458,0,0.1458,0,0.1458,0,0.1458,0,0.1458,0,0.1458,0,0.02513793,0,0.02513793,0,0.1458,0.2915039,0.1458,-0.9624023,0.1458,-0.1582031,0.1458,0.9146342,0.1458,3.597561,0.1458,1.707317,0.02513793,0,0.02513793,0
0.1485,0,0.1485,0,0.1485,0,0.1485,0,0.1485,0,0.1485,0,0.02560345,0,0.02560345,0,0.1485,0.2929688,0.1485,-0.9609375,0.1485,-0.1572266,0.1485,0.9146342,0.1485,3.597561,0.1485,1.829268,0.02560345,0,0.02560345,0
0.1512,0,0.1512,0,0.1512,0,0.1512,0,0.1512,0,0.1512,0,0.02606896,0,0.02606896,0,0.1512,0.2978516,0.1512,-0.9580078,0.1512,-0.1572266,0.1512,0.9756098,0.1512,3.47561,0.1512,1.707317,0.02606896,0,0.02606896,0
0.1539,0,0.1539,0,0.1539,0,0.1539,0,0.1539,0,0.1539,0,0.02653448,0,0.02653448,0,0.1539,0.2958984,0.1539,-0.9604492,0.1539,-0.1601563,0.1539,1.097561,0.1539,3.292683,0.1539,1.768293,0.02653448,0,0.02653448,0
0.1566,0,0.1566,0,0.1566,0,0.1566,0,0.1566,0,0.1566,0,0.027,0,0.027,0,0.1566,0.2949219,0.1566,-0.9599609,0.1566,-0.1625977,0.1566,1.036585,0.1566,3.47561,0.1566,1.95122,0.027,0,0.027,0
0.1593,0,0.1593,0,0.1593,0,0.1593,0,0.1593,0,0.1593,0,0.02746552,0,0.02746552,0,0.1593,0.2944336,0.1593,-0.9609375,0.1593,-0.1601563,0.1593,0.9756098,0.1593,3.719512,0.1593,1.890244,0.02746552,0,0.02746552,0
0.162,-0.1245117,0.162,-0.9804688,0.162,-0.2163086,0.162,-2.012195,0.162,2.317073,0.162,1.768293,0.02793103,0,0.02793103,0,0.162,0.2944336,0.162,-0.9614258,0.162,-0.159668,0.162,0.9756098,0.162,3.597561,0.162,1.829268,0.02793103,0,0.02793103,0
0.1647,-0.1264648,0.1647,-0.9829102,0.1647,-0.2192383,0.1647,-1.95122,0.1647,2.378049,0.1647,1.768293,0.02839655,0,0.02839655,0,0.1647,0.293457,0.1647,-0.9604492,0.1647,-0.1582031,0.1647,0.6707317,0.1647,3.780488,0.1647,1.768293,0.02839655,0,0.02839655,0
0.1674,-0.1254883,0.1674,-0.9819336,0.1674,-0.2216797,0.1674,-1.768293,0.1674,2.012195,0.1674,1.829268,0.02886207,0,0.02886207,0,0.1674,0.2910156,0.1674,-0.9580078,0.1674,-0.1606445,0.1674,0.5487805,0.1674,3.597561,0.1674,1.585366,0.02886207,0,0.02886207,0
0.1701,-0.1245117,0.1701,-0.984375,0.1701,-0.2192383,0.1701,-1.829268,0.1701,2.134146,0.1701,1.829268,0.02932759,0,0.02932759,0,0.1701,0.2939453,0.1701,-0.9575195,0.1701,-0.1572266,0.1701,0.4878049,0.1701,3.780488,0.1701,1.585366,0.02932759,0,0.02932759,0
0.1728,-0.1259766,0.1728,-0.9829102,0.1728,-0.2211914,0.1728,-1.95122,0.1728,2.378049,0.1728,1.890244,0.0297931,0,0.0297931,0,0.1728,0.2978516,0.1728,-0.9580078,0.1728,-0.1547852,0.1728,0.4878049,0.1728,3.414634,0.1728,1.768293,0.0297931,0,0.0297931,0
0.1755,-0.125,0.1755,-0.9804688,0.1755,-0.2207031,0.1755,-1.585366,0.1755,2.073171,0.1755,1.768293,0.03025862,0,0.03025862,0,0.1755,0.2939453,0.1755,-0.9536133,0.1755,-0.1586914,0.1755,0.5487805,0.1755,3.414634,0.1755,1.463415,0.03025862,0,0.03025862,0
0.1782,-0.1279297,0.1782,-0.9799805,0.1782,-0.2226563,0.1782,-1.585366,0.1782,1.95122,0.1782,1.829268,0.03072414,0,0.03072414,0,0.1782,0.2954102,0.1782,-0.953125,0.1782,-0.1567383,0.1782,0.4268293,0.1782,3.414634,0.1782,1.707317,0.03072414,0,0.03072414,0
0.1809,-0.1298828,0.1809,-0.9819336,0.1809,-0.2207031,0.1809,-1.829268,0.1809,2.073171,0.1809,1.890244,0.03118965,0,0.03118965,0,0.1809,0.2983398,0.1809,-0.956543,0.1809,-0.15625,0.1809,0.5487805,0.1809,3.414634,0.1809,1.768293,0.03118965,0,0.03118965,0
0.1836,-0.1269531,0.1836,-0.9794922,0.1836,-0.21875,0.1836,-1.585366,0.1836,2.317073,0.1836,1.707317,0.03165517,0,0.03165517,0,0.1836,0.2983398,0.1836,-0.953125,0.1836,-0.1601563,0.1836,0.6097561,0.1836,3.353659,0.1836,1.463415,0.03165517,0,0.03165517,0
0.1863,-0.1245117,0.1863,-0.9799805,0.1863,-0.2197266,0.1863,-1.646341,0.1863,2.256098,0.1863,1.95122,0.03212069,0,0.03212069,0,0.1863,0.293457,0.1863,-0.9555664,0.1863,-0.1586914,0.1863,0.3658537,0.1863,3.231707,0.1863,1.646341,0.03212069,0,0.03212069,0
0.189,-0.1240234,0.189,-0.9819336,0.189,-0.2192383,0.189,-1.585366,0.189,2.256098,0.189,1.646341,0.03258621,0,0.03258621,0,0.189,0.2949219,0.189,-0.9555664,0.189,-0.1577148,0.189,0.4878049,0.189,3.231707,0.189,1.646341,0.03258621,0,0.03258621,0
0.1917,-0.1235352,0.1917,-0.9794922,0.1917,-0.2202148,0.1917,-1.402439,0.1917,2.317073,0.1917,1.646341,0.03305172,0,0.03305172,0,0.1917,0.2924805,0.1917,-0.9550781,0.1917,-0.1601563,0.1917,0.4878049,0.1917,2.926829,0.1917,1.402439,0.03305172,0,0.03305172,0
0.1944,-0.1220703,0.1944,-0.9814453,0.1944,-0.2197266,0.1944,-1.585366,0.1944,2.439024,0.1944,1.707317,0.03351724,0,0.03351724,0,0.1944,0.2949219,0.1944,-0.9614258,0.1944,-0.1606445,0.1944,0.5487805,0.1944,2.865854,0.1944,1.52439,0.03351724,0,0.03351724,0
0.1971,-0.1225586,0.1971,-0.9775391,0.1971,-0.2207031,0.1971,-1.341463,0.1971,2.378049,0.1971,1.707317,0.03398276,0,0.03398276,0,0.1971,0.2958984,0.1971,-0.9575195,0.1971,-0.1591797,0.1971,0.7926829,0.1971,2.987805,0.1971,1.585366,0.03398276,0,0.03398276,0
0.1998,-0.125,0.1998,-0.9794922,0.1998,-0.2226563,0.1998,-1.585366,0.1998,2.5,0.1998,1.829268,0.03444827,0,0.03444827,0,0.1998,0.2963867,0.1998,-0.9560547,0.1998,-0.1611328,0.1998,0.4268293,0.1998,2.926829,0.1998,1.585366,0.03444827,0,0.03444827,0
0.2025,-0.1220703,0.2025,-0.9794922,0.2025,-0.222168,0.2025,-1.402439,0.2025,2.439024,0.2025,1.890244,0.03491379,0,0.03491379,0,0.2025,0.2973633,0.2025,-0.9541016,0.2025,-0.1586914,0.2025,0.5487805,0.2025,2.743902,0.2025,1.52439,0.03491379,0,0.03491379,0
0.2052,-0.1230469,0.2052,-0.9804688,0.2052,-0.222168,0.2052,-1.585366,0.2052,2.5,0.2052,1.768293,0.03537931,0,0.03537931,0,0.2052,0.2954102,0.2052,-0.9575195,0.2052,-0.1577148,0.2052,0.4268293,0.2052,2.804878,0.2052,1.646341,0.03537931,0,0.03537931,0
0.2079,-0.1220703,0.2079,-0.9794922,0.2079,-0.2207031,0.2079,-1.585366,0.2079,2.621951,0.2079,2.134146,0.03584483,0,0.03584483,0,0.2079,0.2958984,0.2079,-0.9594727,0.2079,-0.1606445,0.2079,0.5487805,0.2079,3.109756,0.2079,1.646341,0.03584483,0,0.03584483,0
0.2106,-0.1220703,0.2106,-0.9819336,0.2106,-0.2231445,0.2106,-1.585366,0.2106,2.682927,0.2106,1.95122,0.03631034,0,0.03631034,0,0.2106,0.2993164,0.2106,-0.9580078,0.2106,-0.1616211,0.2106,0.3048781,0.2106,2.865854,0.2106,1.646341,0.03631034,0,0.03631034,0
0.2133,-0.1235352,0.2133,-0.9790039,0.2133,-0.2265625,0.2133,-1.463415,0.2133,2.743902,0.2133,2.073171,0.03677586,0,0.03677586,0,0.2133,0.2963867,0.2133,-0.9619141,0.2133,-0.1542969,0.2133,0.7317073,0.2133,3.231707,0.2133,1.463415,0.03677586,0,0.03677586,0
0.216,-0.1210938,0.216,-0.9794922,0.216,-0.2270508,0.216,-1.463415,0.216,2.621951,0.216,2.256098,0.03724138,0,0.03724138,0,0.216,0.3022461,0.216,-0.9609375,0.216,-0.1567383,0.216,0.6707317,0.216,3.109756,0.216,1.52439,0.03724138,0,0.03724138,0
0.2187,-0.1245117,0.2187,-0.9838867,0.2187,-0.2226563,0.2187,-1.463415,0.2187,2.317073,0.2187,2.012195,0.0377069,0,0.0377069,0,0.2187,0.2944336,0.2187,-0.9609375,0.2187,-0.1567383,0.2187,0.5487805,0.2187,3.109756,0.2187,1.585366,0.0377069,0,0.0377069,0
0.2214,-0.1206055,0.2214,-0.9853516,0.2214,-0.2255859,0.2214,-1.585366,0.2214,2.5,0.2214,2.073171,0.03817241,0,0.03817241,0,0.2214,0.2924805,0.2214,-0.9589844,0.2214,-0.1523438,0.2214,0.4878049,0.2214,3.353659,0.2214,1.707317,0.03817241,0,0.03817241,0
0.2241,-0.1230469,0.2241,-0.9824219,0.2241,-0.2265625,0.2241,-1.52439,0.2241,2.378049,0.2241,2.195122,0.03863793,0,0.03863793,0,0.2241,0.2949219,0.2241,-0.9580078,0.2241,-0.1552734,0.2241,0.6097561,0.2241,3.353659,0.2241,1.646341,0.03863793,0,0.03863793,0
0.2268,-0.121582,0.2268,-0.9848633,0.2268,-0.2270508,0.2268,-1.646341,0.2268,2.439024,0.2268,2.256098,0.03910345,0,0.03910345,0,0.2268,0.2885742,0.2268,-0.9589844,0.2268,-0.1572266,0.2268,0.4878049,0.2268,3.292683,0.2268,1.585366,0.03910345,0,0.03910345,0
0.2295,-0.1220703,0.2295,-0.9814453,0.2295,-0.2246094,0.2295,-1.890244,0.2295,2.317073,0.2295,2.134146,0.03956896,0,0.03956896,0,0.2295,0.2910156,0.2295,-0.9589844,0.2295,-0.1567383,0.2295,0.4878049,0.2295,3.536585,0.2295,1.463415,0.03956896,0,0.03956896,0
0.2322,-0.1235352,0.2322,-0.9750977,0.2322,-0.2260742,0.2322,-2.256098,0.2322,2.621951,0.2322,2.012195,0.04003448,0,0.04003448,0,0.2322,0.2915039,0.2322,-0.956543,0.2322,-0.1538086,0.2322,0.4268293,0.2322,3.170732,0.2322,1.646341,0.04003448,0,0.04003448,0
0.2349,-0.1196289,0.2349,-0.9780273,0.2349,-0.2260742,0.2349,-1.890244,0.2349,2.5,0.2349,1.707317,0.0405,0,0.0405,0,0.2349,0.2910156,0.2349,-0.9545898,0.2349,-0.1513672,0.2349,0.4878049,0.2349,3.47561,0.2349,1.707317,0.0405,0,0.0405,0
0.2376,-0.1152344,0.2376,-0.9785156,0.2376,-0.222168,0.2376,-1.890244,0.2376,2.378049,0.2376,1.95122,0.04096552,0,0.04096552,0,0.2376,0.2905273,0.2376,-0.9545898,0.2376,-0.1513672,0.2376,0.06097561,0.2376,3.353659,0.2376,1.707317,0.04096552,0,0.04096552,0
0.2403,-0.1196289,0.2403,-0.9780273,0.2403,-0.2211914,0.2403,-1.890244,0.2403,2.5,0.2403,1.95122,0.04143103,0,0.04143103,0,0.2403,0.2958984,0.2403,-0.9545898,0.2403,-0.1542969,0.2403,0.1829268,0.2403,3.597561,0.2403,1.768293,0.04143103,0,0.04143103,0
0.243,-0.1157227,0.243,-0.9775391,0.243,-0.2192383,0.243,-2.073171,0.243,2.439024,0.243,1.829268,0.04189655,0,0.04189655,0,0.243,0.2958984,0.243,-0.9560547,0.243,-0.1518555,0.243,0.2439024,0.243,3.780488,0.243,1.707317,0.04189655,0,0.04189655,0
0.2457,-0.1162109,0.2457,-0.9755859,0.2457,-0.2192383,0.2457,-1.890244,0.2457,2.5,0.2457,2.012195,0.04236207,0,0.04236207,0,0.2457,0.2905273,0.2457,-0.9594727,0.2457,-0.1503906,0.2457,0.1219512,0.2457,3.536585,0.2457,2.134146,0.04236207,0,0.04236207,0
0.2484,-0.1147461,0.2484,-0.9765625,0.2484,-0.2182617,0.2484,-1.829268,0.2484,2.560976,0.2484,1.585366,0.04282758,0,0.04282758,0,0.2484,0.2900391,0.2484,-0.9560547,0.2484,-0.1499023,0.2484,0.4268293,0.2484,3.780488,0.2484,1.707317,0.04282758,0,0.04282758,0
0.2511,-0.1201172,0.2511,-0.9829102,0.2511,-0.2216797,0.2511,-2.012195,0.2511,3.170732,0.2511,2.073171,0.0432931,0,0.0432931,0,0.2511,0.2929688,0.2511,-0.9594727,0.2511,-0.1523438,0.2511,0.2439024,0.2511,3.902439,0.2511,1.646341,0.0432931,0,0.0432931,0
0.2538,-0.1220703,0.2538,-0.980957,0.2538,-0.2241211,0.2538,-1.829268,0.2538,2.743902,0.2538,1.646341,0.04375862,0,0.04375862,0,0.2538,0.2919922,0.2538,-0.9609375,0.2538,-0.152832,0.2538,0.4268293,0.2538,3.780488,0.2538,1.768293,0.04375862,0,0.04375862,0
0.2565,-0.1225586,0.2565,-0.9770508,0.2565,-0.2202148,0.2565,-1.890244,0.2565,2.804878,0.2565,1.646341,0.04422414,0,0.04422414,0,0.2565,0.2924805,0.2565,-0.9589844,0.2565,-0.1474609,0.2565,0.5487805,0.2565,3.658537,0.2565,1.768293,0.04422414,0,0.04422414,0
0.2592,-0.1196289,0.2592,-0.9829102,0.2592,-0.222168,0.2592,-1.707317,0.2592,2.926829,0.2592,1.829268,0.04468966,0,0.04468966,0,0.2592,0.2900391,0.2592,-0.9555664,0.2592,-0.1523438,0.2592,0.6097561,0.2592,3.536585,0.2592,1.829268,0.04468966,0,0.04468966,0
0.2619,-0.1171875,0.2619,-0.9824219,0.2619,-0.2226563,0.2619,-1.829268,0.2619,3.04878,0.2619,1.768293,0.04515517,0,0.04515517,0,0.2619,0.2900391,0.2619,-0.9599609,0.2619,-0.1508789,0.2619,0.5487805,0.2619,3.780488,0.2619,1.829268,0.04515517,0,0.04515517,0
0.2646,-0.1196289,0.2646,-0.9790039,0.2646,-0.2241211,0.2646,-1.585366,0.2646,2.926829,0.2646,1.890244,0.04562069,0,0.04562069,0,0.2646,0.2919922,0.2646,-0.9599609,0.2646,-0.1499023,0.2646,0.7317073,0.2646,3.353659,0.2646,1.890244,0.04562069,0,0.04562069,0
0.2673,-0.1191406,0.2673,-0.9814453,0.2673,-0.2226563,0.2673,-1.829268,0.2673,2.743902,0.2673,1.95122,0.04608621,0,0.04608621,0,0.2673,0.2871094,0.2673,-0.9594727,0.2673,-0.1503906,0.2673,0.6707317,0.2673,3.231707,0.2673,1.646341,0.04608621,0,0.04608621,0
0.27,-0.121582,0.27,-0.9785156,0.27,-0.2265625,0.27,-1.95122,0.27,2.804878,0.27,1.646341,0.04655172,0,0.04655172,0,0.27,0.2890625,0.27,-0.9658203,0.27,-0.152832,0.27,0.6097561,0.27,3.231707,0.27,1.95122,0.04655172,0,0.04655172,0
0.2727,-0.1235352,0.2727,-0.9790039,0.2727,-0.2255859,0.2727,-1.646341,0.2727,3.109756,0.2727,1.768293,0.04701724,0,0.04701724,0,0.2727,0.2919922,0.2727,-0.9619141,0.2727,-0.1484375,0.2727,0.9756098,0.2727,3.04878,0.2727,1.829268,0.04701724,0,0.04701724,0
0.2754,-0.125,0.2754,-0.9799805,0.2754,-0.2236328,0.2754,-1.646341,0.2754,2.926829,0.2754,1.95122,0.04748276,0,0.04748276,0,0.2754,0.2866211,0.2754,-0.9633789,0.2754,-0.1518555,0.2754,0.7926829,0.2754,3.109756,0.2754,1.707317,0.04748276,0,0.04748276,0
0.2781,-0.125,0.2781,-0.9780273,0.2781,-0.2216797,0.2781,-1.341463,0.2781,3.04878,0.2781,1.829268,0.04794827,0,0.04794827,0,0.2781,0.2900391,0.2781,-0.9609375,0.2781,-0.1538086,0.2781,0.9146342,0.2781,3.292683,0.2781,1.829268,0.04794827,0,0.04794827,0
0.2808,-0.1196289,0.2808,-0.9804688,0.2808,-0.2177734,0.2808,-1.52439,0.2808,3.109756,0.2808,2.073171,0.04841379,0,0.04841379,0,0.2808,0.296875,0.2808,-0.9663086,0.2808,-0.1513672,0.2808,0.9756098,0.2808,3.292683,0.2808,1.829268,0.04841379,0,0.04841379,0
0.2835,-0.1230469,0.2835,-0.9819336,0.2835,-0.2236328,0.2835,-1.585366,0.2835,3.292683,0.2835,1.95122,0.04887931,0,0.04887931,0,0.2835,0.2939453,0.2835,-0.9570313,0.2835,-0.1523438,0.2835,1.097561,0.2835,3.04878,0.2835,1.52439,0.04887931,0,0.04887931,0
0.2862,-0.1235352,0.2862,-0.9814453,0.2862,-0.2207031,0.2862,-1.463415,0.2862,2.865854,0.2862,2.012195,0.04934483,0,0.04934483,0,0.2862,0.2924805,0.2862,-0.9604492,0.2862,-0.1508789,0.2862,1.097561,0.2862,3.170732,0.2862,1.52439,0.04934483,0,0.04934483,0
0.2889,-0.1206055,0.2889,-0.9829102,0.2889,-0.2236328,0.2889,-1.463415,0.2889,2.865854,0.2889,1.829268,0.04981034,0,0.04981034,0,0.2889,0.2895508,0.2889,-0.9633789,0.2889,-0.152832,0.2889,1.341463,0.2889,3.231707,0.2889,1.585366,0.04981034,0,0.04981034,0
0.2916,-0.1225586,0.2916,-0.984375,0.2916,-0.2236328,0.2916,-1.402439,0.2916,2.743902,0.2916,2.012195,0.05027586,0,0.05027586,0,0.2916,0.2910156,0.2916,-0.9628906,0.2916,-0.152832,0.2916,0.9756098,0.2916,3.353659,0.2916,1.52439,0.05027586,0,0.05027586,0
0.2943,-0.1259766,0.2943,-0.9790039,0.2943,-0.2211914,0.2943,-1.646341,0.2943,2.682927,0.2943,1.768293,0.05074138,0,0.05074138,0,0.2943,0.2988281,0.2943,-0.9580078,0.2943,-0.1523438,0.2943,0.9146342,0.2943,3.109756,0.2943,1.829268,0.05074138,0,0.05074138,0
0.297,-0.1254883,0.297,-0.9799805,0.297,-0.2216797,0.297,-1.646341,0.297,2.743902,0.297,1.95122,0.05120689,0,0.05120689,0,0.297,0.296875,0.297,-0.9599609,0.297,-0.1542969,0.297,1.036585,0.297,3.353659,0.297,1.829268,0.05120689,0,0.05120689,0
0.2997,-0.1235352,0.2997,-0.980957,0.2997,-0.21875,0.2997,-1.585366,0.2997,2.987805,0.2997,1.646341,0.05167241,0,0.05167241,0,0.2997,0.2924805,0.2997,-0.9609375,0.2997,-0.1508789,0.2997,1.036585,0.2997,3.170732,0.2997,1.829268,0.05167241,0,0.05167241,0
0.3024,-0.1254883,0.3024,-0.9838867,0.3024,-0.21875,0.3024,-1.402439,0.3024,2.743902,0.3024,1.768293,0.05213793,0,0.05213793,0,0.3024,0.2929688,0.3024,-0.9633789,0.3024,-0.1523438,0.3024,0.9756098,0.3024,3.292683,0.3024,1.768293,0.05213793,0,0.05213793,0
0.3051,-0.1225586,0.3051,-0.9833984,0.3051,-0.2148438,0.3051,-1.219512,0.3051,2.804878,0.3051,1.829268,0.05260345,0,0.05260345,0,0.3051,0.2983398,0.3051,-0.9604492,0.3051,-0.1538086,0.3051,1.158537,0.3051,3.292683,0.3051,1.829268,0.05260345,0,0.05260345,0
0.3078,-0.1235352,0.3078,-0.9804688,0.3078,-0.21875,0.3078,-1.341463,0.3078,2.5,0.3078,1.829268,0.05306897,0,0.05306897,0,0.3078,0.2919922,0.3078,-0.9619141,0.3078,-0.1503906,0.3078,0.8536586,0.3078,3.47561,0.3078,1.768293,0.05306897,0,0.05306897,0
0.3105,-0.1264648,0.3105,-0.9838867,0.3105,-0.2192383,0.3105,-1.463415,0.3105,2.560976,0.3105,1.95122,0.05353448,0,0.05353448,0,0.3105,0.2929688,0.3105,-0.9584961,0.3105,-0.1484375,0.3105,0.7926829,0.3105,3.109756,0.3105,1.890244,0.05353448,0,0.05353448,0
0.3132,-0.1298828,0.3132,-0.9814453,0.3132,-0.21875,0.3132,-1.158537,0.3132,2.5,0.3132,1.646341,0.054,0,0.054,0,0.3132,0.2963867,0.3132,-0.9614258,0.3132,-0.1484375,0.3132,1.036585,0.3132,3.47561,0.3132,1.829268,0.054,0,0.054,0
0.3159,-0.1313477,0.3159,-0.9799805,0.3159,-0.2177734,0.3159,-1.646341,0.3159,2.5,0.3159,1.890244,0.05446552,0,0.05446552,0,0.3159,0.2919922,0.3159,-0.9589844,0.3159,-0.1503906,0.3159,1.036585,0.3159,3.170732,0.3159,1.707317,0.05446552,0,0.05446552,0
0.3186,-0.1303711,0.3186,-0.9804688,0.3186,-0.2133789,0.3186,-1.341463,0.3186,2.621951,0.3186,1.95122,0.05493103,0,0.05493103,0,0.3186,0.2944336,0.3186,-0.9614258,0.3186,-0.1508789,0.3186,0.7317073,0.3186,3.292683,0.3186,1.829268,0.05493103,0,0.05493103,0
0.3213,-0.1303711,0.3213,-0.9819336,0.3213,-0.2124023,0.3213,-1.402439,0.3213,2.439024,0.3213,1.768293,0.05539655,0,0.05539655,0,0.3213,0.2958984,0.3213,-0.9633789,0.3213,-0.1489258,0.3213,0.9756098,0.3213,3.109756,0.3213,1.829268,0.05539655,0,0.05539655,0
0.324,-0.1269531,0.324,-0.9790039,0.324,-0.2182617,0.324,-1.768293,0.324,2.5,0.324,1.768293,0.05586207,0,0.05586207,0,0.324,0.2963867,0.324,-0.965332,0.324,-0.1484375,0.324,1.036585,0.324,3.109756,0.324,1.829268,0.05586207,0,0.05586207,0
0.3267,-0.1318359,0.3267,-0.9775391,0.3267,-0.2158203,0.3267,-1.707317,0.3267,2.439024,0.3267,1.646341,0.05632759,0,0.05632759,0,0.3267,0.2958984,0.3267,-0.9619141,0.3267,-0.1479492,0.3267,0.7926829,0.3267,3.109756,0.3267,1.646341,0.05632759,0,0.05632759,0
0.3294,-0.1264648,0.3294,-0.9794922,0.3294,-0.2148438,0.3294,-1.585366,0.3294,2.378049,0.3294,1.585366,0.0567931,0,0.0567931,0,0.3294,0.293457,0.3294,-0.965332,0.3294,-0.1464844,0.3294,0.7317073,0.3294,3.170732,0.3294,1.52439,0.0567931,0,0.0567931,0
0.3321,-0.1313477,0.3321,-0.9799805,0.3321,-0.2177734,0.3321,-1.646341,0.3321,2.439024,0.3321,1.829268,0.05725862,0,0.05725862,0,0.3321,0.2949219,0.3321,-0.9638672,0.3321,-0.1494141,0.3321,0.9756098,0.3321,3.231707,0.3321,1.707317,0.05725862,0,0.05725862,0
0.3348,-0.1264648,0.3348,-0.9775391,0.3348,-0.2148438,0.3348,-1.585366,0.3348,2.317073,0.3348,1.646341,0.05772414,0,0.05772414,0,0.3348,0.2929688,0.3348,-0.965332,0.3348,-0.1503906,0.3348,0.8536586,0.3348,3.231707,0.3348,1.646341,0.05772414,0,0.05772414,0
0.3375,-0.1274414,0.3375,-0.9765625,0.3375,-0.2138672,0.3375,-1.52439,0.3375,2.378049,0.3375,1.768293,0.05818965,0,0.05818965,0,0.3375,0.2880859,0.3375,-0.9633789,0.3375,-0.1484375,0.3375,0.9756098,0.3375,3.170732,0.3375,1.768293,0.05818965,0,0.05818965,0
0.3402,-0.1279297,0.3402,-0.9804688,0.3402,-0.2163086,0.3402,-1.463415,0.3402,2.195122,0.3402,1.707317,0.05865517,0,0.05865517,0,0.3402,0.2954102,0.3402,-0.9614258,0.3402,-0.1518555,0.3402,1.036585,0.3402,3.353659,0.3402,2.012195,0.05865517,0,0.05865517,0
0.3429,-0.128418,0.3429,-0.9804688,0.3429,-0.2182617,0.3429,-1.52439,0.3429,2.195122,0.3429,1.585366,0.05912069,0,0.05912069,0,0.3429,0.2939453,0.3429,-0.9580078,0.3429,-0.152832,0.3429,1.036585,0.3429,3.292683,0.3429,1.890244,0.05912069,0,0.05912069,0
0.3456,-0.1264648,0.3456,-0.9819336,0.3456,-0.2138672,0.3456,-1.768293,0.3456,2.439024,0.3456,2.012195,0.0595862,0,0.0595862,0,0.3456,0.2885742,0.3456,-0.9624023,0.3456,-0.1513672,0.3456,1.158537,0.3456,3.47561,0.3456,1.768293,0.0595862,0,0.0595862,0
0.3483,-0.1264648,0.3483,-0.9799805,0.3483,-0.215332,0.3483,-1.52439,0.3483,2.073171,0.3483,1.768293,0.06005172,0,0.06005172,0,0.3483,0.2885742,0.3483,-0.9609375,0.3483,-0.1489258,0.3483,0.9146342,0.3483,3.536585,0.3483,1.768293,0.06005172,0,0.06005172,0
0.351,-0.1259766,0.351,-0.9814453,0.351,-0.215332,0.351,-1.585366,0.351,2.195122,0.351,2.073171,0.06051724,0,0.06051724,0,0.351,0.2919922,0.351,-0.9594727,0.351,-0.1518555,0.351,0.9756098,0.351,3.109756,0.351,1.890244,0.06051724,0,0.06051724,0
0.3537,-0.1245117,0.3537,-0.9804688,0.3537,-0.2167969,0.3537,-1.463415,0.3537,2.073171,0.3537,1.890244,0.06098276,0,0.06098276,0,0.3537,0.2915039,0.3537,-0.9570313,0.3537,-0.1499023,0.3537,1.036585,0.3537,3.414634,0.3537,1.890244,0.06098276,0,0.06098276,0
0.3564,-0.1279297,0.3564,-0.9819336,0.3564,-0.2216797,0.3564,-1.890244,0.3564,2.256098,0.3564,1.585366,0.06144828,0,0.06144828,0,0.3564,0.2910156,0.3564,-0.9628906,0.3564,-0.1459961,0.3564,1.219512,0.3564,3.47561,0.3564,1.890244,0.06144828,0,0.06144828,0
0.3591,-0.1240234,0.3591,-0.9794922,0.3591,-0.21875,0.3591,-1.52439,0.3591,2.012195,0.3591,1.829268,0.06191379,0,0.06191379,0,0.3591,0.2929688,0.3591,-0.9638672,0.3591,-0.1469727,0.3591,1.036585,0.3591,3.170732,0.3591,1.768293,0.06191379,0,0.06191379,0
0.3618,-0.1240234,0.3618,-0.9814453,0.3618,-0.2192383,0.3618,-1.890244,0.3618,2.256098,0.3618,2.012195,0.06237931,0,0.06237931,0,0.3618,0.2861328,0.3618,-0.9628906,0.3618,-0.1499023,0.3618,0.7926829,0.3618,3.536585,0.3618,1.829268,0.06237931,0,0.06237931,0
0.3645,-0.1274414,0.3645,-0.9814453,0.3645,-0.2177734,0.3645,-2.073171,0.3645,1.829268,0.3645,1.95122,0.06284483,0,0.06284483,0,0.3645,0.284668,0.3645,-0.9624023,0.3645,-0.1503906,0.3645,0.9756098,0.3645,3.292683,0.3645,2.012195,0.06284483,0,0.06284483,0
0.3672,-0.1259766,0.3672,-0.9785156,0.3672,-0.2182617,0.3672,-1.890244,0.3672,1.707317,0.3672,2.012195,0.06331034,0,0.06331034,0,0.3672,0.28125,0.3672,-0.9584961,0.3672,-0.1508789,0.3672,0.7317073,0.3672,3.04878,0.3672,1.829268,0.06331034,0,0.06331034,0
0.3699,-0.1264648,0.3699,-0.980957,0.3699,-0.2202148,0.3699,-1.768293,0.3699,1.890244,0.3699,2.073171,0.06377586,0,0.06377586,0,0.3699,0.2871094,0.3699,-0.9575195,0.3699,-0.1499023,0.3699,0.6707317,0.3699,3.536585,0.3699,1.646341,0.06377586,0,0.06377586,0
0.3726,-0.1279297,0.3726,-0.980957,0.3726,-0.21875,0.3726,-2.012195,0.3726,2.012195,0.3726,1.707317,0.06424138,0,0.06424138,0,0.3726,0.2875977,0.3726,-0.9584961,0.3726,-0.1459961,0.3726,0.7317073,0.3726,3.47561,0.3726,1.707317,0.06424138,0,0.06424138,0
0.3753,-0.125,0.3753,-0.9790039,0.3753,-0.2177734,0.3753,-2.134146,0.3753,2.073171,0.3753,2.073171,0.06470689,0,0.06470689,0,0.3753,0.2890625,0.3753,-0.9638672,0.3753,-0.1479492,0.3753,0.9146342,0.3753,3.353659,0.3753,1.768293,0.06470689,0,0.06470689,0
0.378,-0.1235352,0.378,-0.9819336,0.378,-0.21875,0.378,-2.134146,0.378,2.134146,0.378,1.890244,0.06517241,0,0.06517241,0,0.378,0.2836914,0.378,-0.9633789,0.378,-0.1459961,0.378,0.7926829,0.378,3.109756,0.378,1.707317,0.06517241,0,0.06517241,0
0.3807,-0.1220703,0.3807,-0.9863281,0.3807,-0.2177734,0.3807,-1.585366,0.3807,1.768293,0.3807,1.768293,0.06563793,0,0.06563793,0,0.3807,0.2836914,0.3807,-0.9633789,0.3807,-0.1469727,0.3807,0.9146342,0.3807,3.47561,0.3807,1.890244,0.06563793,0,0.06563793,0
0.3834,-0.1259766,0.3834,-0.9902344,0.3834,-0.2158203,0.3834,-1.707317,0.3834,2.012195,0.3834,1.707317,0.06610344,0,0.06610344,0,0.3834,0.2856445,0.3834,-0.9619141,0.3834,-0.1469727,0.3834,0.6707317,0.3834,3.47561,0.3834,1.768293,0.06610344,0,0.06610344,0
0.3861,-0.1259766,0.3861,-0.9897461,0.3861,-0.2202148,0.3861,-1.646341,0.3861,1.95122,0.3861,1.890244,0.06656896,0,0.06656896,0,0.3861,0.2851563,0.3861,-0.9570313,0.3861,-0.1430664,0.3861,0.8536586,0.3861,3.353659,0.3861,1.829268,0.06656896,0,0.06656896,0
0.3888,-0.125,0.3888,-0.984375,0.3888,-0.2163086,0.3888,-1.890244,0.3888,1.890244,0.3888,1.646341,0.06703448,0,0.06703448,0,0.3888,0.284668,0.3888,-0.9604492,0.3888,-0.1420898,0.3888,0.8536586,0.3888,3.47561,0.3888,2.012195,0.06703448,0,0.06703448,0
0.3915,-0.1220703,0.3915,-0.9853516,0.3915,-0.2158203,0.3915,-1.585366,0.3915,2.012195,0.3915,1.829268,0.0675,0,0.0675,0,0.3915,0.2856445,0.3915,-0.9609375,0.3915,-0.1464844,0.3915,1.036585,0.3915,3.414634,0.3915,1.646341,0.0675,0,0.0675,0
0.3942,-0.1186523,0.3942,-0.9848633,0.3942,-0.2133789,0.3942,-1.768293,0.3942,2.073171,0.3942,2.012195,0.06796551,0,0.06796551,0,0.3942,0.284668,0.3942,-0.9580078,0.3942,-0.1464844,0.3942,0.8536586,0.3942,3.597561,0.3942,1.95122,0.06796551,0,0.06796551,0
0.3969,-0.1220703,0.3969,-0.9833984,0.3969,-0.2172852,0.3969,-1.402439,0.3969,2.134146,0.3969,2.195122,0.06843103,0,0.06843103,0,0.3969,0.2856445,0.3969,-0.956543,0.3969,-0.1464844,0.3969,0.8536586,0.3969,3.536585,0.3969,1.707317,0.06843103,0,0.06843103,0
0.3996,-0.1254883,0.3996,-0.9873047,0.3996,-0.2177734,0.3996,-1.341463,0.3996,2.439024,0.3996,1.768293,0.06889655,0,0.06889655,0,0.3996,0.2851563,0.3996,-0.9555664,0.3996,-0.1430664,0.3996,0.7317073,0.3996,3.292683,0.3996,1.646341,0.06889655,0,0.06889655,0
0.4023,-0.1245117,0.4023,-0.9824219,0.4023,-0.2143555,0.4023,-1.52439,0.4023,2.317073,0.4023,1.707317,0.06936207,0,0.06936207,0,0.4023,0.2871094,0.4023,-0.9570313,0.4023,-0.1425781,0.4023,0.7317073,0.4023,3.231707,0.4023,1.707317,0.06936207,0,0.06936207,0
0.405,-0.1240234,0.405,-0.9799805,0.405,-0.2119141,0.405,-1.341463,0.405,2.378049,0.405,1.890244,0.06982759,0,0.06982759,0,0.405,0.2895508,0.405,-0.9555664,0.405,-0.144043,0.405,0.9756098,0.405,3.414634,0.405,1.890244,0.06982759,0,0.06982759,0
0.4077,-0.1254883,0.4077,-0.9824219,0.4077,-0.2099609,0.4077,-1.402439,0.4077,2.378049,0.4077,1.768293,0.0702931,0,0.0702931,0,0.4077,0.2856445,0.4077,-0.9584961,0.4077,-0.1474609,0.4077,0.9756098,0.4077,3.353659,0.4077,2.012195,0.0702931,0,0.0702931,0
0.4104,-0.1259766,0.4104,-0.9853516,0.4104,-0.2128906,0.4104,-1.402439,0.4104,2.439024,0.4104,1.95122,0.07075862,0,0.07075862,0,0.4104,0.2827148,0.4104,-0.9536133,0.4104,-0.1484375,0.4104,1.097561,0.4104,3.47561,0.4104,1.95122,0.07075862,0,0.07075862,0
0.4131,-0.1264648,0.4131,-0.9785156,0.4131,-0.2133789,0.4131,-1.402439,0.4131,2.439024,0.4131,2.073171,0.07122414,0,0.07122414,0,0.4131,0.2875977,0.4131,-0.9570313,0.4131,-0.1484375,0.4131,0.8536586,0.4131,3.109756,0.4131,1.95122,0.07122414,0,0.07122414,0
0.4158,-0.1259766,0.4158,-0.9819336,0.4158,-0.2133789,0.4158,-1.341463,0.4158,2.256098,0.4158,1.768293,0.07168965,0,0.07168965,0,0.4158,0.2866211,0.4158,-0.9584961,0.4158,-0.1494141,0.4158,1.097561,0.4158,3.170732,0.4158,1.707317,0.07168965,0,0.07168965,0
0.4185,-0.1274414,0.4185,-0.984375,0.4185,-0.2143555,0.4185,-1.341463,0.4185,2.439024,0.4185,1.890244,0.07215517,0,0.07215517,0,0.4185,0.2890625,0.4185,-0.9604492,0.4185,-0.1479492,0.4185,1.280488,0.4185,2.987805,0.4185,2.012195,0.07215517,0,0.07215517,0
0.4212,-0.128418,0.4212,-0.9829102,0.4212,-0.2172852,0.4212,-1.280488,0.4212,2.317073,0.4212,1.829268,0.07262069,0,0.07262069,0,0.4212,0.2895508,0.4212,-0.9604492,0.4212,-0.1469727,0.4212,1.097561,0.4212,2.865854,0.4212,1.768293,0.07262069,0,0.07262069,0
0.4239,-0.1259766,0.4239,-0.9824219,0.4239,-0.21875,0.4239,-1.52439,0.4239,2.621951,0.4239,1.585366,0.0730862,0,0.0730862,0,0.4239,0.2900391,0.4239,-0.9560547,0.4239,-0.1508789,0.4239,1.097561,0.4239,3.231707,0.4239,2.073171,0.0730862,0,0.0730862,0
0.4266,-0.1293945,0.4266,-0.9824219,0.4266,-0.2167969,0.4266,-1.341463,0.4266,2.439024,0.4266,1.829268,0.07355172,0,0.07355172,0,0.4266,0.2905273,0.4266,-0.9599609,0.4266,-0.1464844,0.4266,1.219512,0.4266,3.353659,0.4266,2.256098,0.07355172,0,0.07355172,0
0.4293,-0.1303711,0.4293,-0.9838867,0.4293,-0.2163086,0.4293,-1.52439,0.4293,2.865854,0.4293,1.890244,0.07401724,0,0.07401724,0,0.4293,0.2910156,0.4293,-0.9624023,0.4293,-0.1474609,0.4293,1.036585,0.4293,3.04878,0.4293,2.195122,0.07401724,0,0.07401724,0
0.432,-0.1298828,0.432,-0.9804688,0.432,-0.2202148,0.432,-1.52439,0.432,2.560976,0.432,1.768293,0.07448275,0,0.07448275,0,0.432,0.2910156,0.432,-0.965332,0.432,-0.1459961,0.432,1.402439,0.432,2.865854,0.432,1.95122,0.07448275,0,0.07448275,0
0.4347,-0.1269531,0.4347,-0.9775391,0.4347,-0.2197266,0.4347,-1.585366,0.4347,2.378049,0.4347,1.646341,0.07494827,0,0.07494827,0,0.4347,0.2875977,0.4347,-0.9638672,0.4347,-0.1479492,0.4347,1.280488,0.4347,2.804878,0.4347,1.95122,0.07494827,0,0.07494827,0
0.4374,-0.121582,0.4374,-0.9790039,0.4374,-0.2128906,0.4374,-1.341463,0.4374,2.621951,0.4374,1.585366,0.07541379,0,0.07541379,0,0.4374,0.2895508,0.4374,-0.9619141,0.4374,-0.1513672,0.4374,1.402439,0.4374,3.170732,0.4374,1.768293,0.07541379,0,0.07541379,0
0.4401,-0.1274414,0.4401,-0.9814453,0.4401,-0.2163086,0.4401,-1.158537,0.4401,2.317073,0.4401,1.646341,0.07587931,0,0.07587931,0,0.4401,0.2866211,0.4401,-0.9619141,0.4401,-0.1445313,0.4401,1.158537,0.4401,3.04878,0.4401,1.829268,0.07587931,0,0.07587931,0
0.4428,-0.1230469,0.4428,-0.9819336,0.4428,-0.21875,0.4428,-1.158537,0.4428,2.317073,0.4428,1.707317,0.07634483,0,0.07634483,0,0.4428,0.2866211,0.4428,-0.9648438,0.4428,-0.1469727,0.4428,1.219512,0.4428,3.04878,0.4428,2.012195,0.07634483,0,0.07634483,0
0.4455,-0.1240234,0.4455,-0.9838867,0.4455,-0.2197266,0.4455,-1.52439,0.4455,2.5,0.4455,1.829268,0.07681035,0,0.07681035,0,0.4455,0.2880859,0.4455,-0.9677734,0.4455,-0.1489258,0.4455,1.402439,0.4455,2.743902,0.4455,2.134146,0.07681035,0,0.07681035,0
0.4482,-0.1259766,0.4482,-0.9819336,0.4482,-0.2211914,0.4482,-1.52439,0.4482,2.378049,0.4482,1.95122,0.07727586,0,0.07727586,0,0.4482,0.2910156,0.4482,-0.9667969,0.4482,-0.1459961,0.4482,1.646341,0.4482,2.865854,0.4482,2.012195,0.07727586,0,0.07727586,0
0.4509,-0.1245117,0.4509,-0.9829102,0.4509,-0.2211914,0.4509,-1.463415,0.4509,2.317073,0.4509,1.707317,0.07774138,0,0.07774138,0,0.4509,0.2919922,0.4509,-0.9682617,0.4509,-0.1479492,0.4509,1.341463,0.4509,3.109756,0.4509,2.195122,0.07774138,0,0.07774138,0
0.4536,-0.1191406,0.4536,-0.9814453,0.4536,-0.2143555,0.4536,-1.463415,0.4536,2.743902,0.4536,1.646341,0.0782069,0,0.0782069,0,0.4536,0.2866211,0.4536,-0.9667969,0.4536,-0.1499023,0.4536,1.219512,0.4536,3.04878,0.4536,2.134146,0.0782069,0,0.0782069,0
0.4563,-0.1298828,0.4563,-0.984375,0.4563,-0.2167969,0.4563,-1.52439,0.4563,2.621951,0.4563,1.707317,0.07867241,0,0.07867241,0,0.4563,0.2875977,0.4563,-0.9643555,0.4563,-0.1494141,0.4563,1.036585,0.4563,3.231707,0.4563,2.073171,0.07867241,0,0.07867241,0
0.459,-0.1235352,0.459,-0.980957,0.459,-0.2163086,0.459,-1.707317,0.459,2.682927,0.459,1.707317,0.07913793,0,0.07913793,0,0.459,0.2915039,0.459,-0.965332,0.459,-0.1499023,0.459,1.219512,0.459,3.170732,0.459,2.378049,0.07913793,0,0.07913793,0
0.4617,-0.121582,0.4617,-0.9799805,0.4617,-0.2109375,0.4617,-1.463415,0.4617,2.804878,0.4617,1.52439,0.07960345,0,0.07960345,0,0.4617,0.2910156,0.4617,-0.9658203,0.4617,-0.1503906,0.4617,1.341463,0.4617,3.170732,0.4617,2.378049,0.07960345,0,0.07960345,0
0.4644,-0.1254883,0.4644,-0.9829102,0.4644,-0.2158203,0.4644,-1.341463,0.4644,2.256098,0.4644,1.829268,0.08006896,0,0.08006896,0,0.4644,0.2944336,0.4644,-0.9584961,0.4644,-0.1469727,0.4644,1.158537,0.4644,3.353659,0.4644,2.134146,0.08006896,0,0.08006896,0
0.4671,-0.1235352,0.4671,-0.9838867,0.4671,-0.21875,0.4671,-1.52439,0.4671,2.195122,0.4671,1.646341,0.08053448,0,0.08053448,0,0.4671,0.2885742,0.4671,-0.9594727,0.4671,-0.1479492,0.4671,1.097561,0.4671,3.109756,0.4671,1.890244,0.08053448,0,0.08053448,0
0.4698,-0.1274414,0.4698,-0.9853516,0.4698,-0.2182617,0.4698,-1.585366,0.4698,2.378049,0.4698,1.341463,0.081,0,0.081,0,0.4698,0.2939453,0.4698,-0.9624023,0.4698,-0.1474609,0.4698,1.158537,0.4698,3.47561,0.4698,2.012195,0.081,0,0.081,0
0.4725,-0.1210938,0.4725,-0.9794922,0.4725,-0.2114258,0.4725,-1.707317,0.4725,2.317073,0.4725,1.768293,0.08146551,0,0.08146551,0,0.4725,0.2978516,0.4725,-0.965332,0.4725,-0.1499023,0.4725,0.9756098,0.4725,3.04878,0.4725,2.195122,0.08146551,0,0.08146551,0
0.4752,-0.1206055,0.4752,-0.9804688,0.4752,-0.2119141,0.4752,-1.402439,0.4752,2.134146,0.4752,1.890244,0.08193103,0,0.08193103,0,0.4752,0.2944336,0.4752,-0.9594727,0.4752,-0.1489258,0.4752,0.7317073,0.4752,3.109756,0.4752,2.012195,0.08193103,0,0.08193103,0
0.4779,-0.128418,0.4779,-0.9829102,0.4779,-0.2158203,0.4779,-1.402439,0.4779,2.439024,0.4779,1.768293,0.08239655,0,0.08239655,0,0.4779,0.2880859,0.4779,-0.9589844,0.4779,-0.1518555,0.4779,1.097561,0.4779,3.353659,0.4779,1.768293,0.08239655,0,0.08239655,0
0.4806,-0.1318359,0.4806,-0.9829102,0.4806,-0.2143555,0.4806,-1.52439,0.4806,2.195122,0.4806,1.890244,0.08286206,0,0.08286206,0,0.4806,0.2900391,0.4806,-0.9570313,0.4806,-0.1484375,0.4806,0.7317073,0.4806,3.170732,0.4806,1.890244,0.08286206,0,0.08286206,0
0.4833,-0.1254883,0.4833,-0.9804688,0.4833,-0.2133789,0.4833,-1.402439,0.4833,2.012195,0.4833,1.646341,0.08332758,0,0.08332758,0,0.4833,0.2944336,0.4833,-0.956543,0.4833,-0.1499023,0.4833,0.7926829,0.4833,3.353659,0.4833,2.134146,0.08332758,0,0.08332758,0
0.486,-0.1259766,0.486,-0.9780273,0.486,-0.2114258,0.486,-1.402439,0.486,1.829268,0.486,1.707317,0.0837931,0,0.0837931,0,0.486,0.2949219,0.486,-0.9604492,0.486,-0.1499023,0.486,0.6707317,0.486,3.353659,0.486,1.829268,0.0837931,0,0.0837931,0
0.4887,-0.125,0.4887,-0.9804688,0.4887,-0.2109375,0.4887,-1.463415,0.4887,1.829268,0.4887,1.890244,0.08425862,0,0.08425862,0,0.4887,0.2924805,0.4887,-0.9604492,0.4887,-0.1499023,0.4887,0.4268293,0.4887,3.292683,0.4887,1.829268,0.08425862,0,0.08425862,0
0.4914,-0.1264648,0.4914,-0.9824219,0.4914,-0.2104492,0.4914,-1.52439,0.4914,2.012195,0.4914,1.829268,0.08472414,0,0.08472414,0,0.4914,0.296875,0.4914,-0.9648438,0.4914,-0.1494141,0.4914,0.9756098,0.4914,3.414634,0.4914,1.890244,0.08472414,0,0.08472414,0
0.4941,-0.1293945,0.4941,-0.9780273,0.4941,-0.2124023,0.4941,-1.402439,0.4941,1.95122,0.4941,1.707317,0.08518966,0,0.08518966,0,0.4941,0.2949219,0.4941,-0.956543,0.4941,-0.1508789,0.4941,0.4268293,0.4941,3.353659,0.4941,1.890244,0.08518966,0,0.08518966,0
0.4968,-0.1254883,0.4968,-0.9765625,0.4968,-0.2104492,0.4968,-1.52439,0.4968,1.890244,0.4968,1.585366,0.08565517,0,0.08565517,0,0.4968,0.2915039,0.4968,-0.9570313,0.4968,-0.1538086,0.4968,0.4878049,0.4968,3.47561,0.4968,1.707317,0.08565517,0,0.08565517,0
0.4995,-0.125,0.4995,-0.9799805,0.4995,-0.2109375,0.4995,-1.585366,0.4995,1.890244,0.4995,1.646341,0.08612069,0,0.08612069,0,0.4995,0.3007813,0.4995,-0.9619141,0.4995,-0.1513672,0.4995,0.7317073,0.4995,3.536585,0.4995,1.829268,0.08612069,0,0.08612069,0
0.5022,-0.1245117,0.5022,-0.9819336,0.5022,-0.2119141,0.5022,-1.158537,0.5022,1.95122,0.5022,1.707317,0.08658621,0,0.08658621,0,0.5022,0.2939453,0.5022,-0.9589844,0.5022,-0.1494141,0.5022,0.4878049,0.5022,3.658537,0.5022,1.585366,0.08658621,0,0.08658621,0
0.5049,-0.1298828,0.5049,-0.9833984,0.5049,-0.2133789,0.5049,-1.280488,0.5049,1.95122,0.5049,1.768293,0.08705172,0,0.08705172,0,0.5049,0.2944336,0.5049,-0.9599609,0.5049,-0.1469727,0.5049,0.6707317,0.5049,3.658537,0.5049,1.646341,0.08705172,0,0.08705172,0
0.5076,-0.1269531,0.5076,-0.9775391,0.5076,-0.2138672,0.5076,-1.707317,0.5076,2.012195,0.5076,1.829268,0.08751724,0,0.08751724,0,0.5076,0.296875,0.5076,-0.9580078,0.5076,-0.1499023,0.5076,0.6097561,0.5076,4.02439,0.5076,1.95122,0.08751724,0,0.08751724,0
0.5103,-0.1254883,0.5103,-0.9799805,0.5103,-0.2099609,0.5103,-1.585366,0.5103,2.012195,0.5103,1.52439,0.08798276,0,0.08798276,0,0.5103,0.2919922,0.5103,-0.9624023,0.5103,-0.1489258,0.5103,0.7926829,0.5103,3.963415,0.5103,1.890244,0.08798276,0,0.08798276,0
0.513,-0.1269531,0.513,-0.9848633,0.513,-0.2148438,0.513,-1.402439,0.513,1.890244,0.513,1.890244,0.08844827,0,0.08844827,0,0.513,0.2973633,0.513,-0.9638672,0.513,-0.1489258,0.513,0.4878049,0.513,3.658537,0.513,2.134146,0.08844827,0,0.08844827,0
0.5157,-0.1254883,0.5157,-0.9819336,0.5157,-0.2158203,0.5157,-1.402439,0.5157,2.012195,0.5157,1.707317,0.08891379,0,0.08891379,0,0.5157,0.2939453,0.5157,-0.9638672,0.5157,-0.1484375,0.5157,0.6097561,0.5157,3.841464,0.5157,1.646341,0.08891379,0,0.08891379,0
0.5184,-0.1289063,0.5184,-0.9794922,0.5184,-0.2133789,0.5184,-1.52439,0.5184,2.134146,0.5184,1.95122,0.08937931,0,0.08937931,0,0.5184,0.2910156,0.5184,-0.9604492,0.5184,-0.144043,0.5184,0.6707317,0.5184,3.719512,0.5184,1.890244,0.08937931,0,0.08937931,0
0.5211,-0.121582,0.5211,-0.9794922,0.5211,-0.2158203,0.5211,-1.463415,0.5211,2.317073,0.5211,1.768293,0.08984482,0,0.08984482,0,0.5211,0.2919922,0.5211,-0.9609375,0.5211,-0.1479492,0.5211,0.7926829,0.5211,3.780488,0.5211,2.073171,0.08984482,0,0.08984482,0
0.5238,-0.1225586,0.5238,-0.9794922,0.5238,-0.2148438,0.5238,-1.280488,0.5238,2.256098,0.5238,1.829268,0.09031034,0,0.09031034,0,0.5238,0.293457,0.5238,-0.9648438,0.5238,-0.1479492,0.5238,0.5487805,0.5238,3.902439,0.5238,1.463415,0.09031034,0,0.09031034,0
0.5265,-0.1235352,0.5265,-0.9829102,0.5265,-0.2192383,0.5265,-1.585366,0.5265,2.560976,0.5265,1.95122,0.09077586,0,0.09077586,0,0.5265,0.2924805,0.5265,-0.9638672,0.5265,-0.1474609,0.5265,0.8536586,0.5265,3.841464,0.5265,1.95122,0.09077586,0,0.09077586,0
0.5292,-0.125,0.5292,-0.9833984,0.5292,-0.2182617,0.5292,-1.585366,0.5292,2.378049,0.5292,1.890244,0.09124137,0,0.09124137,0,0.5292,0.2895508,0.5292,-0.9658203,0.5292,-0.1479492,0.5292,0.7926829,0.5292,3.597561,0.5292,1.829268,0.09124137,0,0.09124137,0
0.5319,-0.1191406,0.5319,-0.9819336,0.5319,-0.215332,0.5319,-1.219512,0.5319,2.682927,0.5319,1.585366,0.09170689,0,0.09170689,0,0.5319,0.2924805,0.5319,-0.9628906,0.5319,-0.1469727,0.5319,1.036585,0.5319,3.47561,0.5319,1.585366,0.09170689,0,0.09170689,0
0.5346,-0.1201172,0.5346,-0.9819336,0.5346,-0.2163086,0.5346,-1.341463,0.5346,2.682927,0.5346,1.768293,0.09217241,0,0.09217241,0,0.5346,0.2919922,0.5346,-0.9609375,0.5346,-0.144043,0.5346,0.9756098,0.5346,3.414634,0.5346,1.768293,0.09217241,0,0.09217241,0
0.5373,-0.121582,0.5373,-0.9829102,0.5373,-0.2124023,0.5373,-1.341463,0.5373,2.378049,0.5373,1.829268,0.09263793,0,0.09263793,0,0.5373,0.2905273,0.5373,-0.9619141,0.5373,-0.1464844,0.5373,1.158537,0.5373,3.47561,0.5373,1.646341,0.09263793,0,0.09263793,0
0.54,-0.1225586,0.54,-0.9907227,0.54,-0.2163086,0.54,-1.280488,0.54,2.682927,0.54,2.012195,0.09310345,0,0.09310345,0,0.54,0.2900391,0.54,-0.9604492,0.54,-0.1435547,0.54,1.097561,0.54,3.47561,0.54,1.829268,0.09310345,0,0.09310345,0
0.5427,-0.1259766,0.5427,-0.9838867,0.5427,-0.2163086,0.5427,-1.036585,0.5427,2.865854,0.5427,1.829268,0.09356897,0,0.09356897,0,0.5427,0.2929688,0.5427,-0.9589844,0.5427,-0.1459961,0.5427,0.8536586,0.5427,3.414634,0.5427,1.829268,0.09356897,0,0.09356897,0
0.5454,-0.1191406,0.5454,-0.9814453,0.5454,-0.2089844,0.5454,-1.219512,0.5454,2.926829,0.5454,1.95122,0.09403448,0,0.09403448,0,0.5454,0.2895508,0.5454,-0.9599609,0.5454,-0.1474609,0.5454,0.9146342,0.5454,3.414634,0.5454,2.012195,0.09403448,0,0.09403448,0
0.5481,-0.1181641,0.5481,-0.9829102,0.5481,-0.2133789,0.5481,-1.402439,0.5481,2.682927,0.5481,1.890244,0.0945,1.258869E-05,0.0945,0,0.5481,0.2871094,0.5481,-0.9594727,0.5481,-0.1450195,0.5481,0.9756098,0.5481,3.170732,0.5481,1.707317,0.0945,0,0.0945,0
0.5508,-0.1308594,0.5508,-0.9892578,0.5508,-0.2182617,0.5508,-1.280488,0.5508,2.865854,0.5508,1.829268,0.09496552,1.829557E-05,0.09496552,0,0.5508,0.2871094,0.5508,-0.9604492,0.5508,-0.1469727,0.5508,0.7317073,0.5508,3.414634,0.5508,1.95122,0.09496552,0,0.09496552,0
0.5535,-0.1279297,0.5535,-0.9829102,0.5535,-0.215332,0.5535,-1.463415,0.5535,2.926829,0.5535,1.829268,0.09543103,1.795987E-05,0.09543103,0,0.5535,0.2880859,0.5535,-0.9624023,0.5535,-0.1450195,0.5535,0.7317073,0.5535,3.353659,0.5535,1.768293,0.09543103,0,0.09543103,0
0.5562,-0.1206055,0.5562,-0.9780273,0.5562,-0.2045898,0.5562,-1.158537,0.5562,2.987805,0.5562,1.707317,0.09589655,1.863127E-05,0.09589655,0,0.5562,0.2929688,0.5562,-0.9619141,0.5562,-0.1489258,0.5562,0.8536586,0.5562,3.04878,0.5562,1.890244,0.09589655,0,0.09589655,0
0.5589,-0.1235352,0.5589,-0.980957,0.5589,-0.2080078,0.5589,-1.402439,0.5589,2.743902,0.5589,1.707317,0.09636207,2.064546E-05,0.09636207,0,0.5589,0.2871094,0.5589,-0.9614258,0.5589,-0.144043,0.5589,0.7926829,0.5589,3.597561,0.5589,1.890244,0.09636207,0,0.09636207,0
0.5616,-0.1259766,0.5616,-0.980957,0.5616,-0.2138672,0.5616,-0.9756098,0.5616,2.926829,0.5616,1.890244,0.09682758,2.265965E-05,0.09682758,0,0.5616,0.2900391,0.5616,-0.9633789,0.5616,-0.1459961,0.5616,0.7926829,0.5616,3.414634,0.5616,1.890244,0.09682758,0,0.09682758,0
0.5643,-0.1269531,0.5643,-0.9819336,0.5643,-0.2080078,0.5643,-1.097561,0.5643,2.926829,0.5643,2.134146,0.0972931,2.333104E-05,0.0972931,0,0.5643,0.2875977,0.5643,-0.9643555,0.5643,-0.1469727,0.5643,0.7317073,0.5643,3.109756,0.5643,2.134146,0.0972931,0,0.0972931,0
0.567,-0.1225586,0.567,-0.9785156,0.567,-0.2089844,0.567,-1.036585,0.567,2.865854,0.567,1.52439,0.09775862,2.299535E-05,0.09775862,0,0.567,0.2900391,0.567,-0.9584961,0.567,-0.1469727,0.567,0.6097561,0.567,3.109756,0.567,1.768293,0.09775862,0,0.09775862,0
0.5697,-0.1240234,0.5697,-0.9829102,0.5697,-0.2094727,0.5697,-0.9146342,0.5697,2.621951,0.5697,1.707317,0.09822413,2.299535E-05,0.09822413,0,0.5697,0.2905273,0.5697,-0.956543,0.5697,-0.1425781,0.5697,0.6097561,0.5697,2.987805,0.5697,1.768293,0.09822413,0,0.09822413,0
0.5724,-0.1181641,0.5724,-0.9829102,0.5724,-0.2119141,0.5724,-1.280488,0.5724,2.804878,0.5724,1.890244,0.09868965,2.265965E-05,0.09868965,0,0.5724,0.2885742,0.5724,-0.9589844,0.5724,-0.1445313,0.5724,0.4878049,0.5724,3.353659,0.5724,1.95122,0.09868965,0,0.09868965,0
0.5751,-0.1225586,0.5751,-0.9794922,0.5751,-0.2099609,0.5751,-1.280488,0.5751,2.743902,0.5751,1.707317,0.09915517,2.265965E-05,0.09915517,0,0.5751,0.2890625,0.5751,-0.956543,0.5751,-0.1445313,0.5751,0.2439024,0.5751,3.170732,0.5751,2.012195,0.09915517,0,0.09915517,0
0.5778,-0.1240234,0.5778,-0.980957,0.5778,-0.2109375,0.5778,-1.097561,0.5778,2.560976,0.5778,1.768293,0.09962068,2.131685E-05,0.09962068,0,0.5778,0.2900391,0.5778,-0.9545898,0.5778,-0.1464844,0.5778,0.2439024,0.5778,3.231707,0.5778,1.829268,0.09962068,0,0.09962068,0
0.5805,-0.1201172,0.5805,-0.9790039,0.5805,-0.2114258,0.5805,-1.463415,0.5805,2.682927,0.5805,1.707317,0.1000862,2.064546E-05,0.1000862,0,0.5805,0.2875977,0.5805,-0.9584961,0.5805,-0.1411133,0.5805,0.2439024,0.5805,3.170732,0.5805,1.646341,0.1000862,0,0.1000862,0
0.5832,-0.1235352,0.5832,-0.9790039,0.5832,-0.2124023,0.5832,-1.463415,0.5832,2.439024,0.5832,1.768293,0.1005517,2.131685E-05,0.1005517,0,0.5832,0.2905273,0.5832,-0.9594727,0.5832,-0.1430664,0.5832,0.4268293,0.5832,2.987805,0.5832,1.768293,0.1005517,0,0.1005517,0
0.5859,-0.1206055,0.5859,-0.9790039,0.5859,-0.2128906,0.5859,-1.280488,0.5859,2.560976,0.5859,1.707317,0.1010172,2.232395E-05,0.1010172,0,0.5859,0.2905273,0.5859,-0.9570313,0.5859,-0.1494141,0.5859,0.2439024,0.5859,3.414634,0.5859,1.646341,0.1010172,0,0.1010172,0
0.5886,-0.121582,0.5886,-0.9790039,0.5886,-0.2114258,0.5886,-1.402439,0.5886,2.439024,0.5886,1.768293,0.1014828,2.198825E-05,0.1014828,0,0.5886,0.2890625,0.5886,-0.9560547,0.5886,-0.1459961,0.5886,-0.1829268,0.5886,3.414634,0.5886,1.707317,0.1014828,0,0.1014828,0
0.5913,-0.1201172,0.5913,-0.980957,0.5913,-0.2124023,0.5913,-1.646341,0.5913,2.317073,0.5913,1.646341,0.1019483,2.165255E-05,0.1019483,0,0.5913,0.2915039,0.5913,-0.9575195,0.5913,-0.1464844,0.5913,-0.1219512,0.5913,3.414634,0.5913,1.707317,0.1019483,0,0.1019483,0
0.594,-0.121582,0.594,-0.9775391,0.594,-0.2104492,0.594,-1.707317,0.594,2.134146,0.594,2.073171,0.1024138,2.064546E-05,0.1024138,0,0.594,0.2915039,0.594,-0.9614258,0.594,-0.1450195,0.594,-0.3658537,0.594,3.597561,0.594,1.341463,0.1024138,0,0.1024138,0
0.5967,-0.1240234,0.5967,-0.9804688,0.5967,-0.2114258,0.5967,-1.768293,0.5967,2.317073,0.5967,1.890244,0.1028793,2.064546E-05,0.1028793,0,0.5967,0.2949219,0.5967,-0.9560547,0.5967,-0.1479492,0.5967,-0.1219512,0.5967,3.658537,0.5967,1.585366,0.1028793,0,0.1028793,0
0.5994,-0.1235352,0.5994,-0.9824219,0.5994,-0.2119141,0.5994,-1.585366,0.5994,2.317073,0.5994,1.890244,0.1033448,2.198825E-05,0.1033448,0,0.5994,0.2895508,0.5994,-0.9575195,0.5994,-0.1450195,0.5994,-0.6097561,0.5994,3.231707,0.5994,1.707317,0.1033448,0,0.1033448,0
0.6021,-0.1240234,0.6021,-0.9790039,0.6021,-0.2158203,0.6021,-1.707317,0.6021,2.012195,0.6021,2.317073,0.1038103,2.333104E-05,0.1038103,0,0.6021,0.2895508,0.6021,-0.9580078,0.6021,-0.1455078,0.6021,-0.6097561,0.6021,3.414634,0.6021,1.585366,0.1038103,0,0.1038103,0
0.6048,-0.1225586,0.6048,-0.9770508,0.6048,-0.2133789,0.6048,-1.646341,0.6048,2.073171,0.6048,2.073171,0.1042759,2.265965E-05,0.1042759,0,0.6048,0.2944336,0.6048,-0.9570313,0.6048,-0.140625,0.6048,-0.1219512,0.6048,3.353659,0.6048,1.707317,0.1042759,0,0.1042759,0
0.6075,-0.1240234,0.6075,-0.9775391,0.6075,-0.2119141,0.6075,-1.768293,0.6075,2.195122,0.6075,1.95122,0.1047414,2.265965E-05,0.1047414,0,0.6075,0.2998047,0.6075,-0.9619141,0.6075,-0.1411133,0.6075,-0.3048781,0.6075,3.47561,0.6075,1.707317,0.1047414,0,0.1047414,0
0.6102,-0.1191406,0.6102,-0.9790039,0.6102,-0.2070313,0.6102,-1.585366,0.6102,2.5,0.6102,1.890244,0.1052069,2.333104E-05,0.1052069,0,0.6102,0.2910156,0.6102,-0.9575195,0.6102,-0.1435547,0.6102,-0.4268293,0.6102,3.47561,0.6102,1.585366,0.1052069,0,0.1052069,0
0.6129,-0.121582,0.6129,-0.9775391,0.6129,-0.2099609,0.6129,-1.707317,0.6129,2.317073,0.6129,2.012195,0.1056724,2.450599E-05,0.1056724,0,0.6129,0.2900391,0.6129,-0.9575195,0.6129,-0.1455078,0.6129,0,0.6129,3.353659,0.6129,1.707317,0.1056724,0,0.1056724,0
0.6156,-0.1245117,0.6156,-0.9790039,0.6156,-0.2143555,0.6156,-1.768293,0.6156,2.560976,0.6156,1.95122,0.1061379,2.467384E-05,0.1061379,0,0.6156,0.2954102,0.6156,-0.965332,0.6156,-0.1469727,0.6156,0.1829268,0.6156,3.536585,0.6156,1.646341,0.1061379,0,0.1061379,0
0.6183,-0.1240234,0.6183,-0.9794922,0.6183,-0.2114258,0.6183,-1.890244,0.6183,2.560976,0.6183,1.829268,0.1066034,2.433814E-05,0.1066034,0,0.6183,0.296875,0.6183,-0.9628906,0.6183,-0.1459961,0.6183,0.2439024,0.6183,3.536585,0.6183,2.073171,0.1066034,0,0.1066034,0
0.621,-0.1279297,0.621,-0.980957,0.621,-0.2094727,0.621,-1.95122,0.621,2.439024,0.621,1.890244,0.107069,2.333104E-05,0.107069,0,0.621,0.2890625,0.621,-0.9633789,0.621,-0.1435547,0.621,0.06097561,0.621,3.292683,0.621,1.890244,0.107069,0,0.107069,0
0.6237,-0.1264648,0.6237,-0.9750977,0.6237,-0.2099609,0.6237,-1.768293,0.6237,2.378049,0.6237,2.012195,0.1075345,2.232395E-05,0.1075345,0,0.6237,0.2915039,0.6237,-0.9614258,0.6237,-0.1489258,0.6237,0.06097561,0.6237,3.658537,0.6237,1.707317,0.1075345,0,0.1075345,0
0.6264,-0.1259766,0.6264,-0.9746094,0.6264,-0.2075195,0.6264,-1.95122,0.6264,2.5,0.6264,2.134146,0.108,2.333104E-05,0.108,0,0.6264,0.2939453,0.6264,-0.9628906,0.6264,-0.1474609,0.6264,0.06097561,0.6264,3.292683,0.6264,2.073171,0.108,1.05745E-05,0.108,0
0.6291,-0.1230469,0.6291,-0.9829102,0.6291,-0.2070313,0.6291,-1.707317,0.6291,2.317073,0.6291,2.134146,0.1084655,2.165255E-05,0.1084655,0,0.6291,0.2861328,0.6291,-0.9604492,0.6291,-0.1459961,0.6291,0.4878049,0.6291,3.658537,0.6291,2.073171,0.1084655,1.527428E-05,0.1084655,0
0.6318,-0.1230469,0.6318,-0.9819336,0.6318,-0.2099609,0.6318,-1.829268,0.6318,2.439024,0.6318,1.768293,0.108931,1.997406E-05,0.108931,0,0.6318,0.2861328,0.6318,-0.9697266,0.6318,-0.1425781,0.6318,0.4268293,0.6318,3.47561,0.6318,1.829268,0.108931,1.527428E-05,0.108931,0
0.6345,-0.1259766,0.6345,-0.9814453,0.6345,-0.2084961,0.6345,-1.95122,0.6345,2.682927,0.6345,1.95122,0.1093965,1.863127E-05,0.1093965,0,0.6345,0.293457,0.6345,-0.9667969,0.6345,-0.1445313,0.6345,0.6097561,0.6345,3.780488,0.6345,2.195122,0.1093965,1.460288E-05,0.1093965,0
0.6372,-0.1254883,0.6372,-0.9829102,0.6372,-0.2124023,0.6372,-1.768293,0.6372,2.621951,0.6372,2.134146,0.1098621,1.930266E-05,0.1098621,0,0.6372,0.2875977,0.6372,-0.9663086,0.6372,-0.1450195,0.6372,0.7317073,0.6372,3.597561,0.6372,2.012195,0.1098621,1.326009E-05,0.1098621,0
0.6399,-0.128418,0.6399,-0.9838867,0.6399,-0.2163086,0.6399,-1.585366,0.6399,2.682927,0.6399,1.768293,0.1103276,2.131685E-05,0.1103276,0,0.6399,0.2895508,0.6399,-0.9667969,0.6399,-0.1450195,0.6399,0.7317073,0.6399,3.841464,0.6399,1.890244,0.1103276,1.292439E-05,0.1103276,0
0.6426,-0.1254883,0.6426,-0.980957,0.6426,-0.2119141,0.6426,-1.829268,0.6426,2.865854,0.6426,1.95122,0.1107931,2.333104E-05,0.1107931,0,0.6426,0.2880859,0.6426,-0.9663086,0.6426,-0.1420898,0.6426,0.4268293,0.6426,3.841464,0.6426,1.95122,0.1107931,1.376364E-05,0.1107931,0
0.6453,-0.1240234,0.6453,-0.9824219,0.6453,-0.2143555,0.6453,-1.768293,0.6453,3.109756,0.6453,2.073171,0.1112586,2.333104E-05,0.1112586,0,0.6453,0.2944336,0.6453,-0.965332,0.6453,-0.1420898,0.6453,0.4878049,0.6453,3.597561,0.6453,2.012195,0.1112586,1.309224E-05,0.1112586,0
0.648,-0.125,0.648,-0.9838867,0.648,-0.2104492,0.648,-1.707317,0.648,2.865854,0.648,2.012195,0.1117241,2.131685E-05,0.1117241,0,0.648,0.2895508,0.648,-0.9667969,0.648,-0.1401367,0.648,0.6097561,0.648,3.414634,0.648,1.829268,0.1117241,1.258869E-05,0.1117241,0
0.6507,-0.1289063,0.6507,-0.9829102,0.6507,-0.2119141,0.6507,-1.768293,0.6507,3.170732,0.6507,1.95122,0.1121897,2.030976E-05,0.1121897,0,0.6507,0.2875977,0.6507,-0.9633789,0.6507,-0.1425781,0.6507,0.7317073,0.6507,3.414634,0.6507,1.95122,0.1121897,1.19173E-05,0.1121897,0
0.6534,-0.1308594,0.6534,-0.9799805,0.6534,-0.2099609,0.6534,-1.890244,0.6534,3.231707,0.6534,2.195122,0.1126552,2.18204E-05,0.1126552,0,0.6534,0.2905273,0.6534,-0.9628906,0.6534,-0.1391602,0.6534,0.5487805,0.6534,3.47561,0.6534,2.073171,0.1126552,1.05745E-05,0.1126552,0
0.6561,-0.1264648,0.6561,-0.9794922,0.6561,-0.2133789,0.6561,-1.768293,0.6561,3.231707,0.6561,1.95122,0.1131207,2.316319E-05,0.1131207,0,0.6561,0.2919922,0.6561,-0.965332,0.6561,-0.1352539,0.6561,0.8536586,0.6561,3.780488,0.6561,1.890244,0.1131207,1.15816E-05,0.1131207,0
0.6588,-0.1259766,0.6588,-0.9785156,0.6588,-0.2109375,0.6588,-1.890244,0.6588,3.292683,0.6588,2.317073,0.1135862,2.265965E-05,0.1135862,0,0.6588,0.2919922,0.6588,-0.9628906,0.6588,-0.1318359,0.6588,1.219512,0.6588,3.353659,0.6588,2.256098,0.1135862,1.443504E-05,0.1135862,0
0.6615,-0.1240234,0.6615,-0.9799805,0.6615,-0.2114258,0.6615,-1.95122,0.6615,3.536585,0.6615,2.134146,0.1140517,2.1149E-05,0.1140517,0,0.6615,0.2915039,0.6615,-0.9663086,0.6615,-0.1333008,0.6615,1.280488,0.6615,3.170732,0.6615,2.195122,0.1140517,1.712062E-05,0.1140517,0
0.6642,-0.1206055,0.6642,-0.9799805,0.6642,-0.2114258,0.6642,-1.95122,0.6642,3.292683,0.6642,2.256098,0.1145172,2.098116E-05,0.1145172,0,0.6642,0.2895508,0.6642,-0.9648438,0.6642,-0.1298828,0.6642,1.219512,0.6642,3.231707,0.6642,2.073171,0.1145172,1.728847E-05,0.1145172,0
0.6669,-0.1230469,0.6669,-0.9780273,0.6669,-0.2109375,0.6669,-1.646341,0.6669,3.414634,0.6669,2.012195,0.1149828,2.18204E-05,0.1149828,0,0.6669,0.2890625,0.6669,-0.9624023,0.6669,-0.1333008,0.6669,1.280488,0.6669,3.47561,0.6669,1.768293,0.1149828,1.644922E-05,0.1149828,0
0.6696,-0.125,0.6696,-0.9804688,0.6696,-0.2080078,0.6696,-2.073171,0.6696,3.353659,0.6696,1.890244,0.1154483,2.198825E-05,0.1154483,0,0.6696,0.2895508,0.6696,-0.9643555,0.6696,-0.1357422,0.6696,1.097561,0.6696,3.170732,0.6696,1.95122,0.1154483,1.661708E-05,0.1154483,0
0.6723,-0.1289063,0.6723,-0.980957,0.6723,-0.2114258,0.6723,-2.012195,0.6723,3.353659,0.6723,2.012195,0.1159138,2.198825E-05,0.1159138,0,0.6723,0.2905273,0.6723,-0.9663086,0.6723,-0.1386719,0.6723,0.9146342,0.6723,3.04878,0.6723,1.829268,0.1159138,1.695277E-05,0.1159138,0
0.675,-0.1254883,0.675,-0.9819336,0.675,-0.2124023,0.675,-2.134146,0.675,3.231707,0.675,1.95122,0.1163793,2.18204E-05,0.1163793,0,0.675,0.2905273,0.675,-0.9677734,0.675,-0.1376953,0.675,1.219512,0.675,3.04878,0.675,1.95122,0.1163793,1.544213E-05,0.1163793,0
0.6777,-0.1269531,0.6777,-0.9785156,0.6777,-0.2138672,0.6777,-2.256098,0.6777,3.109756,0.6777,2.012195,0.1168448,2.232395E-05,0.1168448,0,0.6777,0.2861328,0.6777,-0.9648438,0.6777,-0.1381836,0.6777,1.280488,0.6777,3.170732,0.6777,2.012195,0.1168448,1.326009E-05,0.1168448,0
0.6804,-0.1274414,0.6804,-0.9814453,0.6804,-0.2089844,0.6804,-2.378049,0.6804,2.987805,0.6804,2.012195,0.1173103,2.265965E-05,0.1173103,0,0.6804,0.2841797,0.6804,-0.9594727,0.6804,-0.137207,0.6804,0.8536586,0.6804,3.353659,0.6804,2.073171,0.1173103,1.258869E-05,0.1173103,0
0.6831,-0.1230469,0.6831,-0.9819336,0.6831,-0.2109375,0.6831,-2.317073,0.6831,3.231707,0.6831,2.134146,0.1177759,2.333104E-05,0.1177759,0,0.6831,0.2856445,0.6831,-0.9677734,0.6831,-0.1401367,0.6831,0.9146342,0.6831,3.231707,0.6831,1.768293,0.1177759,1.292439E-05,0.1177759,0
0.6858,-0.121582,0.6858,-0.9819336,0.6858,-0.2080078,0.6858,-2.378049,0.6858,3.04878,0.6858,2.256098,0.1182414,2.333104E-05,0.1182414,0,0.6858,0.2861328,0.6858,-0.9663086,0.6858,-0.1391602,0.6858,0.9146342,0.6858,3.353659,0.6858,1.707317,0.1182414,1.225299E-05,0.1182414,0
0.6885,-0.1293945,0.6885,-0.9829102,0.6885,-0.2114258,0.6885,-2.439024,0.6885,2.621951,0.6885,2.134146,0.1187069,2.316319E-05,0.1187069,0,0.6885,0.2861328,0.6885,-0.96875,0.6885,-0.1381836,0.6885,0.6707317,0.6885,3.414634,0.6885,1.585366,0.1187069,1.19173E-05,0.1187069,0
0.6912,-0.128418,0.6912,-0.9824219,0.6912,-0.2104492,0.6912,-2.621951,0.6912,2.439024,0.6912,1.890244,0.1191724,2.265965E-05,0.1191724,0,0.6912,0.2861328,0.6912,-0.9697266,0.6912,-0.1401367,0.6912,0.3658537,0.6912,3.231707,0.6912,2.073171,0.1191724,1.19173E-05,0.1191724,0
0.6939,-0.1254883,0.6939,-0.9829102,0.6939,-0.2089844,0.6939,-2.5,0.6939,2.378049,0.6939,1.95122,0.1196379,2.333104E-05,0.1196379,0,0.6939,0.2944336,0.6939,-0.9692383,0.6939,-0.1445313,0.6939,0.4268293,0.6939,3.353659,0.6939,1.585366,0.1196379,1.258869E-05,0.1196379,0
0.6966,-0.125,0.6966,-0.9858398,0.6966,-0.2094727,0.6966,-2.195122,0.6966,2.439024,0.6966,2.134146,0.1201034,2.333104E-05,0.1201034,0,0.6966,0.2944336,0.6966,-0.9638672,0.6966,-0.1464844,0.6966,0.4268293,0.6966,3.292683,0.6966,1.646341,0.1201034,1.19173E-05,0.1201034,0
0.6993,-0.121582,0.6993,-0.9882813,0.6993,-0.2045898,0.6993,-2.317073,0.6993,2.621951,0.6993,2.012195,0.120569,2.333104E-05,0.120569,0,0.6993,0.2890625,0.6993,-0.9648438,0.6993,-0.1455078,0.6993,0.2439024,0.6993,3.231707,0.6993,1.585366,0.120569,1.12459E-05,0.120569,0
0.702,-0.1240234,0.702,-0.9863281,0.702,-0.2026367,0.702,-2.134146,0.702,2.439024,0.702,1.890244,0.1210345,2.165255E-05,0.1210345,0,0.702,0.2885742,0.702,-0.96875,0.702,-0.1445313,0.702,0.2439024,0.702,3.414634,0.702,1.585366,0.1210345,1.19173E-05,0.1210345,0
0.7047,-0.1264648,0.7047,-0.9882813,0.7047,-0.2016602,0.7047,-2.134146,0.7047,2.5,0.7047,2.134146,0.1215,1.963836E-05,0.1215,-1.795987E-05,0.7047,0.284668,0.7047,-0.9731445,0.7047,-0.1435547,0.7047,0.2439024,0.7047,3.47561,0.7047,1.646341,0.1215,1.359579E-05,0.1215,0
0.7074,-0.1264648,0.7074,-0.9907227,0.7074,-0.2036133,0.7074,-1.829268,0.7074,2.317073,0.7074,1.829268,0.1219655,1.863127E-05,0.1219655,-1.292439E-05,0.7074,0.2875977,0.7074,-0.9643555,0.7074,-0.1450195,0.7074,-0.06097561,0.7074,3.292683,0.7074,1.52439,0.1219655,1.292439E-05,0.1219655,0
0.7101,-0.1289063,0.7101,-0.9858398,0.7101,-0.2021484,0.7101,-2.073171,0.7101,2.5,0.7101,1.768293,0.122431,1.963836E-05,0.122431,-1.309224E-05,0.7101,0.2856445,0.7101,-0.9638672,0.7101,-0.1489258,0.7101,-0.06097561,0.7101,3.597561,0.7101,1.890244,0.122431,1.19173E-05,0.122431,0
0.7128,-0.1298828,0.7128,-0.9907227,0.7128,-0.2006836,0.7128,-2.195122,0.7128,2.682927,0.7128,1.890244,0.1228966,2.131685E-05,0.1228966,-1.292439E-05,0.7128,0.2866211,0.7128,-0.9638672,0.7128,-0.1450195,0.7128,-0.2439024,0.7128,3.963415,0.7128,1.646341,0.1228966,1.15816E-05,0.1228966,0
0.7155,-0.1293945,0.7155,-0.9902344,0.7155,-0.1987305,0.7155,-1.768293,0.7155,2.682927,0.7155,1.890244,0.1233621,2.21561E-05,0.1233621,-1.12459E-05,0.7155,0.2861328,0.7155,-0.9594727,0.7155,-0.1430664,0.7155,-0.4268293,0.7155,3.597561,0.7155,1.768293,0.1233621,1.12459E-05,0.1233621,0
0.7182,-0.1259766,0.7182,-0.9912109,0.7182,-0.1982422,0.7182,-1.646341,0.7182,2.439024,0.7182,1.768293,0.1238276,2.265965E-05,0.1238276,-1.09102E-05,0.7182,0.2910156,0.7182,-0.9633789,0.7182,-0.1376953,0.7182,-0.3048781,0.7182,3.780488,0.7182,1.768293,0.1238276,1.02388E-05,0.1238276,0
0.7209,-0.1269531,0.7209,-0.9897461,0.7209,-0.199707,0.7209,-1.890244,0.7209,2.987805,0.7209,2.012195,0.1242931,2.198825E-05,0.1242931,-1.174945E-05,0.7209,0.2924805,0.7209,-0.9658203,0.7209,-0.1391602,0.7209,0.1829268,0.7209,3.841464,0.7209,1.768293,0.1242931,1.05745E-05,0.1242931,0
0.7236,-0.1240234,0.7236,-0.9853516,0.7236,-0.203125,0.7236,-1.585366,0.7236,2.865854,0.7236,1.829268,0.1247586,1.997406E-05,0.1247586,-1.15816E-05,0.7236,0.2890625,0.7236,-0.9677734,0.7236,-0.144043,0.7236,0.1219512,0.7236,3.719512,0.7236,1.585366,0.1247586,1.05745E-05,0.1247586,0
0.7263,-0.1230469,0.7263,-0.9853516,0.7263,-0.199707,0.7263,-1.585366,0.7263,2.682927,0.7263,1.585366,0.1252241,2.030976E-05,0.1252241,-1.09102E-05,0.7263,0.2939453,0.7263,-0.9711914,0.7263,-0.1411133,0.7263,0.1219512,0.7263,3.780488,0.7263,1.585366,0.1252241,9.903105E-06,0.1252241,0
0.729,-0.1220703,0.729,-0.9868164,0.729,-0.1987305,0.729,-1.52439,0.729,2.926829,0.729,1.646341,0.1256897,2.232395E-05,0.1256897,-1.09102E-05,0.729,0.2895508,0.729,-0.9614258,0.729,-0.140625,0.729,-0.1219512,0.729,3.597561,0.729,1.463415,0.1256897,1.09102E-05,0.1256897,0
0.7317,-0.1245117,0.7317,-0.9858398,0.7317,-0.1967773,0.7317,-1.707317,0.7317,2.987805,0.7317,1.829268,0.1261552,2.165255E-05,0.1261552,-1.15816E-05,0.7317,0.2827148,0.7317,-0.9643555,0.7317,-0.1430664,0.7317,-0.2439024,0.7317,3.47561,0.7317,1.646341,0.1261552,1.258869E-05,0.1261552,0
0.7344,-0.1230469,0.7344,-0.9868164,0.7344,-0.1977539,0.7344,-1.402439,0.7344,2.743902,0.7344,1.585366,0.1266207,1.930266E-05,0.1266207,-1.15816E-05,0.7344,0.2885742,0.7344,-0.9697266,0.7344,-0.1411133,0.7344,0.1829268,0.7344,3.658537,0.7344,1.829268,0.1266207,1.225299E-05,0.1266207,0
0.7371,-0.1230469,0.7371,-0.9848633,0.7371,-0.1987305,0.7371,-1.341463,0.7371,2.804878,0.7371,1.341463,0.1270862,1.863127E-05,0.1270862,-1.15816E-05,0.7371,0.2963867,0.7371,-0.965332,0.7371,-0.1420898,0.7371,0,0.7371,3.841464,0.7371,1.829268,0.1270862,1.05745E-05,0.1270862,0
0.7398,-0.1245117,0.7398,-0.984375,0.7398,-0.1962891,0.7398,-1.646341,0.7398,2.865854,0.7398,1.463415,0.1275517,2.064546E-05,0.1275517,-1.225299E-05,0.7398,0.2885742,0.7398,-0.9667969,0.7398,-0.144043,0.7398,0,0.7398,3.597561,0.7398,1.52439,0.1275517,9.231709E-06,0.1275517,0
0.7425,-0.1225586,0.7425,-0.984375,0.7425,-0.1987305,0.7425,-1.52439,0.7425,2.926829,0.7425,1.707317,0.1280172,2.265965E-05,0.1280172,-1.225299E-05,0.7425,0.2905273,0.7425,-0.9658203,0.7425,-0.1430664,0.7425,0.1829268,0.7425,3.536585,0.7425,1.768293,0.1280172,8.89601E-06,0.1280172,0
0.7452,-0.1293945,0.7452,-0.9819336,0.7452,-0.2016602,0.7452,-1.646341,0.7452,2.987805,0.7452,1.768293,0.1284828,2.333104E-05,0.1284828,-1.12459E-05,0.7452,0.2954102,0.7452,-0.9614258,0.7452,-0.1416016,0.7452,0.4878049,0.7452,3.414634,0.7452,1.95122,0.1284828,9.231709E-06,0.1284828,0
0.7479,-0.1245117,0.7479,-0.9858398,0.7479,-0.2021484,0.7479,-1.463415,0.7479,2.987805,0.7479,1.890244,0.1289483,2.265965E-05,0.1289483,-1.02388E-05,0.7479,0.2871094,0.7479,-0.9604492,0.7479,-0.1386719,0.7479,0.4268293,0.7479,3.658537,0.7479,1.646341,0.1289483,9.903105E-06,0.1289483,0
0.7506,-0.1210938,0.7506,-0.9838867,0.7506,-0.203125,0.7506,-1.463415,0.7506,3.109756,0.7506,1.890244,0.1294138,2.299535E-05,0.1294138,-9.735256E-06,0.7506,0.2885742,0.7506,-0.9648438,0.7506,-0.1411133,0.7506,0.8536586,0.7506,3.536585,0.7506,1.829268,0.1294138,1.02388E-05,0.1294138,0
0.7533,-0.1230469,0.7533,-0.9848633,0.7533,-0.2050781,0.7533,-1.402439,0.7533,2.926829,0.7533,1.829268,0.1298793,2.400244E-05,0.1298793,-9.567407E-06,0.7533,0.2866211,0.7533,-0.9633789,0.7533,-0.1357422,0.7533,0.4878049,0.7533,3.353659,0.7533,1.890244,0.1298793,1.05745E-05,0.1298793,0
0.756,-0.1264648,0.756,-0.984375,0.756,-0.2055664,0.756,-1.585366,0.756,2.865854,0.756,1.829268,0.1303448,2.484169E-05,0.1303448,-1.02388E-05,0.756,0.2871094,0.756,-0.9663086,0.756,-0.1386719,0.756,0.6707317,0.756,3.536585,0.756,2.012195,0.1303448,1.12459E-05,0.1303448,0
0.7587,-0.121582,0.7587,-0.9819336,0.7587,-0.2060547,0.7587,-1.52439,0.7587,2.987805,0.7587,1.95122,0.1308103,2.366674E-05,0.1308103,-1.040665E-05,0.7587,0.2929688,0.7587,-0.9638672,0.7587,-0.1362305,0.7587,0.7926829,0.7587,3.414634,0.7587,2.012195,0.1308103,1.12459E-05,0.1308103,0
0.7614,-0.1259766,0.7614,-0.980957,0.7614,-0.2070313,0.7614,-1.341463,0.7614,2.804878,0.7614,2.073171,0.1312759,2.131685E-05,0.1312759,-1.02388E-05,0.7614,0.2915039,0.7614,-0.9614258,0.7614,-0.1357422,0.7614,0.9146342,0.7614,3.414634,0.7614,2.134146,0.1312759,1.309224E-05,0.1312759,0
0.7641,-0.1254883,0.7641,-0.9780273,0.7641,-0.2055664,0.7641,-1.280488,0.7641,2.865854,0.7641,1.95122,0.1317414,2.18204E-05,0.1317414,-8.728161E-06,0.7641,0.2880859,0.7641,-0.9628906,0.7641,-0.1386719,0.7641,1.158537,0.7641,3.231707,0.7641,2.073171,0.1317414,1.577783E-05,0.1317414,0
0.7668,-0.1235352,0.7668,-0.9780273,0.7668,-0.2055664,0.7668,-1.341463,0.7668,2.804878,0.7668,2.012195,0.1322069,2.232395E-05,0.1322069,-6.378271E-06,0.7668,0.2895508,0.7668,-0.9584961,0.7668,-0.1396484,0.7668,1.097561,0.7668,3.719512,0.7668,2.012195,0.1322069,1.594568E-05,0.1322069,0
0.7695,-0.1298828,0.7695,-0.9765625,0.7695,-0.2109375,0.7695,-1.280488,0.7695,2.682927,0.7695,2.073171,0.1326724,2.131685E-05,0.1326724,-6.881819E-06,0.7695,0.2919922,0.7695,-0.9604492,0.7695,-0.1362305,0.7695,1.097561,0.7695,3.231707,0.7695,2.134146,0.1326724,1.460288E-05,0.1326724,0
0.7722,-0.1269531,0.7722,-0.9726563,0.7722,-0.2060547,0.7722,-1.402439,0.7722,2.743902,0.7722,1.768293,0.1331379,2.098116E-05,0.1331379,-9.903105E-06,0.7722,0.2875977,0.7722,-0.9594727,0.7722,-0.1362305,0.7722,0.9756098,0.7722,3.658537,0.7722,2.134146,0.1331379,1.426719E-05,0.1331379,0
0.7749,-0.1245117,0.7749,-0.9746094,0.7749,-0.2080078,0.7749,-1.219512,0.7749,2.743902,0.7749,2.012195,0.1336034,2.098116E-05,0.1336034,-1.19173E-05,0.7749,0.284668,0.7749,-0.9594727,0.7749,-0.1318359,0.7749,1.097561,0.7749,3.597561,0.7749,2.134146,0.1336034,1.326009E-05,0.1336034,0
0.7776,-0.1269531,0.7776,-0.9741211,0.7776,-0.2104492,0.7776,-1.402439,0.7776,2.865854,0.7776,2.134146,0.134069,1.930266E-05,0.134069,-1.02388E-05,0.7776,0.2900391,0.7776,-0.9589844,0.7776,-0.1342773,0.7776,1.158537,0.7776,3.353659,0.7776,2.317073,0.134069,1.05745E-05,0.134069,0
0.7803,-0.1245117,0.7803,-0.9770508,0.7803,-0.2124023,0.7803,-1.402439,0.7803,2.987805,0.7803,2.073171,0.1345345,1.695277E-05,0.1345345,-7.553216E-06,0.7803,0.2910156,0.7803,-0.956543,0.7803,-0.1337891,0.7803,0.9146342,0.7803,3.414634,0.7803,2.073171,0.1345345,9.903105E-06,0.1345345,0
0.783,-0.1274414,0.783,-0.9755859,0.783,-0.2128906,0.783,-1.463415,0.783,2.865854,0.783,1.890244,0.135,1.661708E-05,0.135,-6.881819E-06,0.783,0.2851563,0.783,-0.9614258,0.783,-0.1333008,0.783,0.9756098,0.783,3.231707,0.783,2.195122,0.135,1.174945E-05,0.135,0
0.7857,-0.1245117,0.7857,-0.9750977,0.7857,-0.2133789,0.7857,-1.402439,0.7857,2.682927,0.7857,2.012195,0.1354655,1.896696E-05,0.1354655,-7.049668E-06,0.7857,0.2871094,0.7857,-0.9663086,0.7857,-0.1352539,0.7857,1.158537,0.7857,3.414634,0.7857,1.95122,0.1354655,1.426719E-05,0.1354655,0
0.7884,-0.1259766,0.7884,-0.9750977,0.7884,-0.2109375,0.7884,-1.890244,0.7884,2.743902,0.7884,1.95122,0.135931,2.064546E-05,0.135931,-6.54612E-06,0.7884,0.2861328,0.7884,-0.9560547,0.7884,-0.1293945,0.7884,1.097561,0.7884,3.536585,0.7884,2.073171,0.135931,1.594568E-05,0.135931,0
0.7911,-0.1235352,0.7911,-0.9780273,0.7911,-0.2128906,0.7911,-1.768293,0.7911,2.987805,0.7911,2.317073,0.1363965,2.064546E-05,0.1363965,-5.035477E-06,0.7911,0.2861328,0.7911,-0.9589844,0.7911,-0.1323242,0.7911,0.8536586,0.7911,3.47561,0.7911,2.195122,0.1363965,1.661708E-05,0.1363965,0
0.7938,-0.1259766,0.7938,-0.9780273,0.7938,-0.2114258,0.7938,-1.829268,0.7938,2.865854,0.7938,2.256098,0.1368621,2.047761E-05,0.1368621,-4.196231E-06,0.7938,0.2861328,0.7938,-0.9648438,0.7938,-0.1293945,0.7938,0.7317073,0.7938,3.536585,0.7938,1.768293,0.1368621,1.661708E-05,0.1368621,0
0.7965,-0.125,0.7965,-0.9765625,0.7965,-0.2099609,0.7965,-1.829268,0.7965,3.231707,0.7965,2.073171,0.1373276,1.997406E-05,0.1373276,-3.692683E-06,0.7965,0.2885742,0.7965,-0.965332,0.7965,-0.1333008,0.7965,0.8536586,0.7965,3.658537,0.7965,2.012195,0.1373276,1.661708E-05,0.1373276,0
0.7992,-0.1254883,0.7992,-0.9804688,0.7992,-0.2104492,0.7992,-1.890244,0.7992,3.04878,0.7992,1.95122,0.1377931,1.997406E-05,0.1377931,-3.860533E-06,0.7992,0.2895508,0.7992,-0.9692383,0.7992,-0.1333008,0.7992,0.8536586,0.7992,3.597561,0.7992,2.012195,0.1377931,1.628138E-05,0.1377931,0
0.8019,-0.1240234,0.8019,-0.9799805,0.8019,-0.2075195,0.8019,-1.829268,0.8019,2.682927,0.8019,1.829268,0.1382586,1.930266E-05,0.1382586,-4.699779E-06,0.8019,0.2890625,0.8019,-0.96875,0.8019,-0.1342773,0.8019,0.7926829,0.8019,3.536585,0.8019,1.890244,0.1382586,1.527428E-05,0.1382586,0
0.8046,-0.128418,0.8046,-0.980957,0.8046,-0.2060547,0.8046,-1.707317,0.8046,2.378049,0.8046,2.073171,0.1387241,1.963836E-05,0.1387241,-5.539025E-06,0.8046,0.2919922,0.8046,-0.9628906,0.8046,-0.1367188,0.8046,1.097561,0.8046,3.47561,0.8046,1.95122,0.1387241,1.577783E-05,0.1387241,0
0.8073,-0.1206055,0.8073,-0.9770508,0.8073,-0.2060547,0.8073,-2.012195,0.8073,2.804878,0.8073,2.012195,0.1391896,2.098116E-05,0.1391896,-5.203327E-06,0.8073,0.2895508,0.8073,-0.9619141,0.8073,-0.1376953,0.8073,0.7317073,0.8073,3.536585,0.8073,2.012195,0.1391896,1.460288E-05,0.1391896,0
0.81,-0.1196289,0.81,-0.9819336,0.81,-0.2060547,0.81,-2.073171,0.81,2.804878,0.81,2.073171,0.1396552,2.098116E-05,0.1396552,-5.203327E-06,0.81,0.2910156,0.81,-0.965332,0.81,-0.1401367,0.81,0.9146342,0.81,4.02439,0.81,2.134146,0.1396552,1.326009E-05,0.1396552,0
0.8127,-0.1191406,0.8127,-0.9853516,0.8127,-0.2070313,0.8127,-1.768293,0.8127,2.804878,0.8127,2.134146,0.1401207,1.963836E-05,0.1401207,-5.539025E-06,0.8127,0.2900391,0.8127,-0.9667969,0.8127,-0.1391602,0.8127,0.7317073,0.8127,3.963415,0.8127,2.012195,0.1401207,1.326009E-05,0.1401207,0
0.8154,-0.1220703,0.8154,-0.9863281,0.8154,-0.2089844,0.8154,-1.829268,0.8154,2.926829,0.8154,2.256098,0.1405862,1.930266E-05,0.1405862,-5.539025E-06,0.8154,0.2885742,0.8154,-0.9609375,0.8154,-0.1411133,0.8154,0.7317073,0.8154,4.207317,0.8154,2.012195,0.1405862,1.393149E-05,0.1405862,0
0.8181,-0.1225586,0.8181,-0.9775391,0.8181,-0.203125,0.8181,-2.012195,0.8181,2.804878,0.8181,2.134146,0.1410517,1.997406E-05,0.1410517,-5.539025E-06,0.8181,0.2856445,0.8181,-0.9628906,0.8181,-0.1420898,0.8181,0.7926829,0.8181,4.085366,0.8181,1.890244,0.1410517,1.326009E-05,0.1410517,0
0.8208,-0.1206055,0.8208,-0.9848633,0.8208,-0.2055664,0.8208,-2.073171,0.8208,2.439024,0.8208,2.134146,0.1415172,2.030976E-05,0.1415172,-6.210422E-06,0.8208,0.2885742,0.8208,-0.9589844,0.8208,-0.1416016,0.8208,0.6707317,0.8208,4.207317,0.8208,1.95122,0.1415172,1.12459E-05,0.1415172,0
0.8235,-0.1235352,0.8235,-0.9858398,0.8235,-0.2055664,0.8235,-1.95122,0.8235,3.04878,0.8235,1.95122,0.1419827,2.131685E-05,0.1419827,-6.881819E-06,0.8235,0.2919922,0.8235,-0.9619141,0.8235,-0.140625,0.8235,0.4878049,0.8235,4.207317,0.8235,1.707317,0.1419827,1.15816E-05,0.1419827,0
0.8262,-0.121582,0.8262,-0.9833984,0.8262,-0.2114258,0.8262,-2.195122,0.8262,3.109756,0.8262,2.012195,0.1424483,2.232395E-05,0.1424483,-6.54612E-06,0.8262,0.2856445,0.8262,-0.9648438,0.8262,-0.1450195,0.8262,0.4268293,0.8262,4.207317,0.8262,1.95122,0.1424483,1.460288E-05,0.1424483,0
0.8289,-0.128418,0.8289,-0.9838867,0.8289,-0.2109375,0.8289,-2.073171,0.8289,3.170732,0.8289,2.073171,0.1429138,2.198825E-05,0.1429138,-5.035477E-06,0.8289,0.2851563,0.8289,-0.9672852,0.8289,-0.1416016,0.8289,0.4878049,0.8289,4.390244,0.8289,2.256098,0.1429138,1.728847E-05,0.1429138,0
0.8316,-0.1289063,0.8316,-0.9780273,0.8316,-0.2050781,0.8316,-2.317073,0.8316,2.865854,0.8316,2.134146,0.1433793,2.131685E-05,0.1433793,-4.699779E-06,0.8316,0.2822266,0.8316,-0.9648438,0.8316,-0.1386719,0.8316,0.4268293,0.8316,3.963415,0.8316,2.195122,0.1433793,1.863127E-05,0.1433793,0
0.8343,-0.1245117,0.8343,-0.9794922,0.8343,-0.2036133,0.8343,-2.5,0.8343,2.926829,0.8343,2.134146,0.1438448,2.064546E-05,0.1438448,-5.706874E-06,0.8343,0.2836914,0.8343,-0.9648438,0.8343,-0.1411133,0.8343,0.5487805,0.8343,4.146341,0.8343,2.012195,0.1438448,1.863127E-05,0.1438448,0
0.837,-0.1274414,0.837,-0.9853516,0.837,-0.206543,0.837,-2.439024,0.837,3.04878,0.837,1.95122,0.1443103,2.064546E-05,0.1443103,-6.54612E-06,0.837,0.2807617,0.837,-0.9648438,0.837,-0.140625,0.837,0.6097561,0.837,4.02439,0.837,1.829268,0.1443103,1.695277E-05,0.1443103,0
0.8397,-0.1264648,0.8397,-0.9838867,0.8397,-0.2084961,0.8397,-2.195122,0.8397,2.926829,0.8397,1.95122,0.1447759,2.064546E-05,0.1447759,-6.210422E-06,0.8397,0.2832031,0.8397,-0.9672852,0.8397,-0.1425781,0.8397,0.6097561,0.8397,4.085366,0.8397,2.012195,0.1447759,1.594568E-05,0.1447759,0
0.8424,-0.1254883,0.8424,-0.9824219,0.8424,-0.2055664,0.8424,-2.317073,0.8424,3.109756,0.8424,1.890244,0.1452414,2.064546E-05,0.1452414,-5.874723E-06,0.8424,0.2827148,0.8424,-0.9672852,0.8424,-0.1459961,0.8424,0.3658537,0.8424,3.780488,0.8424,2.195122,0.1452414,1.728847E-05,0.1452414,0
0.8451,-0.1269531,0.8451,-0.9824219,0.8451,-0.2084961,0.8451,-2.317073,0.8451,3.109756,0.8451,2.073171,0.1457069,1.863127E-05,0.1457069,-5.539025E-06,0.8451,0.2856445,0.8451,-0.9624023,0.8451,-0.1435547,0.8451,0.3048781,0.8451,3.719512,0.8451,1.95122,0.1457069,1.829557E-05,0.1457069,0
0.8478,-0.1313477,0.8478,-0.9848633,0.8478,-0.2070313,0.8478,-2.195122,0.8478,3.04878,0.8478,1.95122,0.1461724,1.762417E-05,0.1461724,-6.210422E-06,0.8478,0.2851563,0.8478,-0.9619141,0.8478,-0.1435547,0.8478,0.4268293,0.8478,3.536585,0.8478,1.890244,0.1461724,1.829557E-05,0.1461724,0
0.8505,-0.1293945,0.8505,-0.9838867,0.8505,-0.2026367,0.8505,-2.256098,0.8505,3.292683,0.8505,1.95122,0.1466379,1.863127E-05,0.1466379,-6.881819E-06,0.8505,0.2885742,0.8505,-0.965332,0.8505,-0.140625,0.8505,0.6097561,0.8505,3.47561,0.8505,1.829268,0.1466379,1.728847E-05,0.1466379,0
0.8532,-0.1318359,0.8532,-0.9858398,0.8532,-0.2036133,0.8532,-2.378049,0.8532,3.170732,0.8532,1.890244,0.1471034,1.997406E-05,0.1471034,-5.706874E-06,0.8532,0.2861328,0.8532,-0.9633789,0.8532,-0.1416016,0.8532,0.6707317,0.8532,3.353659,0.8532,1.95122,0.1471034,1.628138E-05,0.1471034,0
0.8559,-0.1381836,0.8559,-0.9863281,0.8559,-0.199707,0.8559,-2.5,0.8559,3.170732,0.8559,1.52439,0.147569,1.930266E-05,0.147569,-5.539025E-06,0.8559,0.2851563,0.8559,-0.9638672,0.8559,-0.1435547,0.8559,0.4878049,0.8559,3.292683,0.8559,1.829268,0.147569,1.527428E-05,0.147569,0
0.8586,-0.1333008,0.8586,-0.9838867,0.8586,-0.2001953,0.8586,-2.439024,0.8586,2.804878,0.8586,1.890244,0.1480345,1.863127E-05,0.1480345,-7.721065E-06,0.8586,0.2866211,0.8586,-0.9628906,0.8586,-0.1445313,0.8586,0.6707317,0.8586,3.292683,0.8586,1.402439,0.1480345,1.527428E-05,0.1480345,0
0.8613,-0.1269531,0.8613,-0.9829102,0.8613,-0.1982422,0.8613,-2.317073,0.8613,2.865854,0.8613,1.890244,0.1485,1.863127E-05,0.1485,-9.567407E-06,0.8613,0.2949219,0.8613,-0.9624023,0.8613,-0.1455078,0.8613,0.6097561,0.8613,3.536585,0.8613,1.768293,0.1485,1.527428E-05,0.1485,0
0.864,-0.1308594,0.864,-0.9868164,0.864,-0.1982422,0.864,-2.012195,0.864,3.170732,0.864,1.768293,0.1489655,1.930266E-05,0.1489655,-8.89601E-06,0.864,0.2836914,0.864,-0.9609375,0.864,-0.1445313,0.864,0.4268293,0.864,3.47561,0.864,1.890244,0.1489655,1.443504E-05,0.1489655,0
0.8667,-0.1342773,0.8667,-0.9829102,0.8667,-0.2011719,0.8667,-2.073171,0.8667,3.170732,0.8667,1.768293,0.149431,1.997406E-05,0.149431,-7.553216E-06,0.8667,0.2871094,0.8667,-0.9643555,0.8667,-0.1411133,0.8667,0.6097561,0.8667,3.04878,0.8667,2.195122,0.149431,1.326009E-05,0.149431,0
0.8694,-0.1298828,0.8694,-0.9838867,0.8694,-0.1987305,0.8694,-2.012195,0.8694,3.109756,0.8694,1.707317,0.1498965,2.198825E-05,0.1498965,-7.049668E-06,0.8694,0.284668,0.8694,-0.9658203,0.8694,-0.1396484,0.8694,0.3658537,0.8694,3.170732,0.8694,1.768293,0.1498965,1.460288E-05,0.1498965,0
0.8721,-0.1274414,0.8721,-0.9829102,0.8721,-0.2001953,0.8721,-2.195122,0.8721,3.04878,0.8721,1.707317,0.1503621,2.366674E-05,0.1503621,-7.385367E-06,0.8721,0.2875977,0.8721,-0.96875,0.8721,-0.1376953,0.8721,0.3658537,0.8721,3.04878,0.8721,1.829268,0.1503621,1.728847E-05,0.1503621,0
0.8748,-0.1259766,0.8748,-0.9790039,0.8748,-0.2011719,0.8748,-2.439024,0.8748,3.109756,0.8748,1.95122,0.1508276,2.400244E-05,0.1508276,-7.553216E-06,0.8748,0.2822266,0.8748,-0.9667969,0.8748,-0.1362305,0.8748,0.4878049,0.8748,3.231707,0.8748,1.95122,0.1508276,1.795987E-05,0.1508276,0
0.8775,-0.1279297,0.8775,-0.9829102,0.8775,-0.199707,0.8775,-2.256098,0.8775,3.231707,0.8775,1.768293,0.1512931,2.265965E-05,0.1512931,-7.217518E-06,0.8775,0.2822266,0.8775,-0.9648438,0.8775,-0.137207,0.8775,0.6707317,0.8775,2.987805,0.8775,2.073171,0.1512931,1.527428E-05,0.1512931,0
0.8802,-0.128418,0.8802,-0.9853516,0.8802,-0.2006836,0.8802,-2.378049,0.8802,2.926829,0.8802,2.073171,0.1517586,2.333104E-05,0.1517586,-7.721065E-06,0.8802,0.2851563,0.8802,-0.9643555,0.8802,-0.1352539,0.8802,0.6707317,0.8802,3.170732,0.8802,1.95122,0.1517586,1.393149E-05,0.1517586,0
0.8829,-0.1318359,0.8829,-0.980957,0.8829,-0.2036133,0.8829,-2.012195,0.8829,3.292683,0.8829,2.073171,0.1522241,2.366674E-05,0.1522241,-8.89601E-06,0.8829,0.2836914,0.8829,-0.9624023,0.8829,-0.1318359,0.8829,0.6097561,0.8829,3.414634,0.8829,2.012195,0.1522241,1.426719E-05,0.1522241,0
0.8856,-0.1279297,0.8856,-0.9824219,0.8856,-0.199707,0.8856,-2.134146,0.8856,3.109756,0.8856,2.073171,0.1526897,2.265965E-05,0.1526897,-1.09102E-05,0.8856,0.2836914,0.8856,-0.9672852,0.8856,-0.1333008,0.8856,0.6097561,0.8856,3.04878,0.8856,2.195122,0.1526897,1.426719E-05,0.1526897,0
0.8883,-0.1259766,0.8883,-0.9824219,0.8883,-0.1967773,0.8883,-2.012195,0.8883,2.865854,0.8883,2.134146,0.1531552,2.165255E-05,0.1531552,-1.12459E-05,0.8883,0.2832031,0.8883,-0.9672852,0.8883,-0.1337891,0.8883,0.6707317,0.8883,3.292683,0.8883,1.95122,0.1531552,1.326009E-05,0.1531552,0
0.891,-0.1264648,0.891,-0.9814453,0.891,-0.1982422,0.891,-1.95122,0.891,2.865854,0.891,2.073171,0.1536207,2.18204E-05,0.1536207,-1.141375E-05,0.891,0.2836914,0.891,-0.9667969,0.891,-0.1328125,0.891,0.6097561,0.891,3.109756,0.891,1.95122,0.1536207,1.174945E-05,0.1536207,0
0.8937,-0.1298828,0.8937,-0.9804688,0.8937,-0.2036133,0.8937,-2.012195,0.8937,2.926829,0.8937,1.95122,0.1540862,2.064546E-05,0.1540862,-1.15816E-05,0.8937,0.2822266,0.8937,-0.9648438,0.8937,-0.1328125,0.8937,0.7926829,0.8937,3.353659,0.8937,1.95122,0.1540862,1.040665E-05,0.1540862,0
0.8964,-0.1318359,0.8964,-0.9833984,0.8964,-0.2055664,0.8964,-1.890244,0.8964,3.231707,0.8964,2.012195,0.1545517,2.047761E-05,0.1545517,-1.02388E-05,0.8964,0.2822266,0.8964,-0.9633789,0.8964,-0.1318359,0.8964,0.5487805,0.8964,3.292683,0.8964,2.317073,0.1545517,1.05745E-05,0.1545517,0
0.8991,-0.1289063,0.8991,-0.9819336,0.8991,-0.2045898,0.8991,-1.95122,0.8991,3.04878,0.8991,2.256098,0.1550172,2.098116E-05,0.1550172,-8.224612E-06,0.8991,0.2841797,0.8991,-0.9619141,0.8991,-0.1293945,0.8991,0.5487805,0.8991,3.414634,0.8991,2.134146,0.1550172,1.05745E-05,0.1550172,0
0.9018,-0.1206055,0.9018,-0.9790039,0.9018,-0.2021484,0.9018,-1.707317,0.9018,3.04878,0.9018,2.256098,0.1554828,2.299535E-05,0.1554828,-7.888914E-06,0.9018,0.2890625,0.9018,-0.9633789,0.9018,-0.128418,0.9018,0.6707317,0.9018,3.536585,0.9018,2.134146,0.1554828,1.12459E-05,0.1554828,0
0.9045,-0.125,0.9045,-0.9799805,0.9045,-0.2045898,0.9045,-1.95122,0.9045,3.231707,0.9045,2.134146,0.1559483,2.467384E-05,0.1559483,-8.392462E-06,0.9045,0.2885742,0.9045,-0.9624023,0.9045,-0.1318359,0.9045,0.5487805,0.9045,3.597561,0.9045,2.134146,0.1559483,1.376364E-05,0.1559483,0
0.9072,-0.1245117,0.9072,-0.9824219,0.9072,-0.2026367,0.9072,-1.402439,0.9072,3.353659,0.9072,2.073171,0.1564138,2.601663E-05,0.1564138,-9.567407E-06,0.9072,0.28125,0.9072,-0.9594727,0.9072,-0.1274414,0.9072,0.4878049,0.9072,3.719512,0.9072,1.890244,0.1564138,1.460288E-05,0.1564138,0
0.9099,-0.121582,0.9099,-0.980957,0.9099,-0.2045898,0.9099,-1.402439,0.9099,3.109756,0.9099,2.012195,0.1568793,2.534523E-05,0.1568793,-1.09102E-05,0.9099,0.2807617,0.9099,-0.9624023,0.9099,-0.1303711,0.9099,0.5487805,0.9099,3.597561,0.9099,2.012195,0.1568793,1.359579E-05,0.1568793,0
0.9126,-0.1240234,0.9126,-0.9804688,0.9126,-0.2016602,0.9126,-1.829268,0.9126,3.231707,0.9126,2.378049,0.1573448,2.400244E-05,0.1573448,-1.007095E-05,0.9126,0.2807617,0.9126,-0.9619141,0.9126,-0.1293945,0.9126,0.7317073,0.9126,3.597561,0.9126,2.195122,0.1573448,1.326009E-05,0.1573448,0
0.9153,-0.125,0.9153,-0.9790039,0.9153,-0.2016602,0.9153,-1.585366,0.9153,3.04878,0.9153,2.012195,0.1578103,2.400244E-05,0.1578103,-8.728161E-06,0.9153,0.2807617,0.9153,-0.9614258,0.9153,-0.1259766,0.9153,0.3658537,0.9153,3.597561,0.9153,1.768293,0.1578103,1.527428E-05,0.1578103,0
0.918,-0.1245117,0.918,-0.9804688,0.918,-0.2036133,0.918,-1.646341,0.918,3.231707,0.918,1.829268,0.1582759,2.601663E-05,0.1582759,-8.224612E-06,0.918,0.2802734,0.918,-0.9628906,0.918,-0.1259766,0.918,0.5487805,0.918,3.47561,0.918,2.134146,0.1582759,1.594568E-05,0.1582759,0
0.9207,-0.1254883,0.9207,-0.9824219,0.9207,-0.2016602,0.9207,-1.890244,0.9207,3.292683,0.9207,1.829268,0.1587414,2.803082E-05,0.1587414,-8.224612E-06,0.9207,0.2797852,0.9207,-0.9584961,0.9207,-0.1308594,0.9207,0.6097561,0.9207,3.292683,0.9207,2.012195,0.1587414,1.628138E-05,0.1587414,0
0.9234,-0.1230469,0.9234,-0.9804688,0.9234,-0.2001953,0.9234,-1.768293,0.9234,3.353659,0.9234,1.95122,0.1592069,2.803082E-05,0.1592069,-6.881819E-06,0.9234,0.2783203,0.9234,-0.9609375,0.9234,-0.1279297,0.9234,0.4268293,0.9234,3.597561,0.9234,1.890244,0.1592069,1.594568E-05,0.1592069,0
0.9261,-0.1240234,0.9261,-0.9804688,0.9261,-0.2001953,0.9261,-1.890244,0.9261,3.170732,0.9261,2.012195,0.1596724,2.635233E-05,0.1596724,-6.378271E-06,0.9261,0.2822266,0.9261,-0.9594727,0.9261,-0.1308594,0.9261,0.6097561,0.9261,3.658537,0.9261,1.95122,0.1596724,1.527428E-05,0.1596724,0
0.9288,-0.1235352,0.9288,-0.980957,0.9288,-0.2001953,0.9288,-1.707317,0.9288,3.04878,0.9288,1.829268,0.1601379,2.400244E-05,0.1601379,-8.560311E-06,0.9288,0.2802734,0.9288,-0.9594727,0.9288,-0.1342773,0.9288,0.8536586,0.9288,3.719512,0.9288,2.012195,0.1601379,1.326009E-05,0.1601379,0
0.9315,-0.1225586,0.9315,-0.980957,0.9315,-0.1982422,0.9315,-1.829268,0.9315,2.987805,0.9315,1.890244,0.1606034,2.383459E-05,0.1606034,-1.05745E-05,0.9315,0.2817383,0.9315,-0.9624023,0.9315,-0.1289063,0.9315,1.036585,0.9315,3.719512,0.9315,2.073171,0.1606034,1.309224E-05,0.1606034,0
0.9342,-0.1245117,0.9342,-0.9799805,0.9342,-0.203125,0.9342,-1.707317,0.9342,2.926829,0.9342,1.890244,0.161069,2.24918E-05,0.161069,-9.567407E-06,0.9342,0.2861328,0.9342,-0.9619141,0.9342,-0.1328125,0.9342,1.036585,0.9342,3.780488,0.9342,2.317073,0.161069,1.258869E-05,0.161069,0
0.9369,-0.1254883,0.9369,-0.9799805,0.9369,-0.199707,0.9369,-1.890244,0.9369,2.987805,0.9369,1.768293,0.1615345,2.1149E-05,0.1615345,-7.049668E-06,0.9369,0.2856445,0.9369,-0.9599609,0.9369,-0.1381836,0.9369,1.036585,0.9369,3.902439,0.9369,2.073171,0.1615345,1.15816E-05,0.1615345,0
0.9396001,-0.1259766,0.9396001,-0.9814453,0.9396001,-0.1992188,0.9396001,-2.012195,0.9396001,3.231707,0.9396001,1.95122,0.162,2.064546E-05,0.162,-4.867628E-06,0.9396001,0.284668,0.9396001,-0.9594727,0.9396001,-0.1342773,0.9396001,0.6097561,0.9396001,3.963415,0.9396001,2.317073,0.162,1.05745E-05,0.162,-4.196231E-06
0.9423,-0.1235352,0.9423,-0.9829102,0.9423,-0.1982422,0.9423,-2.195122,0.9423,2.865854,0.9423,1.768293,0.1624655,2.1149E-05,0.1624655,-5.539025E-06,0.9423,0.2822266,0.9423,-0.9624023,0.9423,-0.1318359,0.9423,0.7926829,0.9423,4.02439,0.9423,2.378049,0.1624655,1.05745E-05,0.1624655,1.342794E-06
0.9450001,-0.1264648,0.9450001,-0.984375,0.9450001,-0.2021484,0.9450001,-1.829268,0.9450001,2.560976,0.9450001,1.95122,0.162931,2.18204E-05,0.162931,-7.385367E-06,0.9450001,0.2832031,0.9450001,-0.9599609,0.9450001,-0.1342773,0.9450001,0.7317073,0.9450001,4.02439,0.9450001,2.439024,0.162931,1.225299E-05,0.162931,1.846342E-06
0.9477,-0.1235352,0.9477,-0.9848633,0.9477,-0.2001953,0.9477,-1.707317,0.9477,2.865854,0.9477,1.768293,0.1633966,2.400244E-05,0.1633966,-9.231709E-06,0.9477,0.2841797,0.9477,-0.9604492,0.9477,-0.1347656,0.9477,0.7926829,0.9477,4.207317,0.9477,2.317073,0.1633966,1.258869E-05,0.1633966,2.014191E-06
0.9504,-0.1259766,0.9504,-0.9799805,0.9504,-0.2021484,0.9504,-1.95122,0.9504,3.04878,0.9504,1.95122,0.1638621,2.517739E-05,0.1638621,-9.399558E-06,0.9504,0.2851563,0.9504,-0.9624023,0.9504,-0.1396484,0.9504,0.9756098,0.9504,4.268293,0.9504,2.560976,0.1638621,1.19173E-05,0.1638621,1.174945E-06
0.9531,-0.1289063,0.9531,-0.9819336,0.9531,-0.2011719,0.9531,-1.890244,0.9531,2.865854,0.9531,2.134146,0.1643276,2.433814E-05,0.1643276,-1.02388E-05,0.9531,0.2875977,0.9531,-0.9609375,0.9531,-0.140625,0.9531,0.6707317,0.9531,4.085366,0.9531,2.317073,0.1643276,1.326009E-05,0.1643276,-1.678492E-07
0.9558,-0.125,0.9558,-0.9819336,0.9558,-0.2016602,0.9558,-1.890244,0.9558,2.560976,0.9558,1.95122,0.1647931,2.366674E-05,0.1647931,-1.02388E-05,0.9558,0.2880859,0.9558,-0.9619141,0.9558,-0.1396484,0.9558,0.6097561,0.9558,4.146341,0.9558,2.256098,0.1647931,1.443504E-05,0.1647931,-5.035477E-07
0.9585,-0.1308594,0.9585,-0.9819336,0.9585,-0.2026367,0.9585,-2.012195,0.9585,2.560976,0.9585,2.195122,0.1652586,2.265965E-05,0.1652586,-9.063859E-06,0.9585,0.2885742,0.9585,-0.9663086,0.9585,-0.1381836,0.9585,0.4268293,0.9585,4.207317,0.9585,2.256098,0.1652586,1.393149E-05,0.1652586,1.678492E-07
0.9612,-0.1289063,0.9612,-0.9824219,0.9612,-0.2036133,0.9612,-2.317073,0.9612,2.560976,0.9612,2.012195,0.1657241,2.098116E-05,0.1657241,-9.231709E-06,0.9612,0.2885742,0.9612,-0.9619141,0.9612,-0.1357422,0.9612,0.3658537,0.9612,4.085366,0.9612,2.073171,0.1657241,1.359579E-05,0.1657241,1.174945E-06
0.9639,-0.125,0.9639,-0.9829102,0.9639,-0.1987305,0.9639,-2.134146,0.9639,2.560976,0.9639,2.012195,0.1661897,2.064546E-05,0.1661897,-1.09102E-05,0.9639,0.2856445,0.9639,-0.9599609,0.9639,-0.137207,0.9639,0.3658537,0.9639,3.963415,0.9639,2.012195,0.1661897,1.326009E-05,0.1661897,8.392462E-07
0.9666,-0.1240234,0.9666,-0.9824219,0.9666,-0.199707,0.9666,-2.073171,0.9666,2.439024,0.9666,1.890244,0.1666552,2.198825E-05,0.1666552,-1.292439E-05,0.9666,0.2871094,0.9666,-0.9624023,0.9666,-0.1386719,0.9666,0.4878049,0.9666,4.329268,0.9666,2.195122,0.1666552,1.258869E-05,0.1666552,1.174945E-06
0.9693,-0.1308594,0.9693,-0.9814453,0.9693,-0.2021484,0.9693,-2.012195,0.9693,2.5,0.9693,2.012195,0.1671207,2.400244E-05,0.1671207,-1.242084E-05,0.9693,0.2856445,0.9693,-0.965332,0.9693,-0.137207,0.9693,0.5487805,0.9693,4.02439,0.9693,2.256098,0.1671207,1.242084E-05,0.1671207,1.846342E-06
0.972,-0.1323242,0.972,-0.9819336,0.972,-0.2026367,0.972,-2.134146,0.972,2.743902,0.972,1.95122,0.1675862,2.467384E-05,0.1675862,-1.09102E-05,0.972,0.2807617,0.972,-0.9677734,0.972,-0.1352539,0.972,0.6097561,0.972,3.963415,0.972,2.012195,0.1675862,1.292439E-05,0.1675862,1.846342E-06
0.9747,-0.1313477,0.9747,-0.9829102,0.9747,-0.2001953,0.9747,-2.134146,0.9747,2.621951,0.9747,2.012195,0.1680517,2.366674E-05,0.1680517,-8.89601E-06,0.9747,0.2827148,0.9747,-0.9648438,0.9747,-0.1308594,0.9747,0.4878049,0.9747,3.841464,0.9747,2.073171,0.1680517,1.258869E-05,0.1680517,1.678492E-07
0.9774,-0.1303711,0.9774,-0.9833984,0.9774,-0.2001953,0.9774,-1.95122,0.9774,2.621951,0.9774,2.317073,0.1685172,2.18204E-05,0.1685172,-9.231709E-06,0.9774,0.2861328,0.9774,-0.9707031,0.9774,-0.1367188,0.9774,0.3658537,0.9774,4.146341,0.9774,2.073171,0.1685172,1.19173E-05,0.1685172,-1.846342E-06
0.9801,-0.1308594,0.9801,-0.9833984,0.9801,-0.2001953,0.9801,-2.073171,0.9801,2.682927,0.9801,2.256098,0.1689828,2.131685E-05,0.1689828,-1.09102E-05,0.9801,0.2866211,0.9801,-0.9726563,0.9801,-0.137207,0.9801,0.6097561,0.9801,3.780488,0.9801,1.95122,0.1689828,1.15816E-05,0.1689828,-3.189136E-06
0.9828,-0.1308594,0.9828,-0.9824219,0.9828,-0.1987305,0.9828,-2.134146,0.9828,2.682927,0.9828,2.012195,0.1694483,2.316319E-05,0.1694483,-1.258869E-05,0.9828,0.2885742,0.9828,-0.9707031,0.9828,-0.1362305,0.9828,0.6707317,0.9828,3.780488,0.9828,1.95122,0.1694483,1.02388E-05,0.1694483,-3.524834E-06
0.9855,-0.1318359,0.9855,-0.9829102,0.9855,-0.1982422,0.9855,-2.195122,0.9855,2.743902,0.9855,2.134146,0.1699138,2.316319E-05,0.1699138,-1.225299E-05,0.9855,0.2895508,0.9855,-0.9682617,0.9855,-0.1362305,0.9855,0.4878049,0.9855,3.841464,0.9855,2.195122,0.1699138,8.224612E-06,0.1699138,-3.860533E-06
0.9882,-0.1328125,0.9882,-0.9790039,0.9882,-0.1972656,0.9882,-2.012195,0.9882,2.804878,0.9882,2.5,0.1703793,2.265965E-05,0.1703793,-1.040665E-05,0.9882,0.2861328,0.9882,-0.9658203,0.9882,-0.1318359,0.9882,0.6097561,0.9882,3.902439,0.9882,1.768293,0.1703793,8.89601E-06,0.1703793,-3.860533E-06
0.9909,-0.128418,0.9909,-0.9814453,0.9909,-0.2001953,0.9909,-2.195122,0.9909,2.804878,0.9909,2.256098,0.1708448,2.299535E-05,0.1708448,-8.89601E-06,0.9909,0.2880859,0.9909,-0.9663086,0.9909,-0.1323242,0.9909,0.4268293,0.9909,3.719512,0.9909,1.829268,0.1708448,1.05745E-05,0.1708448,-4.196231E-06
0.9936,-0.1313477,0.9936,-0.9794922,0.9936,-0.2006836,0.9936,-2.073171,0.9936,2.682927,0.9936,2.439024,0.1713103,2.18204E-05,0.1713103,-9.231709E-06,0.9936,0.2871094,0.9936,-0.9677734,0.9936,-0.1357422,0.9936,0.3658537,0.9936,3.353659,0.9936,1.95122,0.1713103,1.19173E-05,0.1713103,-2.853437E-06
0.9963,-0.1274414,0.9963,-0.9824219,0.9963,-0.1987305,0.9963,-2.134146,0.9963,2.682927,0.9963,2.073171,0.1717759,2.081331E-05,0.1717759,-1.040665E-05,0.9963,0.2875977,0.9963,-0.9677734,0.9963,-0.1333008,0.9963,0.1829268,0.9963,3.658537,0.9963,2.073171,0.1717759,1.12459E-05,0.1717759,1.678492E-07
0.999,-0.1318359,0.999,-0.9833984,0.999,-0.2001953,0.999,-2.256098,0.999,2.560976,0.999,2.256098,0.1722414,2.232395E-05,0.1722414,-1.02388E-05,0.999,0.2861328,0.999,-0.9682617,0.999,-0.1328125,0.999,0.6707317,0.999,3.231707,0.999,2.073171,0.1722414,9.735256E-06,0.1722414,2.517739E-06
1.0017,-0.1308594,1.0017,-0.9838867,1.0017,-0.2021484,1.0017,-2.012195,1.0017,2.439024,1.0017,1.829268,0.1727069,2.400244E-05,0.1727069,-9.063859E-06,1.0017,0.2871094,1.0017,-0.9663086,1.0017,-0.1347656,1.0017,0.5487805,1.0017,3.353659,1.0017,1.890244,0.1727069,1.12459E-05,0.1727069,3.860533E-06
1.0044,-0.1279297,1.0044,-0.9868164,1.0044,-0.1982422,1.0044,-2.256098,1.0044,2.439024,1.0044,1.646341,0.1731724,2.450599E-05,0.1731724,-8.560311E-06,1.0044,0.2871094,1.0044,-0.96875,1.0044,-0.1342773,1.0044,0.4268293,1.0044,3.536585,1.0044,1.707317,0.1731724,1.426719E-05,0.1731724,4.531929E-06
1.0071,-0.1235352,1.0071,-0.987793,1.0071,-0.2001953,1.0071,-2.256098,1.0071,2.560976,1.0071,1.829268,0.1736379,2.265965E-05,0.1736379,-7.888914E-06,1.0071,0.2861328,1.0071,-0.9682617,1.0071,-0.1323242,1.0071,0.2439024,1.0071,3.353659,1.0071,1.890244,0.1736379,1.493858E-05,0.1736379,5.035477E-06
1.0098,-0.1293945,1.0098,-0.9853516,1.0098,-0.2099609,1.0098,-2.317073,1.0098,2.682927,1.0098,1.890244,0.1741034,2.165255E-05,0.1741034,-6.881819E-06,1.0098,0.2910156,1.0098,-0.9672852,1.0098,-0.1357422,1.0098,0.1829268,1.0098,3.231707,1.0098,1.95122,0.1741034,1.19173E-05,0.1741034,4.196231E-06
1.0125,-0.1313477,1.0125,-0.9824219,1.0125,-0.2050781,1.0125,-2.317073,1.0125,2.378049,1.0125,1.890244,0.174569,2.198825E-05,0.174569,-7.553216E-06,1.0125,0.2880859,1.0125,-0.9658203,1.0125,-0.1318359,1.0125,0.1219512,1.0125,3.536585,1.0125,1.95122,0.174569,8.89601E-06,0.174569,2.517739E-06
1.0152,-0.1323242,1.0152,-0.9853516,1.0152,-0.2041016,1.0152,-2.134146,1.0152,2.439024,1.0152,1.890244,0.1750345,2.333104E-05,0.1750345,-8.728161E-06,1.0152,0.2841797,1.0152,-0.9638672,1.0152,-0.1333008,1.0152,-0.1829268,1.0152,3.414634,1.0152,1.646341,0.1750345,8.560311E-06,0.1750345,1.510643E-06
1.0179,-0.1357422,1.0179,-0.9814453,1.0179,-0.2045898,1.0179,-2.195122,1.0179,2.5,1.0179,1.829268,0.1755,2.265965E-05,0.1755,-8.224612E-06,1.0179,0.2866211,1.0179,-0.9672852,1.0179,-0.1337891,1.0179,0.06097561,1.0179,3.414634,1.0179,1.768293,0.1755,1.12459E-05,0.1755,2.349889E-06
1.0206,-0.1318359,1.0206,-0.980957,1.0206,-0.2041016,1.0206,-2.012195,1.0206,2.5,1.0206,1.890244,0.1759655,2.18204E-05,0.1759655,-6.210422E-06,1.0206,0.2871094,1.0206,-0.9658203,1.0206,-0.1357422,1.0206,-0.1219512,1.0206,3.47561,1.0206,1.829268,0.1759655,1.292439E-05,0.1759655,3.189136E-06
1.0233,-0.1308594,1.0233,-0.9829102,1.0233,-0.2099609,1.0233,-2.134146,1.0233,2.439024,1.0233,1.829268,0.176431,2.265965E-05,0.176431,-4.196231E-06,1.0233,0.28125,1.0233,-0.9707031,1.0233,-0.1318359,1.0233,-0.1829268,1.0233,3.292683,1.0233,1.768293,0.176431,1.19173E-05,0.176431,2.853437E-06
1.026,-0.1279297,1.026,-0.9804688,1.026,-0.2060547,1.026,-1.95122,1.026,2.134146,1.026,1.829268,0.1768965,2.265965E-05,0.1768965,-4.699779E-06,1.026,0.2807617,1.026,-0.9711914,1.026,-0.1367188,1.026,-0.1829268,1.026,3.780488,1.026,1.829268,0.1768965,1.19173E-05,0.1768965,1.174945E-06
1.0287,-0.1264648,1.0287,-0.9853516,1.0287,-0.2041016,1.0287,-2.256098,1.0287,2.256098,1.0287,1.646341,0.1773621,2.198825E-05,0.1773621,-7.217518E-06,1.0287,0.2807617,1.0287,-0.9667969,1.0287,-0.1362305,1.0287,0,1.0287,3.536585,1.0287,1.585366,0.1773621,1.258869E-05,0.1773621,-1.174945E-06
1.0314,-0.1254883,1.0314,-0.987793,1.0314,-0.2094727,1.0314,-1.829268,1.0314,2.682927,1.0314,1.95122,0.1778276,2.064546E-05,0.1778276,-9.063859E-06,1.0314,0.2817383,1.0314,-0.965332,1.0314,-0.1381836,1.0314,-0.1829268,1.0314,3.414634,1.0314,1.707317,0.1778276,1.225299E-05,0.1778276,-2.517739E-06
1.0341,-0.128418,1.0341,-0.9863281,1.0341,-0.2084961,1.0341,-2.073171,1.0341,2.439024,1.0341,2.134146,0.1782931,1.997406E-05,0.1782931,-8.89601E-06,1.0341,0.2817383,1.0341,-0.965332,1.0341,-0.1357422,1.0341,-0.4268293,1.0341,3.47561,1.0341,1.707317,0.1782931,1.292439E-05,0.1782931,-1.174945E-06
1.0368,-0.1274414,1.0368,-0.987793,1.0368,-0.206543,1.0368,-2.012195,1.0368,2.317073,1.0368,1.95122,0.1787586,2.064546E-05,0.1787586,-7.049668E-06,1.0368,0.2836914,1.0368,-0.9663086,1.0368,-0.1333008,1.0368,-0.1219512,1.0368,3.719512,1.0368,1.890244,0.1787586,1.258869E-05,0.1787586,2.853437E-06
1.0395,-0.1308594,1.0395,-0.9858398,1.0395,-0.2041016,1.0395,-2.073171,1.0395,2.560976,1.0395,1.890244,0.1792241,2.18204E-05,0.1792241,-5.874723E-06,1.0395,0.2832031,1.0395,-0.9643555,1.0395,-0.1357422,1.0395,-0.1219512,1.0395,3.658537,1.0395,1.585366,0.1792241,1.174945E-05,0.1792241,5.874723E-06
1.0422,-0.1318359,1.0422,-0.9887695,1.0422,-0.206543,1.0422,-1.646341,1.0422,2.317073,1.0422,1.890244,0.1796896,2.198825E-05,0.1796896,-6.210422E-06,1.0422,0.2817383,1.0422,-0.9633789,1.0422,-0.1342773,1.0422,-0.1829268,1.0422,3.597561,1.0422,1.829268,0.1796896,1.174945E-05,0.1796896,7.049668E-06
1.0449,-0.1274414,1.0449,-0.9868164,1.0449,-0.2041016,1.0449,-1.829268,1.0449,2.865854,1.0449,1.585366,0.1801552,1.997406E-05,0.1801552,-7.049668E-06,1.0449,0.2836914,1.0449,-0.9628906,1.0449,-0.1352539,1.0449,-0.1219512,1.0449,3.292683,1.0449,1.646341,0.1801552,1.174945E-05,0.1801552,7.888914E-06
1.0476,-0.1259766,1.0476,-0.9853516,1.0476,-0.2041016,1.0476,-1.707317,1.0476,2.682927,1.0476,2.012195,0.1806207,1.863127E-05,0.1806207,-6.881819E-06,1.0476,0.2788086,1.0476,-0.9663086,1.0476,-0.1333008,1.0476,-0.1829268,1.0476,3.597561,1.0476,1.707317,0.1806207,1.292439E-05,0.1806207,9.567407E-06
1.0503,-0.1259766,1.0503,-0.9833984,1.0503,-0.2045898,1.0503,-1.646341,1.0503,2.987805,1.0503,1.646341,0.1810862,1.795987E-05,0.1810862,-7.385367E-06,1.0503,0.2807617,1.0503,-0.9667969,1.0503,-0.1367188,1.0503,-0.3048781,1.0503,3.597561,1.0503,1.829268,0.1810862,1.393149E-05,0.1810862,1.141375E-05
1.053,-0.1289063,1.053,-0.9858398,1.053,-0.2001953,1.053,-1.646341,1.053,2.987805,1.053,1.95122,0.1815517,1.695277E-05,0.1815517,-7.553216E-06,1.053,0.2822266,1.053,-0.9658203,1.053,-0.1376953,1.053,-0.1829268,1.053,3.780488,1.053,1.768293,0.1815517,1.292439E-05,0.1815517,1.19173E-05
1.0557,-0.1245117,1.0557,-0.9853516,1.0557,-0.2001953,1.0557,-1.52439,1.0557,3.109756,1.0557,1.95122,0.1820172,1.527428E-05,0.1820172,-7.217518E-06,1.0557,0.2827148,1.0557,-0.9663086,1.0557,-0.137207,1.0557,0.1829268,1.0557,3.597561,1.0557,1.646341,0.1820172,1.19173E-05,0.1820172,1.107805E-05
1.0584,-0.1298828,1.0584,-0.9853516,1.0584,-0.2011719,1.0584,-1.585366,1.0584,3.04878,1.0584,1.707317,0.1824827,1.594568E-05,0.1824827,-6.042573E-06,1.0584,0.2802734,1.0584,-0.9638672,1.0584,-0.1386719,1.0584,0.1829268,1.0584,3.597561,1.0584,1.707317,0.1824827,1.242084E-05,0.1824827,9.735256E-06
1.0611,-0.1303711,1.0611,-0.9833984,1.0611,-0.2006836,1.0611,-1.280488,1.0611,3.231707,1.0611,1.829268,0.1829483,1.728847E-05,0.1829483,-5.371176E-06,1.0611,0.2802734,1.0611,-0.9643555,1.0611,-0.1362305,1.0611,0.3048781,1.0611,3.536585,1.0611,1.707317,0.1829483,1.258869E-05,0.1829483,9.231709E-06
1.0638,-0.1293945,1.0638,-0.9838867,1.0638,-0.1972656,1.0638,-1.341463,1.0638,3.353659,1.0638,1.829268,0.1834138,1.829557E-05,0.1834138,-4.531929E-06,1.0638,0.2832031,1.0638,-0.9697266,1.0638,-0.1337891,1.0638,0.3658537,1.0638,3.353659,1.0638,1.707317,0.1834138,1.326009E-05,0.1834138,9.231709E-06
1.0665,-0.128418,1.0665,-0.9838867,1.0665,-0.1967773,1.0665,-1.341463,1.0665,3.597561,1.0665,1.95122,0.1838793,1.980621E-05,0.1838793,-5.035477E-06,1.0665,0.28125,1.0665,-0.9697266,1.0665,-0.1323242,1.0665,0.6097561,1.0665,3.536585,1.0665,1.768293,0.1838793,1.292439E-05,0.1838793,9.231709E-06
1.0692,-0.1274414,1.0692,-0.980957,1.0692,-0.2016602,1.0692,-1.036585,1.0692,3.109756,1.0692,1.646341,0.1843448,1.997406E-05,0.1843448,-6.042573E-06,1.0692,0.2827148,1.0692,-0.96875,1.0692,-0.1342773,1.0692,0.4878049,1.0692,3.170732,1.0692,1.707317,0.1843448,1.359579E-05,0.1843448,9.231709E-06
1.0719,-0.1279297,1.0719,-0.9848633,1.0719,-0.1967773,1.0719,-1.280488,1.0719,3.04878,1.0719,1.707317,0.1848103,1.997406E-05,0.1848103,-7.553216E-06,1.0719,0.2807617,1.0719,-0.9633789,1.0719,-0.1323242,1.0719,0.6097561,1.0719,3.292683,1.0719,1.890244,0.1848103,1.443504E-05,0.1848103,7.888914E-06
1.0746,-0.1259766,1.0746,-0.9819336,1.0746,-0.1977539,1.0746,-1.158537,1.0746,3.292683,1.0746,1.890244,0.1852759,2.047761E-05,0.1852759,-7.553216E-06,1.0746,0.2807617,1.0746,-0.9672852,1.0746,-0.1347656,1.0746,0.6707317,1.0746,3.292683,1.0746,2.134146,0.1852759,1.326009E-05,0.1852759,5.539025E-06
1.0773,-0.1220703,1.0773,-0.9829102,1.0773,-0.1987305,1.0773,-1.036585,1.0773,3.04878,1.0773,1.646341,0.1857414,2.098116E-05,0.1857414,-6.713969E-06,1.0773,0.2827148,1.0773,-0.9658203,1.0773,-0.1367188,1.0773,0.8536586,1.0773,3.04878,1.0773,2.073171,0.1857414,1.393149E-05,0.1857414,3.189136E-06
1.08,-0.128418,1.08,-0.9785156,1.08,-0.2001953,1.08,-1.280488,1.08,2.987805,1.08,1.707317,0.1862069,2.131685E-05,0.1862069,-6.881819E-06,1.08,0.2851563,1.08,-0.9624023,1.08,-0.1323242,1.08,1.097561,1.08,3.231707,1.08,2.073171,0.1862069,1.443504E-05,0.1862069,2.18204E-06
1.0827,-0.1298828,1.0827,-0.984375,1.0827,-0.199707,1.0827,-1.341463,1.0827,3.04878,1.0827,1.829268,0.1866724,2.064546E-05,0.1866724,-7.888914E-06,1.0827,0.2875977,1.0827,-0.9614258,1.0827,-0.1293945,1.0827,1.097561,1.0827,3.231707,1.0827,2.134146,0.1866724,1.19173E-05,0.1866724,1.174945E-06
1.0854,-0.1274414,1.0854,-0.9819336,1.0854,-0.1987305,1.0854,-1.219512,1.0854,3.170732,1.0854,2.012195,0.1871379,1.896696E-05,0.1871379,-9.903105E-06,1.0854,0.2905273,1.0854,-0.9658203,1.0854,-0.1289063,1.0854,0.9756098,1.0854,3.109756,1.0854,2.012195,0.1871379,1.05745E-05,0.1871379,1.678492E-07
1.0881,-0.1240234,1.0881,-0.9770508,1.0881,-0.1962891,1.0881,-1.219512,1.0881,2.865854,1.0881,1.707317,0.1876034,1.829557E-05,0.1876034,-1.02388E-05,1.0881,0.2851563,1.0881,-0.9604492,1.0881,-0.1298828,1.0881,0.9756098,1.0881,3.47561,1.0881,1.95122,0.1876034,1.12459E-05,0.1876034,-2.18204E-06
1.0908,-0.1245117,1.0908,-0.9785156,1.0908,-0.2021484,1.0908,-1.158537,1.0908,3.109756,1.0908,2.256098,0.188069,1.863127E-05,0.188069,-9.063859E-06,1.0908,0.2836914,1.0908,-0.9584961,1.0908,-0.1269531,1.0908,0.7926829,1.0908,3.353659,1.0908,2.073171,0.188069,1.292439E-05,0.188069,-4.531929E-06
1.0935,-0.1289063,1.0935,-0.9775391,1.0935,-0.2026367,1.0935,-1.341463,1.0935,3.109756,1.0935,2.195122,0.1885345,1.963836E-05,0.1885345,-8.224612E-06,1.0935,0.2841797,1.0935,-0.9594727,1.0935,-0.1313477,1.0935,1.097561,1.0935,3.414634,1.0935,2.012195,0.1885345,1.393149E-05,0.1885345,-6.210422E-06
1.0962,-0.1274414,1.0962,-0.9785156,1.0962,-0.199707,1.0962,-1.52439,1.0962,2.926829,1.0962,1.707317,0.189,2.18204E-05,0.189,-8.224612E-06,1.0962,0.2880859,1.0962,-0.9638672,1.0962,-0.1328125,1.0962,1.097561,1.0962,3.109756,1.0962,2.012195,0.189,1.292439E-05,0.189,-7.721065E-06
1.0989,-0.1318359,1.0989,-0.9760742,1.0989,-0.2006836,1.0989,-1.280488,1.0989,2.5,1.0989,2.012195,0.1894655,2.333104E-05,0.1894655,-9.063859E-06,1.0989,0.2841797,1.0989,-0.9589844,1.0989,-0.1308594,1.0989,0.9146342,1.0989,3.353659,1.0989,2.073171,0.1894655,1.19173E-05,0.1894655,-8.728161E-06
1.1016,-0.1323242,1.1016,-0.9741211,1.1016,-0.199707,1.1016,-1.52439,1.1016,2.317073,1.1016,2.195122,0.189931,2.265965E-05,0.189931,-1.02388E-05,1.1016,0.2861328,1.1016,-0.9628906,1.1016,-0.1289063,1.1016,0.9146342,1.1016,3.292683,1.1016,2.256098,0.189931,1.258869E-05,0.189931,-6.378271E-06
1.1043,-0.1289063,1.1043,-0.9755859,1.1043,-0.1972656,1.1043,-1.341463,1.1043,2.317073,1.1043,2.012195,0.1903965,2.131685E-05,0.1903965,-1.02388E-05,1.1043,0.2871094,1.1043,-0.9643555,1.1043,-0.1323242,1.1043,0.6707317,1.1043,3.47561,1.1043,1.829268,0.1903965,1.258869E-05,0.1903965,-5.035477E-07
1.107,-0.1298828,1.107,-0.9780273,1.107,-0.2011719,1.107,-1.585366,1.107,2.317073,1.107,2.012195,0.1908621,2.165255E-05,0.1908621,-8.392462E-06,1.107,0.2900391,1.107,-0.9614258,1.107,-0.1347656,1.107,0.6097561,1.107,3.414634,1.107,1.829268,0.1908621,1.292439E-05,0.1908621,5.035477E-06
1.1097,-0.1308594,1.1097,-0.9755859,1.1097,-0.203125,1.1097,-1.463415,1.1097,2.134146,1.1097,2.256098,0.1913276,2.198825E-05,0.1913276,-7.553216E-06,1.1097,0.2807617,1.1097,-0.9624023,1.1097,-0.1328125,1.1097,0.5487805,1.1097,3.536585,1.1097,1.890244,0.1913276,1.393149E-05,0.1913276,6.881819E-06
1.1124,-0.1259766,1.1124,-0.9794922,1.1124,-0.2045898,1.1124,-1.646341,1.1124,2.134146,1.1124,2.134146,0.1917931,2.165255E-05,0.1917931,-6.54612E-06,1.1124,0.2866211,1.1124,-0.9628906,1.1124,-0.1333008,1.1124,0.2439024,1.1124,3.414634,1.1124,1.829268,0.1917931,1.594568E-05,0.1917931,6.54612E-06
1.1151,-0.1279297,1.1151,-0.9750977,1.1151,-0.2050781,1.1151,-1.707317,1.1151,2.195122,1.1151,2.378049,0.1922586,2.18204E-05,0.1922586,-6.210422E-06,1.1151,0.2885742,1.1151,-0.9604492,1.1151,-0.1328125,1.1151,0.5487805,1.1151,3.780488,1.1151,2.012195,0.1922586,1.728847E-05,0.1922586,7.217518E-06
1.1178,-0.1308594,1.1178,-0.9814453,1.1178,-0.2026367,1.1178,-2.012195,1.1178,2.134146,1.1178,2.195122,0.1927241,2.131685E-05,0.1927241,-6.881819E-06,1.1178,0.2895508,1.1178,-0.9609375,1.1178,-0.1352539,1.1178,0.4878049,1.1178,3.963415,1.1178,1.890244,0.1927241,1.661708E-05,0.1927241,7.721065E-06
1.1205,-0.1293945,1.1205,-0.9780273,1.1205,-0.2075195,1.1205,-1.890244,1.1205,2.256098,1.1205,1.890244,0.1931897,2.24918E-05,0.1931897,-8.224612E-06,1.1205,0.2827148,1.1205,-0.9589844,1.1205,-0.1313477,1.1205,0.1829268,1.1205,3.902439,1.1205,2.012195,0.1931897,1.527428E-05,0.1931897,6.378271E-06
1.1232,-0.1269531,1.1232,-0.9780273,1.1232,-0.2036133,1.1232,-1.95122,1.1232,2.378049,1.1232,2.195122,0.1936552,2.400244E-05,0.1936552,-9.567407E-06,1.1232,0.2861328,1.1232,-0.9628906,1.1232,-0.1303711,1.1232,0.2439024,1.1232,4.146341,1.1232,1.768293,0.1936552,1.594568E-05,0.1936552,4.867628E-06
1.1259,-0.1259766,1.1259,-0.9770508,1.1259,-0.2036133,1.1259,-2.256098,1.1259,2.621951,1.1259,2.073171,0.1941207,2.400244E-05,0.1941207,-1.09102E-05,1.1259,0.2895508,1.1259,-0.9628906,1.1259,-0.1333008,1.1259,0.06097561,1.1259,4.146341,1.1259,1.95122,0.1941207,1.728847E-05,0.1941207,3.860533E-06
1.1286,-0.125,1.1286,-0.9819336,1.1286,-0.2036133,1.1286,-1.95122,1.1286,2.195122,1.1286,2.256098,0.1945862,2.232395E-05,0.1945862,-1.15816E-05,1.1286,0.2866211,1.1286,-0.9589844,1.1286,-0.1313477,1.1286,0,1.1286,4.146341,1.1286,1.768293,0.1945862,1.661708E-05,0.1945862,4.531929E-06
1.1313,-0.1279297,1.1313,-0.9804688,1.1313,-0.2011719,1.1313,-1.890244,1.1313,2.195122,1.1313,2.134146,0.1950517,2.064546E-05,0.1950517,-1.19173E-05,1.1313,0.2875977,1.1313,-0.9584961,1.1313,-0.1313477,1.1313,-0.1219512,1.1313,4.207317,1.1313,1.585366,0.1950517,1.594568E-05,0.1950517,5.035477E-06
1.134,-0.1264648,1.134,-0.9814453,1.134,-0.2021484,1.134,-1.707317,1.134,2.317073,1.134,2.195122,0.1955172,2.098116E-05,0.1955172,-1.15816E-05,1.134,0.2832031,1.134,-0.9604492,1.134,-0.1342773,1.134,-0.06097561,1.134,4.02439,1.134,1.646341,0.1955172,1.661708E-05,0.1955172,5.874723E-06
1.1367,-0.1235352,1.1367,-0.9838867,1.1367,-0.2011719,1.1367,-1.890244,1.1367,2.317073,1.1367,2.134146,0.1959828,2.333104E-05,0.1959828,-1.09102E-05,1.1367,0.2836914,1.1367,-0.9594727,1.1367,-0.1303711,1.1367,0.3048781,1.1367,4.02439,1.1367,1.585366,0.1959828,1.728847E-05,0.1959828,5.203327E-06
1.1394,-0.1230469,1.1394,-0.9829102,1.1394,-0.2026367,1.1394,-1.707317,1.1394,2.682927,1.1394,2.012195,0.1964483,2.400244E-05,0.1964483,-1.040665E-05,1.1394,0.2822266,1.1394,-0.9658203,1.1394,-0.1313477,1.1394,0.06097561,1.1394,4.085366,1.1394,1.585366,0.1964483,1.795987E-05,0.1964483,5.874723E-06
1.1421,-0.125,1.1421,-0.9863281,1.1421,-0.2021484,1.1421,-1.707317,1.1421,2.682927,1.1421,2.195122,0.1969138,2.366674E-05,0.1969138,-8.560311E-06,1.1421,0.2827148,1.1421,-0.9638672,1.1421,-0.1313477,1.1421,0.4268293,1.1421,4.268293,1.1421,1.768293,0.1969138,1.896696E-05,0.1969138,7.553216E-06
1.1448,-0.1264648,1.1448,-0.9838867,1.1448,-0.203125,1.1448,-1.890244,1.1448,2.804878,1.1448,2.012195,0.1973793,2.467384E-05,0.1973793,-8.224612E-06,1.1448,0.2832031,1.1448,-0.9672852,1.1448,-0.1323242,1.1448,0.2439024,1.1448,4.146341,1.1448,1.52439,0.1973793,1.728847E-05,0.1973793,8.224612E-06
1.1475,-0.1279297,1.1475,-0.9819336,1.1475,-0.199707,1.1475,-1.646341,1.1475,2.987805,1.1475,2.012195,0.1978448,2.500954E-05,0.1978448,-9.231709E-06,1.1475,0.2851563,1.1475,-0.9633789,1.1475,-0.1362305,1.1475,0.4268293,1.1475,4.268293,1.1475,1.52439,0.1978448,1.594568E-05,0.1978448,8.560311E-06
1.1502,-0.1264648,1.1502,-0.9794922,1.1502,-0.1987305,1.1502,-1.646341,1.1502,2.743902,1.1502,1.95122,0.1983103,2.400244E-05,0.1983103,-1.09102E-05,1.1502,0.2875977,1.1502,-0.9648438,1.1502,-0.1337891,1.1502,0.3048781,1.1502,4.207317,1.1502,1.768293,0.1983103,1.460288E-05,0.1983103,8.224612E-06
1.1529,-0.1259766,1.1529,-0.9853516,1.1529,-0.2006836,1.1529,-1.707317,1.1529,3.353659,1.1529,2.012195,0.1987759,2.400244E-05,0.1987759,-1.141375E-05,1.1529,0.2817383,1.1529,-0.9672852,1.1529,-0.1337891,1.1529,0.4878049,1.1529,4.512195,1.1529,1.707317,0.1987759,1.393149E-05,0.1987759,6.378271E-06
1.1556,-0.1279297,1.1556,-0.9833984,1.1556,-0.2021484,1.1556,-1.52439,1.1556,3.170732,1.1556,1.95122,0.1992414,2.400244E-05,0.1992414,-9.903105E-06,1.1556,0.2822266,1.1556,-0.9697266,1.1556,-0.1352539,1.1556,0.3048781,1.1556,4.45122,1.1556,1.829268,0.1992414,1.527428E-05,0.1992414,4.196231E-06
1.1583,-0.125,1.1583,-0.984375,1.1583,-0.1992188,1.1583,-1.402439,1.1583,3.353659,1.1583,1.95122,0.1997069,2.484169E-05,0.1997069,-7.721065E-06,1.1583,0.2822266,1.1583,-0.9697266,1.1583,-0.1337891,1.1583,0.2439024,1.1583,4.085366,1.1583,1.768293,0.1997069,1.594568E-05,0.1997069,3.356985E-06
1.161,-0.1240234,1.161,-0.9873047,1.161,-0.1992188,1.161,-1.402439,1.161,3.170732,1.161,2.134146,0.2001724,2.450599E-05,0.2001724,-6.210422E-06,1.161,0.2802734,1.161,-0.9614258,1.161,-0.1357422,1.161,0.4878049,1.161,4.02439,1.161,1.890244,0.2001724,1.460288E-05,0.2001724,3.860533E-06
1.1637,-0.1293945,1.1637,-0.9887695,1.1637,-0.1982422,1.1637,-1.646341,1.1637,3.536585,1.1637,2.012195,0.2006379,2.299535E-05,0.2006379,-5.874723E-06,1.1637,0.2807617,1.1637,-0.9643555,1.1637,-0.137207,1.1637,0.4268293,1.1637,4.146341,1.1637,1.646341,0.2006379,1.225299E-05,0.2006379,5.706874E-06
1.1664,-0.128418,1.1664,-0.9863281,1.1664,-0.1982422,1.1664,-1.768293,1.1664,3.597561,1.1664,1.95122,0.2011034,2.131685E-05,0.2011034,-7.385367E-06,1.1664,0.2822266,1.1664,-0.9667969,1.1664,-0.1362305,1.1664,0.6707317,1.1664,4.02439,1.1664,1.829268,0.2011034,1.19173E-05,0.2011034,7.049668E-06
1.1691,-0.1313477,1.1691,-0.9838867,1.1691,-0.1977539,1.1691,-1.341463,1.1691,3.841464,1.1691,1.768293,0.201569,2.064546E-05,0.201569,-1.02388E-05,1.1691,0.2836914,1.1691,-0.9672852,1.1691,-0.1362305,1.1691,0.4268293,1.1691,4.02439,1.1691,1.707317,0.201569,1.426719E-05,0.201569,7.888914E-06
1.1718,-0.1269531,1.1718,-0.9848633,1.1718,-0.1972656,1.1718,-1.585366,1.1718,4.146341,1.1718,2.195122,0.2020345,2.098116E-05,0.2020345,-1.05745E-05,1.1718,0.28125,1.1718,-0.9667969,1.1718,-0.1342773,1.1718,0.6097561,1.1718,3.841464,1.1718,1.463415,0.2020345,1.460288E-05,0.2020345,6.881819E-06
1.1745,-0.1269531,1.1745,-0.9819336,1.1745,-0.1953125,1.1745,-1.402439,1.1745,4.085366,1.1745,1.890244,0.2025,2.098116E-05,0.2025,-9.567407E-06,1.1745,0.284668,1.1745,-0.9672852,1.1745,-0.1376953,1.1745,0.1219512,1.1745,3.841464,1.1745,1.585366,0.2025,1.393149E-05,0.2025,4.196231E-06
1.1772,-0.1245117,1.1772,-0.980957,1.1772,-0.1967773,1.1772,-1.829268,1.1772,3.658537,1.1772,1.829268,0.2029655,2.131685E-05,0.2029655,-8.560311E-06,1.1772,0.2841797,1.1772,-0.9663086,1.1772,-0.1362305,1.1772,0.2439024,1.1772,4.02439,1.1772,1.646341,0.2029655,1.326009E-05,0.2029655,3.356985E-07
1.1799,-0.1254883,1.1799,-0.9814453,1.1799,-0.1982422,1.1799,-1.707317,1.1799,4.085366,1.1799,2.012195,0.203431,2.198825E-05,0.203431,-8.224612E-06,1.1799,0.2841797,1.1799,-0.9663086,1.1799,-0.1318359,1.1799,0,1.1799,3.963415,1.1799,1.707317,0.203431,1.225299E-05,0.203431,-3.524834E-06
1.1826,-0.1323242,1.1826,-0.9873047,1.1826,-0.1992188,1.1826,-1.829268,1.1826,4.268293,1.1826,2.073171,0.2038966,2.400244E-05,0.2038966,-8.224612E-06,1.1826,0.284668,1.1826,-0.96875,1.1826,-0.1328125,1.1826,0.1829268,1.1826,3.902439,1.1826,1.707317,0.2038966,1.19173E-05,0.2038966,-4.196231E-06
1.1853,-0.128418,1.1853,-0.9858398,1.1853,-0.199707,1.1853,-1.829268,1.1853,4.02439,1.1853,2.012195,0.2043621,2.467384E-05,0.2043621,-8.560311E-06,1.1853,0.2827148,1.1853,-0.965332,1.1853,-0.1328125,1.1853,0.1829268,1.1853,3.841464,1.1853,2.012195,0.2043621,1.292439E-05,0.2043621,-3.692683E-06
1.188,-0.1328125,1.188,-0.9848633,1.188,-0.1992188,1.188,-1.768293,1.188,3.902439,1.188,1.95122,0.2048276,2.400244E-05,0.2048276,-8.224612E-06,1.188,0.2866211,1.188,-0.9682617,1.188,-0.1333008,1.188,-0.1829268,1.188,3.963415,1.188,1.707317,0.2048276,1.527428E-05,0.2048276,-4.531929E-06
1.1907,-0.1362305,1.1907,-0.9863281,1.1907,-0.1948242,1.1907,-2.012195,1.1907,3.841464,1.1907,1.890244,0.2052931,2.333104E-05,0.2052931,-7.888914E-06,1.1907,0.2890625,1.1907,-0.9663086,1.1907,-0.1342773,1.1907,-0.1219512,1.1907,3.780488,1.1907,1.829268,0.2052931,1.594568E-05,0.2052931,-7.217518E-06
1.1934,-0.1342773,1.1934,-0.9858398,1.1934,-0.1948242,1.1934,-2.073171,1.1934,4.085366,1.1934,2.073171,0.2057586,2.467384E-05,0.2057586,-6.54612E-06,1.1934,0.2866211,1.1934,-0.9682617,1.1934,-0.1298828,1.1934,-0.3658537,1.1934,4.02439,1.1934,1.768293,0.2057586,1.426719E-05,0.2057586,-9.567407E-06
1.1961,-0.1337891,1.1961,-0.9868164,1.1961,-0.1928711,1.1961,-2.012195,1.1961,3.902439,1.1961,1.95122,0.2062241,2.400244E-05,0.2062241,-5.203327E-06,1.1961,0.2841797,1.1961,-0.9648438,1.1961,-0.1308594,1.1961,-0.3048781,1.1961,4.207317,1.1961,1.707317,0.2062241,1.225299E-05,0.2062241,-8.89601E-06
1.1988,-0.128418,1.1988,-0.984375,1.1988,-0.1972656,1.1988,-1.95122,1.1988,3.353659,1.1988,2.073171,0.2066897,2.265965E-05,0.2066897,-4.196231E-06,1.1988,0.2851563,1.1988,-0.9658203,1.1988,-0.1318359,1.1988,-0.1219512,1.1988,3.719512,1.1988,1.707317,0.2066897,1.12459E-05,0.2066897,-6.210422E-06
1.2015,-0.1347656,1.2015,-0.9848633,1.2015,-0.1923828,1.2015,-1.95122,1.2015,3.231707,1.2015,1.95122,0.2071552,2.131685E-05,0.2071552,-4.531929E-06,1.2015,0.2861328,1.2015,-0.9624023,1.2015,-0.125,1.2015,-0.3658537,1.2015,4.085366,1.2015,1.646341,0.2071552,1.19173E-05,0.2071552,-3.524834E-06
1.2042,-0.1328125,1.2042,-0.9838867,1.2042,-0.1923828,1.2042,-1.829268,1.2042,3.231707,1.2042,1.95122,0.2076207,1.997406E-05,0.2076207,-5.539025E-06,1.2042,0.2875977,1.2042,-0.9658203,1.2042,-0.125,1.2042,-0.3658537,1.2042,3.963415,1.2042,1.646341,0.2076207,1.393149E-05,0.2076207,-2.853437E-06
1.2069,-0.1347656,1.2069,-0.9848633,1.2069,-0.1914063,1.2069,-2.134146,1.2069,2.926829,1.2069,1.890244,0.2080862,1.913481E-05,0.2080862,-6.881819E-06,1.2069,0.2890625,1.2069,-0.9667969,1.2069,-0.1269531,1.2069,-0.3658537,1.2069,4.146341,1.2069,1.829268,0.2080862,1.460288E-05,0.2080862,-8.392462E-07
1.2096,-0.1333008,1.2096,-0.987793,1.2096,-0.1923828,1.2096,-2.195122,1.2096,2.926829,1.2096,1.890244,0.2085517,1.863127E-05,0.2085517,-7.888914E-06,1.2096,0.2856445,1.2096,-0.9672852,1.2096,-0.1298828,1.2096,-0.5487805,1.2096,4.390244,1.2096,1.52439,0.2085517,1.393149E-05,0.2085517,3.356985E-07
1.2123,-0.1352539,1.2123,-0.9848633,1.2123,-0.1894531,1.2123,-1.95122,1.2123,2.560976,1.2123,2.073171,0.2090172,2.030976E-05,0.2090172,-8.89601E-06,1.2123,0.2832031,1.2123,-0.9619141,1.2123,-0.1308594,1.2123,-0.5487805,1.2123,4.512195,1.2123,1.585366,0.2090172,1.258869E-05,0.2090172,8.392462E-07
1.215,-0.1274414,1.215,-0.9824219,1.215,-0.1958008,1.215,-1.829268,1.215,2.439024,1.215,2.012195,0.2094828,2.064546E-05,0.2094828,-9.567407E-06,1.215,0.2851563,1.215,-0.9663086,1.215,-0.1303711,1.215,-0.7317073,1.215,4.634146,1.215,1.52439,0.2094828,1.376364E-05,0.2094828,-1.678492E-07
1.2177,-0.1259766,1.2177,-0.9794922,1.2177,-0.1938477,1.2177,-2.134146,1.2177,2.621951,1.2177,1.95122,0.2099483,1.913481E-05,0.2099483,-1.02388E-05,1.2177,0.2836914,1.2177,-0.9638672,1.2177,-0.1269531,1.2177,-0.7926829,1.2177,4.573171,1.2177,1.585366,0.2099483,1.460288E-05,0.2099483,-1.678492E-07
1.2204,-0.1293945,1.2204,-0.9848633,1.2204,-0.1933594,1.2204,-1.768293,1.2204,2.682927,1.2204,1.95122,0.2104138,1.863127E-05,0.2104138,-1.02388E-05,1.2204,0.2866211,1.2204,-0.9614258,1.2204,-0.128418,1.2204,-0.9146342,1.2204,4.695122,1.2204,1.52439,0.2104138,1.460288E-05,0.2104138,5.035477E-07
1.2231,-0.1303711,1.2231,-0.9824219,1.2231,-0.1918945,1.2231,-1.829268,1.2231,2.5,1.2231,2.012195,0.2108793,2.030976E-05,0.2108793,-9.063859E-06,1.2231,0.2802734,1.2231,-0.9633789,1.2231,-0.1323242,1.2231,-0.6707317,1.2231,4.878049,1.2231,1.585366,0.2108793,1.359579E-05,0.2108793,1.007095E-06
1.2258,-0.1274414,1.2258,-0.9799805,1.2258,-0.1938477,1.2258,-1.585366,1.2258,2.378049,1.2258,2.195122,0.2113448,2.131685E-05,0.2113448,-8.224612E-06,1.2258,0.2827148,1.2258,-0.9604492,1.2258,-0.1328125,1.2258,-0.8536586,1.2258,5,1.2258,1.52439,0.2113448,1.19173E-05,0.2113448,6.713969E-07
1.2285,-0.1308594,1.2285,-0.9819336,1.2285,-0.1958008,1.2285,-1.707317,1.2285,2.317073,1.2285,2.073171,0.2118103,2.047761E-05,0.2118103,-8.89601E-06,1.2285,0.2856445,1.2285,-0.9624023,1.2285,-0.1303711,1.2285,-0.6707317,1.2285,5.304878,1.2285,1.585366,0.2118103,1.15816E-05,0.2118103,2.18204E-06
