time,hip_angle_l,hip_angle_l_velocity,hip_angle_l_velocity_filt,hip_angle_l_torque_estimated,hip_angle_l_torque_desired,hip_angle_l_torque_measured,hip_angle_l_torque_interaction,knee_angle_l,knee_angle_l_velocity,knee_angle_l_velocity_filt,knee_angle_l_torque_estimated,knee_angle_l_torque_desired,knee_angle_l_torque_measured,knee_angle_l_torque_interaction,thigh_imu_l_accel_x,thigh_imu_l_accel_y,thigh_imu_l_accel_z,thigh_imu_l_gyro_x,thigh_imu_l_gyro_y,thigh_imu_l_gyro_z,shank_imu_l_accel_x,shank_imu_l_accel_y,shank_imu_l_accel_z,shank_imu_l_gyro_x,shank_imu_l_gyro_y,shank_imu_l_gyro_z,foot_imu_l_accel_x,foot_imu_l_accel_y,foot_imu_l_accel_z,foot_imu_l_gyro_x,foot_imu_l_gyro_y,foot_imu_l_gyro_z,insole_l_force_y,insole_l_cop_x,insole_l_cop_z,hip_angle_r,hip_angle_r_velocity,hip_angle_r_velocity_filt,hip_angle_r_torque_estimated,hip_angle_r_torque_desired,hip_angle_r_torque_measured,hip_angle_r_torque_interaction,knee_angle_r,knee_angle_r_velocity,knee_angle_r_velocity_filt,knee_angle_r_torque_estimated,knee_angle_r_torque_desired,knee_angle_r_torque_measured,knee_angle_r_torque_interaction,thigh_imu_r_accel_x,thigh_imu_r_accel_y,thigh_imu_r_accel_z,thigh_imu_r_gyro_x,thigh_imu_r_gyro_y,thigh_imu_r_gyro_z,shank_imu_r_accel_x,shank_imu_r_accel_y,shank_imu_r_accel_z,shank_imu_r_gyro_x,shank_imu_r_gyro_y,shank_imu_r_gyro_z,foot_imu_r_accel_x,foot_imu_r_accel_y,foot_imu_r_accel_z,foot_imu_r_gyro_x,foot_imu_r_gyro_y,foot_imu_r_gyro_z,insole_r_force_y,insole_r_cop_x,insole_r_cop_z
170,-12.9472155444814,28.1433931111822,-16.3148953040698,-0.0282167584893021,-1.92069788658953,-1.42079810993889,-1.78544484351568,-23.3749541601589,71.5035582638398,-32.5552740461624,0.0621571274597996,0.0267450500988389,-2.25129060768211,-2.66115878087519,0.403345333262749,0.372078458362033,-0.54082058340832,6.7794111015033,-58.2557952273484,-40.3536194885128,-13.0994536502726,-7.14123087511252,-2.83848695007676,39.7973815840299,-190.996092833441,-11.3027374348779,14.9377024717875,-9.15202694725817,-7.24980369147291,29.2764893695937,-227.014726482785,57.3356472085863,27.8751124993382,0,0,-42.6137286971241,71.1752209764115,63.0953380514315,-0.122913078916052,4.21071032102669,3.13449870164893,3.33002203277078,-33.7733912055012,196.431437612583,216.202136048163,-0.233193900273046,-1.84899976108593,-0.935750853646785,-0.383574229227035,3.42858700831169,1.89706495844144,2.15041929165122,-0.751533487711489,-62.0602989917053,-117.307336100637,2.98614431679816,10.3936195669437,4.63123087511247,25.3056733653201,-116.98100403331,296.012592736383,-21.754581680835,15.5670309661525,-1.88411908639709,60.6194249711084,-93.7865414139554,365.035883064034,0,0,0
170.005,-12.6160461091566,33.8650849523337,-6.29394746928457,-0.0502291244535071,-1.87107753446753,-1.56803648901907,-1.93072495067659,-22.6031514938702,78.7524951289608,-9.36987366412952,0.058706249808845,0.191605915256543,-1.85701487047086,-2.20895684099826,-0.275272763366862,0.197372816304942,-0.341883536262556,10.6639656817573,-60.0472364370723,-49.8333879052866,-12.9646005823187,-6.94146678136582,-3.29510931709899,36.4948509564797,-149.661822180395,6.5782351038174,12.8524392537177,-11.1167156628416,-9.72200846199386,27.0225385400087,-213.577837056998,17.2130840336854,25.4655770248809,0,0,-42.0256849422021,64.6964054836679,65.1457876603505,-0.132919122575141,4.28330082285435,3.36988397817438,3.62136791681991,-32.1164852513909,183.160473538505,211.653542015698,-0.232180140655126,-1.89121628193254,-0.965169678723105,-0.323154293398137,3.04050661725779,2.31619613552146,1.82311540497618,-1.80410351678658,-61.3501733558157,-114.106543405943,3.47784475913184,10.4553074377978,4.35474563260982,32.8222730362266,-130.719091850806,284.355030259658,-22.0677108764648,15.3927907943726,-2.2177882194519,60.5499992370605,-98.629997253418,363.579986572266,0,0,0
170.01,-12.233856313553,39.0427984819013,3.95652092927832,-0.0721268261621546,-1.7890378117978,-1.67783816834806,-2.03538506309197,-21.7599093247874,83.5319226766276,13.8356046797341,0.0553894848711529,0.339961588311322,-1.44220850979559,-1.7343005278579,-1.01634264160932,-0.0718548173636731,0.0355902593965265,14.4435008724977,-60.6229045350274,-56.9538540216589,-12.337327951297,-6.5001555055585,-3.74474722075172,32.8695125776915,-107.480427621905,23.5364578227424,10.0664808363937,-12.4043322164839,-12.2580216403926,28.5768425103658,-194.265611032634,-32.5634983273774,23.5226971942827,0,0,-41.4797010324618,57.1289776508741,66.5245921611831,-0.139967803277375,4.33288706230143,3.60168752342447,3.90846983126593,-30.5513334943732,168.423903325426,206.070524865786,-0.230963874171108,-1.93062274088116,-1.00177025504296,-0.27460118044839,2.58531762837479,2.66591450502913,1.43453943885654,-3.04110460822565,-60.5586297211275,-110.364700769236,3.88029843832718,10.0695070142933,3.8162903652726,40.4601551215942,-147.464865628819,270.001020364815,-22.0677108764648,15.3927907943726,-2.2177882194519,60.5499992370605,-98.629997253418,363.579986572266,0,0,0
170.015,-11.8516847417618,44.2202651244992,14.2065005586061,-0.0940234837309152,-1.70700200099736,-1.78763461204481,-2.13735460158121,-20.9167073637042,88.3111223286457,37.0399765254886,0.0520728780855177,0.488310187378258,-1.02742192817624,-1.25985560717392,-1.75737718369509,-0.34106961355214,0.413046056114371,18.222855845081,-61.1985451836167,-64.0739806155194,-11.7100852302806,-6.05886527263102,-4.19436368448915,29.2443470645518,-65.3010443830101,40.4938719291022,7.28065526087868,-13.6918873731897,-14.7939138950274,30.1310723674304,-174.954305865892,-82.337707210357,21.5799100052938,0,0,-40.9337431566674,49.5619106528997,67.9033309169984,-0.147016147880015,4.38247093734649,3.83348001567317,4.19347342732654,-28.986256367899,153.688035790689,200.487773928784,-0.229747665681868,-1.97002732082639,-1.03836908615128,-0.232980644964742,2.13015034409739,3.01561619904713,1.04598200105877,-4.27804671620623,-59.7671238293172,-106.623036553405,4.28273292747487,9.68372498676549,3.27786077289569,48.0976730126986,-164.20984092439,255.647694906836,-22.0677108764648,15.3927907943726,-2.2177882194519,60.5499992370605,-98.629997253418,363.579986572266,0,0,0
170.02,-11.4640259526447,47.7739012938994,23.5390579998697,-0.113112098560087,-1.59877388925059,-1.87056998665114,-2.21024994749343,-20.1488652257313,87.0471627533181,56.964971302848,0.0493896074821823,0.617632432252004,-0.576601222704976,-0.751514355255784,-2.39468791500665,-0.666954404603808,0.629425999704909,21.6620896387017,-58.8937746954569,-70.9990490712049,-11.6403438099454,-5.37769145639662,-4.61203187250996,26.3058128710581,-22.8270466374101,52.2878490610034,4.6588577218722,-14.5419860610185,-16.9800728608923,34.1755740965153,-148.75666480749,-129.780768962003,24.2878117160986,0.016228213336803,0.00271845449372891,-40.4392154590989,42.02555126607,68.1861080365459,-0.152055431258335,4.40306669954292,4.05247276997661,4.46212960157048,-27.5239641281608,138.697225353685,193.798007315921,-0.227465742601953,-2.01034523019176,-1.06813192367554,-0.193579791003685,1.73157518075844,3.16751143573854,0.777214106536832,-5.13644370847656,-58.5369978704296,-101.647787451019,4.87015936254981,9.35506492548326,2.70028478677879,54.0552631722766,-180.3728442426,240.024740543997,-22.0832880637068,15.1084786178405,-2.44406102233815,61.2683281363051,-98.4630618388804,359.880425140079,0,0,0
170.025,-11.0525621060034,44.2583656153426,28.8761959756454,-0.119973513888858,-1.37655476491578,-1.83656356423341,-2.16441391657036,-19.7092191394552,59.4779647921948,62.6109036138569,0.049463767296948,0.664107284527657,0.0309802372713822,-0.0902510162272843,-2.58036299247455,-1.23945256012984,0.144607741872029,23.6200829967738,-44.0512299225594,-77.0736040747846,-13.9973857655796,-3.65246052825733,-4.89054448871182,26.3567525356583,20.9205740670909,41.6032544111012,2.75160832447542,-13.4876871777439,-17.6434105555592,49.059236769282,-92.5886643844889,-167.066643252445,47.2393143475481,0.103093473699088,0.0172696100941584,-40.1686628106312,34.6244244666501,63.6981728129499,-0.148348348643286,4.2974747131348,4.21570359758172,4.67002262033352,-26.509391696407,122.599775616321,182.290858022822,-0.220545303037501,-2.05463043802755,-1.06813192367554,-0.135397291687149,1.57942477005558,2.45833579263195,1.02993851753481,-4.34687890717271,-55.3978410394393,-91.303851808131,6.2627224435591,9.27512148935124,1.95242683586639,52.698994602295,-193.999204523166,218.878412276819,-22.1666685565188,13.5866320210489,-3.6552384654546,65.1133494928533,-97.5695014729584,340.077668030377,0,0,0
170.03,-10.6411178790381,40.7429975667534,34.2130794626754,-0.126834602047338,-1.15434623657203,-1.80255876333115,-2.11714546278167,-19.2695940166584,31.9100814027844,68.2565667119957,0.0495379235755791,0.710579920760381,0.63853272616916,0.565753804875382,-2.76602921646746,-1.81192341744133,-0.340187398553935,25.5779829925839,-29.2093928811503,-83.1478694276392,-16.3543153312675,-1.92731186365647,-5.16904382470119,26.4076897713217,64.6661087702232,30.9191692307132,0.844449869735378,-12.433438566207,-18.3067166205439,63.9421897499509,-36.4233421991581,-204.350739654546,70.189722591117,0.189954592097785,0.0318200718573,-39.8981230628239,27.2236505723798,59.2104515858837,-0.144641442791664,4.1918877616297,4.37892664191257,4.8715027319434,-25.4948676421295,106.503093447607,170.784257420802,-0.21362519345777,-2.09891353422841,-1.06813192367554,-0.0898655462087715,1.42728161428361,1.74919396488123,1.2826508779696,-3.55735175439076,-52.2588338916852,-80.9604093912416,7.65521912350598,9.19518186513207,1.20460454478382,51.3427907027582,-207.624915063113,197.73309232207,-22.2500450735302,12.064857989897,-4.86635815645189,68.9581875086921,-96.6759837143397,320.275855168104,0,0,0
170.035,-10.2296540323968,37.2274618881966,39.5502174384511,-0.133696017376109,-0.932127112237221,-1.76855234091342,-2.06871422842084,-18.8299479303824,4.34088344166115,73.9024990230045,0.0496120833903447,0.757054773036033,1.24611418614552,1.21552726112525,-2.95170429393536,-2.38442157296737,-0.825005656386814,27.5359763506559,-14.3668481082528,-89.2224244312189,-18.7113572869018,-0.202080935517181,-5.44755644090304,26.4586294359219,108.413729474724,20.234574580811,-1.06279952766141,-11.3791396829325,-18.9700543152108,78.8258524227175,19.7446582238431,-241.636613944987,93.1412252225665,0.27681985246007,0.0463712274577295,-39.6275704143562,19.8225237729599,54.7225163622876,-0.140934360176615,4.08629577522158,4.54215746951768,5.06527363450328,-24.4802952103758,90.4056437102429,159.277108127703,-0.206704753893318,-2.1431987420642,-1.06813192367554,-0.0583472144647374,1.27513120358075,1.04001832177464,1.53537528896757,-2.76778695308691,-49.1196770606949,-70.6164737483536,9.04778220451527,9.11523842900005,0.456746593871422,49.9865221327766,-221.251275343679,176.586764054892,-22.3334255663423,10.5430113931054,-6.07753559956835,72.8032088652403,-95.7824233484177,300.473098058402,0,0,0
170.04,-9.81613636571793,35.1517948002856,43.3651900879972,-0.136850730193756,-0.704898880753851,-1.7302064235944,-2.01496349800298,-18.6953679792258,-17.9401972549033,74.2692461926174,0.0469409314540717,0.788041966601806,1.59725959961509,1.60196672058795,-3.13137439317092,-2.24655082159494,-1.32679083810291,29.3015869568103,-2.3612713031243,-92.4822768437098,-18.9338898964996,1.5600446365542,-4.89331190199505,26.2766176510615,138.244047487362,-0.0981791005032466,-7.7355342591846,-4.44357017730369,-17.6341680340529,77.6981997036122,47.1062519534969,-245.101044405141,164.596946034297,0.33686158001052,0.0529533567406851,-39.4452418189825,12.7393055750664,49.5161763232786,-0.136531683502656,3.93049972683983,4.65185146834015,5.19661198859861,-23.6746593092907,73.2235151600558,146.74029863319,-0.198498570408812,-2.18773248923223,-1.08174308227729,-0.0554683980308989,1.24530219273001,0.435287313878613,1.60654745484755,-3.32390885406297,-46.150417451202,-60.0076850601556,10.3189501178361,9.15782247466794,-0.168378856826356,47.9885314719819,-228.356426324344,159.484349987805,-21.894991472529,9.15486513766281,-6.09610348006633,78.9552172815536,-81.041265174568,275.107260066576,0,0,0
170.045,-9.39796199783049,36.2957357494053,43.7767857669038,-0.131716759157104,-0.466433890023363,-1.682150326255,-1.95060907777237,-19.2429761120297,-28.3990825502294,62.8303907176626,0.0381301215338115,0.784399426344848,1.3750001358445,1.40787348508747,-3.29764349403216,-0.520085363337184,-1.86659600117294,30.6372511358918,3.3019448161811,-89.4482102137543,-14.3831273825168,3.40494835843913,-2.47671579221737,25.5736365041765,136.956186026269,-42.0099150777858,-25.0661888536024,15.6451518218498,-11.8272801294446,40.7648218307512,10.0532966400077,-172.93228379828,344.532000390977,0.336928034065789,0.0417156437030806,-39.4601774866936,6.36592230410536,42.702488981771,-0.130572794454571,3.66241002751545,4.64183983569807,5.19834242288745,-23.3361366227146,53.6131053127748,131.898960930625,-0.187415855855019,-2.23282890880931,-1.1257945048384,-0.0986953403364538,1.4890116967321,0.0640289105857182,1.27173159420918,-6.8894292310636,-43.5606349060777,-48.8049775033966,11.3188423819195,9.47441706397906,-0.51913832987609,44.5551715505956,-220.879518846076,151.422562195328,-20.2895737970984,8.06549411373763,-3.44768268710384,90.2672104959332,-35.3309278351546,237.296982120918,0,0,0
170.05,-8.97980756959437,37.4396221524183,44.1883618198482,-0.126583032921664,-0.227980269929474,-1.63409652035645,-1.88535869424709,-19.7905581334407,-38.8574691384557,51.3920806773576,0.0293197317360919,0.780757059773769,1.15275126998845,1.20683647986964,-3.4639046667463,1.2062977725165,-2.4063754249161,31.9728516269998,8.96489089847909,-86.4142882560584,-9.83258186083386,5.24976411047275,-0.0602349120844301,24.8706888772776,135.66838597379,-83.9196525935017,-42.3960170769257,35.7329159380164,-6.02066911249142,3.83320503827719,-26.9978918913285,-100.766964387328,524.458474972034,0.336994484952355,0.0304784665091266,-39.4751124422328,-0.00715706721465281,35.8891265347581,-0.124614189541955,3.39433311141153,4.6318286804369,5.18937273115131,-22.9976300777887,34.003630541302,117.058330901992,-0.176333669754142,-2.27792317807075,-1.16984382691207,-0.157825923152107,1.73270958002543,-0.307211790132158,0.936931698469754,-10.4547795946951,-40.9709758485819,-37.6028041211348,12.3186869685155,9.79099655722927,-0.869881077793599,41.1219753408211,-213.402967886379,143.361158810051,-18.6842326721958,6.97617503388188,-0.799388177795412,101.578664324789,10.37722991541,199.488507068544,0,0,0
170.055,-8.56163320170693,38.583563101538,44.5999574987548,-0.121449061885011,0.0104847208010133,-1.58604042301706,-1.81912143990008,-20.3381662662447,-49.3163544337818,39.9532252024027,0.0205089218158317,0.777114519516812,0.93049180621785,0.99938839055749,-3.63017376760754,2.93276323077426,-2.94618058798613,33.3085158060812,14.6281070177845,-83.3802216261028,-5.28181934685101,7.09466783235768,2.35636119769326,24.1677077303926,134.380524512697,-125.831388570784,-59.7266716713435,55.8216379371699,-0.213781207883095,-33.1001728345837,-64.0508472048177,-28.5982037804666,704.393529328714,0.337060939007625,0.0192407534715221,-39.4900481099438,-6.38054033817566,29.0754391932505,-0.11865530049387,3.12624341208715,4.62181704779481,5.16914423240587,-22.6591073912126,14.3932206940211,102.216993199427,-0.165250955200349,-2.32301959764783,-1.21389524947318,-0.23269961148582,1.97641908402751,-0.678470193425053,0.602115837831382,-14.0202999716957,-38.3811933034576,-26.4000965643757,13.3185792325988,10.1075911465404,-1.22064055084333,37.6886154194349,-205.92606040811,135.299371017574,-17.0788149967652,5.8868040099567,1.84903261516708,112.890657539168,56.0875672548234,161.678229122886,0,0,0
170.06,-8.14347877347082,39.7274495045511,45.0115335516993,-0.116315335649571,0.248938340894903,-1.53798661711851,-1.75174934381464,-20.8857482876557,-59.7747410220081,28.5149151620977,0.011698532018112,0.773472152945733,0.708242940361797,0.786444895029365,-3.79643494032169,4.65914636662794,-3.48596001172929,34.6441162971892,20.2910531000825,-80.3462996684069,-0.731273825168078,8.9394835843913,4.77284207782619,23.4647601034936,133.092724460218,-167.7411260865,-77.0564998946669,75.9094020533365,5.59282980907004,-70.0317896270578,-101.102035736154,43.5671156304854,884.320003909771,0.337127389894191,0.00800357627756801,-39.504983065483,-12.7536197094957,22.2620767462376,-0.112696695581254,2.85816649598323,4.61180589253365,5.13736845422097,-22.3206008462866,-5.2162540774518,87.3763631707941,-0.154168769099472,-2.36811386690927,-1.25794457154685,-0.322745159389698,2.22011696732084,-1.04971089414293,0.267315942091953,-17.5856503353273,-35.7915342459619,-15.1979231821139,14.3184238191948,10.4241706397906,-1.57138329876084,34.2554192096604,-198.449509448413,127.237967632297,-15.4734738718626,4.79748493010095,4.49732712447551,124.202111368024,101.795725005388,123.869754070512,0,0,0
170.065,-8.1093620300293,39.8207778930664,43.9853330840311,-0.106732949316229,0.471039105693829,-1.53406596183777,-1.72717460630268,-20.9304248809814,-60.6280288696289,11.125659305979,-0.0310441436023677,0.741960801795305,0.69010990858078,0.77329186630908,-4.23459420327664,6.51847594698947,-2.44464677032242,29.4522500299527,14.8350081097829,-84.28608499104,-0.111273218198905,10.9768061932589,6.68345116351876,10.0886294917826,68.2237784760307,-164.342917241566,-62.7070905223814,68.7258812878384,6.26274622985021,-45.3986402413771,-86.4151502357176,89.631912580353,1022.60967337994,0.333184145413923,0.00357555749722486,-39.5062015914917,-13.2735919952393,15.0717502180286,-0.100915320970296,2.3807158695132,4.61098909378052,5.10324032739633,-22.2929824829102,-6.81616878509521,69.837174934779,-0.149520258615678,-2.38963425591064,-1.2615385055542,-0.386552950746929,4.37302058332465,0.266641970155489,-1.24231112386518,-19.1730614140524,-38.8897802242397,-0.989986447193655,15.040659892518,10.6032558958572,-0.210647370343332,26.2272165988382,-153.847837058423,112.678345977896,-15.0951878676319,5.58712390550651,6.11781936516956,112.34823098641,116.78930964137,107.005790882813,0,0,0
170.07,-8.1093620300293,39.8207778930664,42.8314648199712,-0.0967558755294219,0.691675676724285,-1.53406596183777,-1.70496358104308,-20.9304248809814,-60.6280288696289,-6.79133026256391,-0.0767988849705824,0.707975419116705,0.69010990858078,0.775347174171242,-4.69688406553272,8.38951893978921,-1.2629354064489,23.6808030681904,8.39152022034903,-88.8451566109224,0.159535636022114,13.0311238651779,8.54902327037465,-4.41259534953231,-2.28986257815087,-156.92007322638,-45.5442848510089,59.1201610045705,6.47632318899948,-15.2978265713168,-67.1330122674518,133.375747029423,1157.19346759887,0.328884914976115,-0.000247357806431283,-39.5062015914917,-13.2735919952393,7.84831039267003,-0.088617307681218,1.88469087162893,4.61098909378052,5.05868952971218,-22.2929824829102,-6.81616878509521,52.0591780229632,-0.145443508034865,-2.40905940429553,-1.2615385055542,-0.459661660163423,6.69541166649276,1.73283940310967,-2.85622247730357,-20.5846850711715,-42.4931353489912,13.4842216734109,15.73819785036,10.7701179171449,1.30205259313367,17.7912455570113,-105.950568328947,97.5422281998859,-14.8259237001426,6.54363415413655,7.64692537597733,98.4371348343923,129.053667955579,92.0032535693497,0,0,0
170.075,-8.1093620300293,39.8207778930664,41.6775415338206,-0.0867783259868673,0.912322768787169,-1.53406596183777,-1.68097747911974,-20.9304248809814,-60.6280288696289,-24.7091742009303,-0.122555808148981,0.673988415848592,0.69010990858078,0.776024034887353,-5.15919597203381,10.2606511530836,-0.0811676927892925,17.9090808955674,1.94772507385118,-93.4044456296708,0.430357403735776,15.085539497026,10.4146843368465,-18.9145116802775,-72.8068660681273,-149.496875253632,-28.3806607729953,49.5139826735089,6.68991033254431,14.804422452979,-47.8499548324001,177.121667398785,1291.78367943233,0.324585479529942,-0.00407045540541448,-39.5062015914917,-13.2735919952393,0.624526118318777,-0.0763187079626286,1.38864222084313,4.61098909378052,5.00352095019775,-22.2929824829102,-6.81616878509521,34.2803333691747,-0.141366563054616,-2.42848547896664,-1.2615385055542,-0.544007980351001,9.01791349264324,3.19910675153917,-4.47021078994054,-21.9963760414211,-46.096662299365,27.959119995156,16.4357690702285,10.9369878952311,2.81482468955442,9.35487224676413,-58.0510156230877,82.4053886576409,-14.5566466928188,7.50019001386042,9.17610430204954,84.5253753331712,141.318611094465,77.0000008614218,0,0,0
170.08,-7.98476217765565,40.3320525354662,40.8015665672384,-0.0798303306900664,1.07424714846667,-1.48019130355991,-1.60115213042771,-21.0425645850197,-57.4581264129463,-39.5187654087498,-0.1612478989401,0.639754673701127,0.666931276234676,0.753756375890128,-4.80309058936099,12.3069807856422,0.967433991052281,10.8954683130552,-2.43122046594252,-96.3501966196803,-0.470945848095377,16.7695955416484,11.2947525149345,-28.7243223509182,-126.65428443175,-140.923621307654,-14.8522370996294,40.345491382025,6.70895111083294,36.1320570035669,-30.395224790675,206.836038374766,1404.32536398666,0.320812266688868,-0.00703903676316589,-39.5887487830209,-15.2675629918664,-5.89858510130122,-0.0673531868842853,0.891726554249889,4.58906334549965,4.91674488188538,-22.3911049957737,-9.9860713097353,18.185639593686,-0.135363805228943,-2.4302885310033,-1.30351061974076,-0.679612719236865,11.0955567767462,4.63059246424782,-5.62793361607491,-22.4722464065865,-45.1567248975078,39.8049571721247,16.4013085417259,11.200379502961,3.84733998810417,2.4038619636299,-10.9918639967129,67.9496623607324,-14.3581428527832,8.20533752441406,10.3033742904663,74.2699966430664,150.360000610352,65.9400024414062,0,0,0
170.085,-7.51059993777537,42.2776979356492,40.7051606526543,-0.0813798786057593,1.07146617357033,-1.27517237171391,-1.36808086051851,-21.4693099802455,-45.3951261731447,-45.6114671912297,-0.18012804695921,0.604822543454056,0.578725455591873,0.66829402839879,-2.15101580077065,14.8451627919005,1.64265548630686,0.396709777092005,-1.01844109662605,-94.7700263298288,-4.66057319816908,17.4149879748636,9.41009814062945,-25.3731561218049,-133.748311644029,-129.122561409928,-11.5191808427356,32.4031792124031,6.18223471872012,32.8481487980356,-18.0663315790693,197.193116799359,1455.03476945357,0.318514580659988,-0.00761098366109413,-39.9028804652475,-22.8555796388024,-10.4572829086683,-0.067736319454486,0.392288481550742,4.50562535004575,4.76001593046194,-22.7645082510403,-22.0490718081479,6.81257127360308,-0.123957478296376,-2.38265407135848,-1.46323465870295,-0.940058265922544,12.4866757609455,5.964765057281,-5.50590563500479,-20.3229469869155,-31.4708432345558,44.2776425688233,14.3132741989707,11.7345908867568,3.53277897023455,-0.381522954074612,33.7182508782197,55.4020389574192,-14.3581428527832,8.20533752441406,10.3033742904663,74.2699966430664,150.360000610352,65.9400024414062,0,0,0
170.09,-7.0364603071951,44.2232505623532,40.6087593349572,-0.082929352634941,1.06868533127816,-1.07016321570864,-1.13285340654606,-21.8960350271309,-33.3327011288533,-51.7038784576985,-0.199007294723312,0.569892078862632,0.49052384083409,0.586174415768892,0.500932529933522,17.3832237709793,2.31784478522847,-10.1015481505107,0.394270907662325,-93.1899313866437,-8.85000077581525,18.0603496340738,7.52553363159119,-22.0221496850925,-140.842000594472,-117.322064217708,-8.1862835147117,24.4612457530697,5.65554344182721,29.564397177866,-5.73802624144859,187.55065502376,1505.74175696294,0.316217004190809,-0.00818290328709322,-40.216997168851,-30.4432344691902,-15.0157633453599,-0.0681194337559202,-0.107125776630347,4.42219133313446,4.59637738437675,-23.1378937014598,-34.111497111038,-4.55995474873428,-0.112551695247413,-2.33502188304972,-1.62295108160378,-1.20519606242157,13.8777284129406,7.29887403346348,-5.38388347254907,-18.1737500514815,-17.7856141503594,48.7501146961438,12.225339419173,12.2687767979518,3.21823295145982,-3.16677505731614,78.4262338575354,42.8550138577206,-14.3581428527832,8.20533752441406,10.3033742904663,74.2699966430664,150.360000610352,65.9400024414062,0,0,0
170.095,-6.56229806731481,46.1688959625362,40.512353420373,-0.0844789005506339,1.06590435638182,-0.865144283862643,-0.895473927147568,-22.3227804223568,-21.2697008890517,-57.7965802401784,-0.217887442742421,0.53495994861556,0.402318020191286,0.508730256700094,3.15300731852386,19.9214057772376,2.99306628048305,-20.6003066864739,1.8070502769788,-91.6097610967921,-13.039628125889,18.7057420672891,5.64087925728618,-18.6709834559792,-147.936027806751,-105.521004319982,-4.85322725781798,16.5189335834478,5.12882704971439,26.2804889723348,6.59086697015706,177.907733448353,1556.45116242985,0.31391931816193,-0.00875485018502146,-40.5311288510776,-38.0312511161262,-19.574461152727,-0.0685025663261208,-0.606563849329493,4.33875333768056,4.42760506818162,-23.5112969567264,-46.1744976094506,-15.9330230688172,-0.101145368314846,-2.2873874234049,-1.78267512056597,-1.4725206768141,15.2688473971398,8.63304662649666,-5.26185549147895,-16.0244506318105,-4.09973248740736,53.2228000928424,10.1373050764178,12.8029881817476,2.9036719335902,-5.95215997502066,123.136348732468,30.3073904544074,-14.3581428527832,8.20533752441406,10.3033742904663,74.2699966430664,150.360000610352,65.9400024414062,0,0,0
170.1,-5.58739227103613,54.1396651780138,42.2459216561891,-0.0902105762089006,0.906480274394236,-0.516769772035635,-0.512717559281569,-22.3702010141144,-9.10949345494399,-56.2718217978725,-0.233355095446112,0.483310076939174,0.376955120358669,0.499921064691933,4.16511299112074,20.9371951018127,3.84371225690075,-28.8912953577029,1.03254558921474,-95.4505416162281,-13.763039518311,19.4778437051434,3.21932726141024,-16.2748654721988,-131.536131141494,-99.7724088980223,-3.55755518439878,12.779193215473,4.82979070168268,27.3083504482663,16.0976691481959,165.044119014846,1578.76591339253,0.312082998298504,-0.00868063836015632,-41.2605806738065,-44.333163413654,-24.0077153558742,-0.0739634755579968,-1.01449579576874,3.79560542409259,3.7959942511031,-24.2994167514877,-52.6195272843004,-24.5114749808955,-0.0906103735045565,-2.21002634499254,-1.96232230832022,-1.75935938128802,15.155359678874,9.77749869796628,-4.63096947524864,-13.4242105033699,12.0814106282648,55.1726265387796,8.01075213088932,13.5661393747697,2.0868052538648,-10.0405999282058,150.547611777693,18.0215714954906,-14.3287927830163,8.25449880727394,10.3877556862637,62.0942719328954,142.29646450731,61.5758276736683,0,0,0
170.105,-4.24233957365298,66.5638612291428,45.3320450953057,-0.099033457947064,0.631278533025345,-0.062421854179722,-0.0221872813345478,-22.1372919576493,3.1235617047704,-49.117381766568,-0.246302083866006,0.419300958103841,0.398033115074568,0.544175924354836,3.96531115430049,20.8279700976843,4.82407326956541,-35.5513565850443,-1.35849861437895,-103.297902647555,-11.9248626195648,20.3436516646978,0.400789349999346,-14.5843610421476,-97.7720874082166,-98.4963082776725,-3.76746998974662,12.1449823404835,4.69899264177625,31.5228376197507,23.519641034422,149.79923927196,1580.097925638,0.310587491018765,-0.00812888770542473,-42.2970283124389,-49.6851246331797,-28.3486302152445,-0.083177482602136,-1.35483551521721,2.91267162955889,2.82363882222031,-25.394091146114,-54.9132250949892,-31.025324274496,-0.0807184483417429,-2.11068989652176,-2.15670825958906,-2.05793855162214,13.9299084130432,10.7818359310494,-3.62396821767462,-10.4904946442151,30.107976350269,55.2581384360195,5.85555631772164,14.4985479465975,0.898650330907095,-15.0923797036115,165.176724043972,5.92821587428838,-14.2777496067039,8.33999598151204,10.534504722889,40.9192741203315,128.273039749619,53.9860214518424,0,0,0
170.11,-2.89735101191247,78.9874648619974,48.4180213799574,-0.107855918987071,0.356089913997736,0.391904399175054,0.469805030975175,-21.9043940068993,15.3560335603097,-41.9632828777407,-0.259248454939513,0.355294891391284,0.419110104736361,0.595563595106624,3.7655188445562,20.7187503016907,5.80438753604408,-42.2111002431874,-3.74942880670983,-111.144889496113,-10.0867733699173,21.2094183402564,-2.41761416612681,-12.8939372197844,-64.0096536331563,-97.2202685051492,-3.97737478580562,11.5108017063331,4.5682008186646,35.7371238334261,30.9412590215499,134.555086444949,1581.42987436963,0.309092055048737,-0.00757716335961241,-43.3334265305277,-55.0368306571484,-32.6893380884019,-0.0923910502982377,-1.69515900637465,2.02977993562572,1.85264806311382,-26.4887133437922,-57.2068135361467,-37.5388629706668,-0.070826994851882,-2.01135818467353,-2.35108494202559,-2.35098738748888,12.7045155799449,11.7861252746974,-2.61701497656339,-7.55691867233179,48.1336825183096,55.3436462558278,3.70046326994654,15.4309120587376,-0.28944793770563,-20.1439185968993,179.805138755784,-6.16456310397937,-14.2267088642641,8.4254890790205,10.681246762135,19.7452859872362,114.250283665624,46.3965771318961,0,0,0
170.115,-1.55229831452932,91.4116609131265,51.504144819074,-0.116678800725234,0.0808881726288456,0.846252317030967,0.962899614118286,-21.6714849504343,27.5890887200241,-34.8088428464362,-0.272195443359407,0.291285772555951,0.44018809945226,0.654251836203965,3.56571700773596,20.6095252975623,6.78474854870874,-48.8711614705289,-6.14047301030351,-118.992250527439,-8.24859647117108,22.0752262998107,-5.2361520775377,-11.2034327897333,-30.2456098998787,-95.9441678847994,-4.18728959115345,10.8765908313437,4.43740275875818,39.9516110049105,38.363230907776,119.310206702062,1582.76188661509,0.307596547768998,-0.00702541270488082,-44.3698741691601,-60.388791876674,-37.0302529477723,-0.101605057342377,-2.03549872582312,1.14684614109202,0.885266510808505,-27.5833877384185,-59.5005113468355,-44.0527122642672,-0.0609350696890685,-1.91202173620275,-2.54547089329444,-2.63613451326552,11.479064314114,12.7904625077805,-1.61001371898937,-4.62320281317696,66.1602482403138,55.4291581530677,1.54526745677886,16.3633206305654,-1.47760286066334,-25.195698372305,194.434251022063,-18.2579187251816,-14.1756656879517,8.5109862532586,10.8279957987602,-1.42971182532765,100.226858907933,38.8067709100702,0,0,0
170.12,-0.781369780098272,87.064181998924,55.9549553434513,-0.125468229997034,-0.266741308383895,1.04351536335786,1.19951501146047,-21.4530210798032,26.7208008016364,-24.9811196407382,-0.269818370554506,0.115690132372524,0.528180680242454,0.786965952488858,2.95729590070709,21.7907624981457,6.26168422093654,-47.2440736406353,-3.04583279153488,-121.811774333466,-6.15292043712606,23.1582490233892,-6.94927854423183,-6.27786263409891,-8.13189694169271,-95.0142641033953,-5.28235210224316,10.7708665841129,3.69811803400767,42.4039529277811,43.1624167107076,94.997887070488,1556.38735598081,0.30681143445908,-0.00616633503578237,-44.9879142461174,-59.5124628976881,-41.0384244736073,-0.11099919182058,-2.18820255003489,0.554786210009012,0.21471752351139,-28.0955036968221,-54.4113663541972,-47.2690080680123,-0.056337507010655,-1.80789133474157,-2.57834808726708,-2.74966819404939,11.9263806062404,13.2489005093211,-1.3192914008802,-3.65193585350504,64.3466838577027,51.2600168613784,-0.204696385303842,16.2404544330712,-1.65806482717698,-32.1572488359727,196.25823152101,-26.4020126210042,-14.0385556658162,8.50587389722974,8.71467833966275,-17.2790441342821,83.7483631106304,26.9507803307887,0,0,0
170.125,-0.135375664339447,79.0654804088451,60.7030985059174,-0.134250887473042,-0.630157528765223,1.18482591169869,1.38025465342477,-21.2376890485532,23.000474589919,-14.5708876472102,-0.264105315714734,-0.084206603164183,0.630744784419788,0.940826699067095,2.25988849329968,23.2529847203679,5.41131385056618,-43.8128893699449,1.24314754682817,-123.536968663598,-4.0010685852742,24.2886193937596,-8.42187113682442,-0.647775757098454,11.4469782297751,-94.1596687673185,-6.5701630636486,10.780180697306,2.82633094070385,44.4728416979905,47.3909355852646,68.7102948537137,1523.97994857341,0.306180918866011,-0.00524030648673208,-45.5149084568198,-57.2802672201075,-44.9743949434732,-0.120433083114762,-2.30006940598409,0.0260112663923572,-0.384372909568138,-28.4808341795876,-47.7147793214552,-49.7676571560645,-0.0528921895645803,-1.70271130721127,-2.57606888512372,-2.81600168915849,12.7378620877219,13.5885301389507,-1.18447658606539,-3.10781148222017,58.2140821201627,46.1644521608754,-1.8665482371557,15.8878618404787,-1.6191759382881,-39.5349351642763,195.294811310676,-33.6868777330298,-13.8827020764404,8.48103675654597,6.10925179858157,-31.969970297567,66.7344742217416,14.1654098219589,0,0,0
170.13,0.510587648724558,71.0671602178503,65.4510152644562,-0.143033126168892,-0.993556420507395,1.32612972198172,1.56050098674112,-21.0223672848996,19.2803257731192,-4.16115204086478,-0.25839253328841,-0.28409380709992,0.73330399807146,1.10039413981955,1.56251434010777,24.715137219997,4.56098402808683,-40.3818687071254,5.53192337535246,-125.262080731938,-1.84931933936608,25.4189358651041,-9.89439351233745,4.98204266258382,31.0249198290908,-93.3051141805901,-7.8579126188476,10.7894943663777,1.9545854164966,46.5416318181537,51.619252832944,42.4239560983269,1491.57408643624,0.305550433337579,-0.00431432209315332,-46.0418775390552,-55.048177979475,-48.9101777359374,-0.129866524576248,-2.41193092782801,-0.502738463847242,-0.973213266797628,-28.8661462887844,-41.0185115995578,-52.2661871019706,-0.0494470364002834,-1.59753629494073,-2.57378979165871,-2.86865874074123,13.5493048756366,13.9281435741482,-1.04966819957476,-2.56371305621335,52.0817728011682,41.0691304302704,-3.52832084754981,15.5352860604263,-1.5802889037235,-46.9122697051334,194.331437038746,-40.9713954835681,-13.7268559185728,8.45620080016224,3.50394949107568,-46.6601959589368,49.721396599727,1.38064895314962,0,0,0
170.135,1.15658176448338,63.0684586277714,70.1991584269223,-0.1518157836449,-1.35697264088872,1.46744027032255,1.73968988435153,-20.8070352536496,15.5599995614018,6.24907995266322,-0.252679478448637,-0.483990542636628,0.835868102248793,1.26452082152313,0.865106932700366,26.1773594422193,3.71061365771647,-36.950684436435,9.82090371371551,-126.98727506207,0.302532512485778,26.5493062354744,-11.36698610493,10.6121295395843,50.6037950005586,-92.4505188445133,-9.14572358025303,10.7988084795708,1.08279832319278,48.6105205883631,55.8477717075009,16.1363638815526,1459.16667902883,0.30491991774451,-0.00338829354410303,-46.5688717497576,-52.8159823018944,-52.8461482058034,-0.139300415870429,-2.5237977837772,-1.0315134074639,-1.55003456888789,-29.2514767715499,-34.3219245668159,-54.7648361900227,-0.0460017189542087,-1.49235626741043,-2.57151058951536,-2.90635634860557,14.3607863571181,14.2677732037778,-0.914853384759952,-2.01958868492848,45.9491710636282,35.9735657297674,-5.19017269940167,15.1826934678337,-1.54140001483461,-54.289956033437,193.368016828413,-48.2562605955937,-13.5710023291969,8.43136365947847,0.898522949994498,-61.3511221222217,32.7075077108381,-11.4047215556801,0,0,0
170.14,1.17983779907226,62.7805023193359,71.3040306959283,-0.156486469212417,-1.57078291529484,1.47252750396729,1.78101870417438,-20.7992832183838,15.4260663986206,10.6528826169195,-0.241715108661627,-0.782936987141321,0.839560449123383,1.33292396075145,0.911232453199034,24.4262104593142,2.57245024380819,-30.7024744541311,10.8745793573915,-119.094950268014,2.37910433171552,25.1998182520829,-10.4641064344901,13.836024000677,63.9097792556838,-97.4607753617972,-8.6004776841104,11.2592218823404,0.460356381807507,46.1677379693355,53.8124742352817,-13.2317484150838,1431.80483979131,0.304326496404788,-0.00326428671673204,-46.5878437423706,-52.7356224060059,-54.0559811372506,-0.134023007119,-2.46610977148948,-1.05054950714111,-1.60354836366304,-29.265348815918,-34.0808448791504,-52.9949763975629,-0.049904984626038,-1.40102171198775,-2.57142853736877,-2.93039345789881,14.5094866956887,13.4550822355335,-0.618176723990968,0.207042954554677,50.9140949600908,27.2002441940761,-5.22931961036157,14.1015132020141,-0.761038656952238,-53.8718828665483,176.32662059226,-52.0503546090334,-13.4949489808524,8.23785298132336,-0.196328496427307,-71.329789345796,43.0085030282356,-23.9285599552648,0,0,0
170.145,1.17983779907226,62.7805023193359,72.2728936331035,-0.161003817418173,-1.7790164841738,1.47252750396729,1.81507357225745,-20.7992832183838,15.4260663986206,14.832583068031,-0.230554077460145,-1.085597394681,0.839560449123383,1.39918166631488,0.985128723899998,22.5549661851124,1.42348242194161,-24.3487489087954,11.8074793100879,-110.843052894637,4.45296741267802,23.7576490980802,-9.47246615669649,16.9702146934896,76.9821502016685,-102.690312320603,-7.98674627286365,11.7365051098544,-0.152804141505091,43.5563386763124,51.5431434904424,-42.7163605520739,1404.6300821787,0.303734431057346,-0.00317022658470337,-46.5878437423706,-52.7356224060059,-55.1640617928482,-0.128195919452692,-2.40208659826333,-1.05054950714111,-1.62328365307576,-29.265348815918,-34.0808448791504,-51.0656145243463,-0.0540828883825373,-1.31019972071652,-2.57142853736877,-2.93816577891848,14.6334417304129,12.599315745803,-0.315440389183789,2.49662075644035,56.2937199239044,18.2891367594876,-5.20786585435162,12.9930691414997,0.0470528194228165,-53.1626434703343,158.683922748681,-55.7142676724623,-13.4218721426301,8.03803333841414,-1.23481917192403,-81.1329630576838,54.3301274795401,-36.4432505064087,0,0,0
170.15,1.17983779907226,62.7805023193359,73.2417565702786,-0.16552116562393,-1.98725005305277,1.47252750396729,1.84642975633561,-20.7992832183838,15.4260663986206,19.0122835191425,-0.219393046258663,-1.38825780222069,0.839560449123383,1.46524996304853,1.05902499460096,20.6837219109106,0.27451460007503,-17.9950233634598,12.7403792627842,-102.59115552126,6.52683049364052,22.3154799440776,-8.48082587890292,20.1044053863022,90.0545211476532,-107.919849279409,-7.3730148616169,12.2137883373685,-0.76596466481769,40.9449393832893,49.273812745603,-72.2009726890641,1377.45532456609,0.303142365709905,-0.00307616645267471,-46.5878437423706,-52.7356224060059,-56.2721424484459,-0.122368831786385,-2.33806342503718,-1.05054950714111,-1.62749959625355,-29.265348815918,-34.0808448791504,-49.1362526511297,-0.0582607921390366,-1.21937772944529,-2.57142853736877,-2.92952566181602,14.7573967651371,11.7435492560725,-0.0127040543766103,4.78619855832602,61.673344887718,9.37802932489921,-5.18641209834167,11.8846250809852,0.855144295797871,-52.4534040741204,141.041224905102,-59.3781807358911,-13.3487953044077,7.83821369550492,-2.27330984742076,-90.9361367695715,65.6517519308446,-48.9579410575525,0,0,0
170.155,1.17983779907226,62.7805023193359,74.2105733095261,-0.170038298430668,-2.19547369280867,1.47252750396729,1.87462608663978,-20.7992832183838,15.4260663986206,23.1917846711671,-0.20823254724444,-1.69090377811782,0.839560449123383,1.52932142221424,1.1329177417338,18.8125668625467,-0.874398435990394,-11.6416007804332,13.6732347323625,-94.3396516200064,8.60059468736856,20.8733795564851,-7.48923288512031,23.2384466326771,103.126268768683,-113.149136880167,-6.75931271469454,12.6910488067656,-1.37909595102733,38.333664608638,47.0045902084094,-101.684178922367,1350.28186271724,0.302550328593693,-0.00298211080567999,-46.5878437423706,-52.7356224060059,-57.3801702678497,-0.11654202197091,-2.27404330460396,-1.05054950714111,-1.61585101564349,-29.265348815918,-34.0808448791504,-47.2069827749507,-0.06243849668212,-1.12856006880496,-2.57142853736877,-2.90483533536221,14.88134588936,10.8878235715341,0.290017845167608,7.07566718713321,67.0527133368948,0.467346795300039,-5.16495936530311,10.7762338739926,1.66319724025053,-51.7441984963022,123.399368311658,-63.0419190943294,-13.2757219506808,7.63840358052069,-3.31175100495661,-100.738843040409,76.9728365373822,-61.4720348754067,0,0,0
170.16,1.50159951647569,47.5880541049782,70.2379070231977,-0.175451198409981,-2.22520098470808,1.01867963687876,1.44541453157331,-21.4604369053256,-6.85619120039872,19.7093013284479,-0.197223057810729,-1.97461526294927,0.720779956086364,1.47080205693261,1.10361798989443,17.3737120416229,-0.397887838311056,-2.9653290791417,16.5303978916799,-81.0270537684616,9.59020211116113,19.9713162239232,-6.25371204162288,21.2567232965786,100.416994779227,-121.784623518244,-6.71306971398222,12.5990107413844,-1.5396737337673,37.9911508252451,43.5720495387835,-134.93270362191,1317.58242033118,0.302544907505489,-0.00262750740758191,-46.464428900325,-30.5980545353869,-53.1988706698903,-0.112587500219709,-2.13218779596769,-1.43171077148166,-1.96960817964424,-29.5430325951582,-30.0295253681429,-43.8665192595075,-0.0659443328778581,-1.02979368794983,-2.36755158202383,-2.66100203388465,14.1799874931212,10.193914152784,-0.136085847215963,6.33522140881191,59.9535096154737,-9.32043796927818,-4.5267847316024,10.2538075941768,1.78950172594929,-47.7586481206639,111.232144346057,-66.866499414184,-12.5845864023679,8.29978059526024,-4.80804993316812,-99.1724321461826,90.0007470882973,-70.5549795421845,0,0,0
170.165,1.92008531253544,27.8286376138287,64.7797323616705,-0.181133092829423,-2.20125797012646,0.428401565636294,0.875881293469945,-22.3203385407048,-35.8366690042336,13.9233065526368,-0.186259655200123,-2.25261612236697,0.566293121586284,1.37101011749229,1.04329318625243,16.0649260843464,0.567309019960995,6.40881512609712,19.9659650770887,-66.1935634043168,10.2537749512232,19.2316816749212,-4.94492608434638,17.7369669058723,92.9630120640426,-131.443715802951,-6.83744741432591,12.3358075024397,-1.56417238213593,38.3308062181984,39.7899471124371,-169.311283853558,1283.22351043074,0.302715864482583,-0.00219458715920158,-46.3039145954046,-1.80576131938904,-47.4274893292007,-0.109196164220017,-1.96693833381493,-1.92745208098834,-2.42276192892591,-29.904190281492,-24.7603476538451,-40.1019595954884,-0.0692479411162577,-0.928643492332827,-2.10238762577607,-2.3418061588363,13.2305275401471,9.54870103556957,-0.78129896443044,4.68381776643823,49.1028162711714,-19.3713338632544,-3.70322002101156,9.90759567762268,1.71081719945972,-42.7882469617549,100.711731730229,-70.7392028578682,-11.7076610758482,9.22004956161763,-6.4419200703419,-94.1877681134467,103.541040687326,-78.6057179308002,0,0,0
170.17,2.33859106404778,8.06827889691537,59.3212974276403,-0.186815258189423,-2.17731381382462,-0.161904652955903,0.302170996924673,-23.1802811804061,-64.8185287392022,8.13703587225391,-0.175295729800779,-2.53063023822734,0.411798920397227,1.26400627346252,0.982965506028321,14.7560777177447,1.53255190354697,15.783406336448,23.4016960871689,-51.3593657066942,10.9173794336885,18.4920118565211,-3.63607771774474,14.2170426759409,85.508673906451,-141.10326868049,-6.96183104560758,12.0725917126753,-1.5886721987201,38.6704778075844,36.0076643369216,-203.691503424303,1248.86296212917,0.302886829611744,-0.00176164626706328,-46.1433926363758,26.9879048541796,-41.6558327807795,-0.105804666504814,-1.8016809917584,-2.42321702986889,-2.86178566566346,-30.2653651895933,-19.4909186793445,-36.337220418825,-0.0725517068868798,-0.82748847337904,-1.83721102521206,-2.01009353847314,12.2810223122718,8.9034571514333,-1.42654284856672,3.03233537704999,38.2516055126616,-29.4227090331781,-2.87961603882135,9.56136725198858,1.63212892090651,-37.8176087897726,90.1908174495973,-74.6120909710217,-10.8306939332337,10.140362410907,-8.07586811844682,-89.202866387514,117.081979953877,-86.6568402180564,0,0,0
170.175,2.75707686010753,-11.6911375942342,53.8631227661131,-0.192497152608866,-2.153370799243,-0.752182724198368,-0.275840384134621,-24.0401828157854,-93.7990065430371,2.35104109644281,-0.164332327190173,-2.80863109764504,0.257312085897146,1.14833895321682,0.922640702386328,13.4472917604682,2.49774876181902,25.1575505416868,26.8372632725777,-36.5258753425495,11.5809522737506,17.7523773075192,-2.32729176046824,10.6972862852346,78.0546911912663,-150.762360965198,-7.08620874595127,11.8093884737306,-1.61317084708873,39.0101332005377,32.2255619105752,-238.07008365595,1214.50405222873,0.303057786588838,-0.00132872601868295,-45.9828783314553,55.7801980701775,-35.8844514400899,-0.102413330505123,-1.63643152960565,-2.91895833937556,-3.28809992532283,-30.6265228759271,-14.2217409650467,-32.572660754806,-0.0758553151252794,-0.726338277762034,-1.5720470689643,-1.66780752192339,11.3315623592976,8.25824403421884,-2.0717559657812,1.38093173467631,27.4009121683593,-39.4736049271544,-2.05605132823051,9.21515533543448,1.55344439441694,-32.8472076308636,79.6704048337697,-78.4847944147059,-9.95376860671406,11.0606313772644,-9.70973825562059,-84.2182023547781,130.622273552906,-94.7075786066721,0,0,0
170.18,2.35178491175134,-20.3010727528521,42.873402798185,-0.204376143775115,-1.977011297669,-1.11663113231753,-0.632453575195758,-25.31112250382,-107.565189830435,-13.4394199156981,-0.151261273332939,-2.88755960012688,-0.105313665807308,0.814614795883859,1.15061008282056,12.0063395030767,2.81967605788877,24.8682567752621,31.3278729797983,-22.6681038720724,10.8960900627577,17.1557412867157,-2.12034877604198,9.63760947250663,75.3387003500734,-156.627873901084,-6.92537105335905,11.6286466316246,-1.1347862501394,34.3539204747799,29.8360859223045,-255.872262513732,1181.10711620567,0.303103918246062,-0.00160363586728929,-45.2894945910822,61.0890813222034,-22.3534820324792,-0.0462052942580481,-1.46063955915058,-2.79400055466782,-3.08290106104336,-30.7549387814351,-12.9349515447034,-29.1173593136403,-0.0751421531053723,-0.656264299315142,-1.44828879316822,-1.45856251239221,11.2630137137125,7.65347479294864,-1.39835655652474,5.11276942504083,18.7300908312004,-48.7545420508691,-1.86298887978174,9.0061893984806,1.70455782146484,-28.8224734160043,77.6228042632261,-84.2696492454596,-9.91538143157959,11.1009159088135,-9.78126049041748,-84,131.214996337891,-95.0599975585938,0,0,0
170.185,1.90880359082981,-28.4001954152886,31.6310165855522,-0.216538223393662,-1.79368351168504,-1.47072369725552,-0.983167547490458,-26.6008146598236,-120.634230974152,-29.6870620160976,-0.138094390574211,-2.95737135023165,-0.477449186148538,0.460473952785097,1.39176516643628,10.5594090013824,3.11214073376315,24.1366199967589,35.8665548135431,-8.85568832639122,10.1495354953941,16.5656809757411,-1.96385451965306,8.69059909686833,72.8397331715496,-162.319437931258,-6.7514852460255,11.4516885884684,-0.63340532155523,29.4692470568784,27.5104785161691,-272.914745618046,1147.75588123754,0.303144333548678,-0.00191093392369383,-44.5717525801394,65.3227137898383,-8.46798131560214,0.0124176977480202,-1.28437375650986,-2.64063562870626,-2.84070916046043,-30.8726942017181,-11.8305257048563,-25.6763869015971,-0.074245153350594,-0.587616372595617,-1.3310097321388,-1.24990503022962,11.2347934379702,7.05058708390933,-0.664629387225834,9.09084645447802,10.1594885687346,-57.9997704337729,-1.69879818455402,8.80351650905889,1.86618303707964,-24.8412291277858,75.963160661773,-90.1417470261734,-9.91538143157959,11.1009159088135,-9.78126049041748,-84,131.214996337891,-95.0599975585938,0,0,0
170.19,1.46580114638909,-36.4997042835648,20.3880942808774,-0.228700882959738,-1.61034698373427,-1.82483314706142,-1.33830580278411,-27.8905683146664,-133.703895313766,-45.9354788836565,-0.12492687995402,-3.02718642930262,-0.84960245173417,0.0947071680793553,1.63293174950762,9.11240950295438,3.40461935578583,23.4049483302304,40.4054530738691,4.95738586291908,9.40294532865199,15.9755925278006,-1.80735280085146,7.74354356313667,70.3406468300302,-168.011273363083,-6.57759114696493,11.2747221070859,-0.132000484672529,24.5843407138222,25.1847602136814,-289.958041391431,1114.40305591916,0.303184750778494,-0.0022182466335749,-43.8539763437418,69.5565481378064,5.41818152996295,0.0710434851854942,-1.10809954865229,-2.48726338955383,-2.59244828849733,-30.9904552371563,-10.7260472005755,-22.2352504071347,-0.0733481108224738,-0.518965172406695,-1.21372507866928,-1.03801538142328,11.206571816547,6.44767062623099,0.0691327697784396,13.0691131781134,1.58847761797251,-67.2454396744509,-1.53459965990971,8.60083395520107,2.02781595977638,-20.8597949943386,74.3034379203837,-96.0141248172721,-9.91538143157959,11.1009159088135,-9.78126049041748,-84,131.214996337891,-95.0599975585938,0,0,0
170.195,1.02626017425053,-44.080401772827,9.14294178514872,-0.239766851078018,-1.43015644469392,-2.15754758675442,-1.67633694529244,-29.2198655956505,-146.915982118415,-62.4219073181138,-0.111145502216881,-3.08631039143385,-1.2179094287128,-0.279215160929744,1.81167590563363,7.68256735851489,3.69831893773367,22.7864318488916,44.5470208509399,18.9225820724253,8.67299535903054,15.3516198272528,-1.67200206265311,6.90995150537069,68.5899020717249,-174.142432880218,-6.5424973630899,11.1560221209544,0.362975451117003,19.0066745701994,22.8076265207099,-306.370357299506,1080.91543122341,0.303239351688117,-0.00249914246893083,-43.1284563052871,73.5202156874389,19.2463469025872,0.130050433906062,-0.93755794415425,-2.32939037854668,-2.33637412764653,-31.0999513361278,-9.39153552876008,-18.8043757694346,-0.0721575417072871,-0.454100810660015,-1.10038127517046,-0.829630791047561,11.0961434833054,5.85362704653861,0.778161015856637,17.2913099597815,-6.30718252092493,-76.3809056574946,-1.37810493747582,8.35772785870829,2.14273043702463,-16.8580461773277,72.3938975071501,-101.700546857717,-9.91538143157959,11.1009159088135,-9.78126049041748,-84,131.214996337891,-95.0599975585938,0,0,0
170.2,0.642156500974322,-43.3044716763592,-2.14733928612794,-0.233164081759519,-1.30052958441773,-2.14566353236613,-1.67387280401485,-31.1876589901595,-162.434588173171,-82.7583462247424,-0.0874578375662762,-2.97315054039769,-1.52451803193075,-0.603516921980116,0.98436741008123,6.52812053628981,4.01193915173392,23.9913796698164,42.2873264610061,35.3512612264192,8.21067590563362,14.1809512698208,-1.87747737527397,7.90461757361332,78.9003835643473,-187.360143048811,-8.74472270563919,11.9764335758342,0.754726811355578,2.25773276279494,19.5997781875869,-312.625190673293,1045.22761376821,0.30352262650989,-0.00235444915445974,-42.2775202378862,73.132250639205,32.1509286545447,0.195249560295762,-0.859282008499343,-2.09883972341381,-2.00720372481884,-31.0763127907137,-4.3479875811815,-15.5361131717266,-0.0662345917289735,-0.4502242428062,-1.05046823062478,-0.687085335729572,9.66051991749388,5.40212208327961,1.08907760732242,25.4489068416102,-3.32318431619707,-83.7474426125666,-1.345661467062,7.46282879979376,1.50467551888617,-12.5255745109554,66.4559413480775,-104.394155975407,-9.91538143157959,11.1009159088135,-9.78126049041748,-84,131.214996337891,-95.0599975585938,0,0,0
170.205,0.258071142769321,-42.5285785782748,-13.4370820071723,-0.22656162727839,-1.17090890509045,-2.13378004464074,-1.67526822218028,-33.155358555115,-177.952454260063,-103.093815436592,-0.0637713024056895,-2.85999608512022,-1.83111201524581,-0.939639969827359,0.157098362769124,5.373728761119,4.32554441149928,25.1962700356667,40.0277398192314,51.7791570178748,7.74837849684156,13.010338532938,-2.08294289029266,8.89923621356737,89.2103734261527,-200.577222962295,-10.9468430403045,12.7968059113426,1.14645949186116,-14.4904104111074,16.3920828130913,-318.87972580021,1009.5414980018,0.303805887824376,-0.00220976273934562,-41.4266247453502,72.7443040901628,45.0548950821769,0.260445577820004,-0.781009805246479,-1.86830006154124,-1.68057780782005,-31.0526753724474,0.695319876794396,-12.2680064133567,-0.0603119241724593,-0.446347859797315,-1.00055756606407,-0.549771560827374,8.2249648059817,4.95063864896221,1.39997937346913,33.6061147478104,-0.339328396334971,-91.1136283118235,-1.313219543638,6.56797241201498,0.866651024880752,-8.19330942820264,60.5182683263385,-107.087636654746,-9.91538143157959,11.1009159088135,-9.78126049041748,-84,131.214996337891,-95.0599975585938,0,0,0
170.21,-0.126032530506883,-41.7526484818069,-24.727363078449,-0.219958857959891,-1.04128204481426,-2.12189599025245,-1.68022418468431,-35.123151949624,-193.47106031482,-123.43025434322,-0.0400836377550851,-2.74683623408407,-2.13772061846375,-1.28706303927534,-0.670210132783281,4.21928193889392,4.63916462549953,26.4012178565915,37.7680454292977,68.2078361718687,7.28605904344464,11.839669975506,-2.28841820291351,9.89390228181,99.5208549187751,-213.794933130888,-13.1490683828538,13.6172173662224,1.53821085209974,-31.2393522185119,13.1842344799684,-325.134559173997,973.853680546603,0.304089162646149,-0.00206506942487452,-40.5756886779492,72.3563390419289,57.9594768341344,0.325644704209705,-0.702733869591571,-1.63774940640837,-1.35939433265313,-31.0290368270333,5.73886782437298,-8.99974381564869,-0.0543889741941458,-0.4424712919435,-0.950644521518391,-0.420403261858101,6.78934124017017,4.49913368570322,1.71089596493492,41.7637116296392,2.64466980839289,-98.4801652668955,-1.28077607322418,5.67307335310045,0.228596106742293,-3.86083776183042,54.5803121672659,-109.781245772437,-9.91538143157959,11.1009159088135,-9.78126049041748,-84,131.214996337891,-95.0599975585938,0,0,0
170.215,-0.511573542986152,-42.5359136501521,-33.7058132996523,-0.209974561150639,-0.978143609473954,-2.02017366852293,-1.59855728579728,-37.0339222837525,-206.777654113131,-142.10109343804,-0.02253750743457,-2.61237206997969,-2.35140234238184,-1.55200371872107,-1.00092000398485,3.44243773660093,4.66909170153415,27.976254584431,39.236700384219,82.426654945774,7.39848961446504,11.377351315003,-2.35426603905162,9.83874471452926,107.804484010144,-227.613041122746,-15.0197066207359,15.0584073880798,2.22742127057541,-50.7799249319091,9.32231618836003,-330.244343243645,934.096981470413,0.304220249359783,-0.00218144898766995,-39.8480959728026,69.6149637453536,67.1702208278938,0.38423420652305,-0.686627100658193,-1.39682341735639,-1.03608571064352,-30.9769543984089,8.63176065965415,-5.97114314549694,-0.0459086169503618,-0.455618476965696,-0.865846491845009,-0.266634600741916,5.59110019426181,4.49171697549311,2.37389395297871,48.8704048074108,5.94443183802783,-103.621845321113,-0.195109832635977,6.13671846981472,-0.455143579398294,4.00419440078318,41.5819792197059,-109.097086933849,-10.6065171947872,11.0426653057818,-12.095317329026,-74.2549403252224,128.795987090829,-96.4009709637534,0,0,0
170.22,-0.899725483261421,-46.0961017294646,-38.5682431168953,-0.193966673504941,-1.0334080926396,-1.75844211025788,-1.35970876422872,-38.8433918712196,-216.146571474594,-157.808090252857,-0.0159266986792026,-2.43994856511541,-2.39961605048329,-1.66081599348911,-0.447265889619433,3.33797469615462,4.19378486750346,30.2106029495325,47.3454826904676,92.7117505946539,8.53452517931859,12.1764935744172,-2.17145571827059,7.91391646926865,112.479527486908,-242.502248554259,-16.300059196578,17.6053522626796,3.4464771157243,-75.2947906621734,4.29503236688164,-333.315551213236,887.088613269576,0.304080316950542,-0.00276279674052668,-39.340072789254,62.6819638617843,69.8037163998781,0.431060194469185,-0.781237186558552,-1.137387726604,-0.705102465098801,-30.8742084723779,7.69486894841378,-3.36896219241325,-0.032872569488767,-0.499085533133609,-0.718909468895563,-0.0634893563356986,4.81546211894799,5.27518977884039,3.66401250249056,54.1064535013861,9.80698500020907,-104.801890778007,2.76641736401674,9.01989838613271,-1.22033535066747,18.1615157155894,16.0078793178514,-102.397266006459,-12.5286096528152,10.8806666787057,-18.5308563847612,-47.1533103690582,122.068568720668,-100.130303181365,0,0,0
170.225,-1.28785891543349,-49.6561200496661,-43.4304410807235,-0.177959549157339,-1.08866994064966,-1.49672303204043,-1.1232761712436,-40.6527751784278,-225.515042101489,-173.514338116843,-0.00931620514454651,-2.26753328185636,-2.44782745962861,-1.77763063948732,0.106361825064768,3.23351663678023,3.71850069735005,32.4448447750401,55.4538783486947,102.996355823181,9.67050657501493,12.9755977286312,-1.98865411436543,5.9891800048704,117.154348045329,-257.390746029286,-17.5803507218491,20.1521756922636,4.66547483309115,-99.8084874593017,-0.732011740510267,-336.386612739571,840.082486551106,0.303940391213646,-0.00334411677319683,-38.832073829584,55.7492945618448,72.437086399882,0.477883949629321,-0.875842761201715,-0.877964406426232,-0.387256482264187,-30.7714674455423,6.75802191062904,-0.766905318146698,-0.0198371436201277,-0.542550516678206,-0.571979452289001,0.124939859348407,4.03986102809323,6.05862522414822,4.95406953576412,59.3422525268178,13.6693539857185,-105.981879967236,5.72780334728033,11.9029408248655,-1.98549063558479,32.3181619721601,-9.56500114380171,-95.6977645441151,-14.4506104604303,10.7186757761493,-24.9660885771044,-20.0529726897371,115.341471131472,-103.859457574629,0,0,0
170.23,-1.67601085570876,-53.2163081289787,-48.2928708979666,-0.161951661511641,-1.1439344238153,-1.23499147377539,-0.888779921890557,-42.4622447658949,-234.883959462952,-189.22133493166,-0.00270539638917916,-2.09510977699209,-2.49604116773007,-1.90092777157156,0.660015939430181,3.12905359633392,3.24319386331937,34.6791931401415,63.5626606549433,113.28145147206,10.8065421398685,13.7747399880454,-1.80584379358441,4.06435175960979,121.829391522093,-272.2799534608,-18.8607032976912,22.6991205668635,5.88453067824004,-124.323353189566,-5.75929556198865,-339.457820709162,793.074118350269,0.303800458804405,-0.00392546452605356,-38.3240506460354,48.8162946782755,75.0705819718663,0.524709937575456,-0.970452847102074,-0.61852871567385,-0.0844429442529182,-30.6687215195113,5.82113019938867,1.83527563493699,-0.00680109615853288,-0.586017572846119,-0.425042429339556,0.297115910738002,3.26422295277942,6.8420980274955,6.24418808527597,64.5783012207931,17.5319071478997,-107.161925424129,8.68933054393304,14.7861207411835,-2.75068240685397,46.4754832869663,-35.1391010456561,-88.9979436167256,-16.3727029184584,10.5566771490732,-31.4016276328396,7.04865726642719,108.614052761311,-107.58878979224,0,0,0
170.235,-2.26071446507386,-59.6642559009352,-52.089411724595,-0.151969216127557,-1.25883654505195,-1.0299097378273,-0.71240366386129,-44.7018846494986,-244.872522865754,-202.838677764916,0.0024435535526224,-1.92099532517985,-2.48879829913193,-1.97358071284265,0.466774645376542,3.22163292331982,2.4053131127919,38.4963570075963,63.9589403284321,124.746875851837,10.8287051468154,14.4998333206,-1.30076654697331,2.30195351419706,111.405372745688,-282.452225771837,-20.4578606430931,24.7875820903286,5.89693134049971,-150.176046895037,-5.24485151515208,-341.653482085896,732.759110703644,0.303477142533356,-0.00534267870603495,-38.0235813524282,35.9067679835407,72.4704525192882,0.561000384435728,-1.10418473194426,-0.410789699302045,0.150142777613008,-30.9052755846771,-15.247757343933,0.0187446198301964,0.0406886852504463,-0.626943353095236,-0.05596893265736,0.674066064312622,2.99914304632387,7.888421702702,6.66870985815063,65.9179620873494,19.742600908563,-102.503608093624,11.3546963098785,19.2984141900323,-1.8211403977895,59.8186723875512,-77.5187931499041,-87.8382098875473,-15.796643989762,13.8079526920529,-28.7550191420007,3.76835514612825,83.9260891705427,-127.696339469605,138.800264853439,-0.0459677423240819,0.0148055731612113
170.24,-3.01949211388928,-68.6695268232044,-54.9425849131091,-0.147320635073868,-1.42655053016025,-0.874965767629596,-0.587139947970823,-47.3225869008302,-255.410601936857,-214.607122363202,0.00629867659106567,-1.74536810163378,-2.43245504302987,-2.00018542738951,-0.387764789772562,3.48867649680392,1.24634400387093,43.7152456103781,57.52681672513,137.258361794703,9.8646778465378,15.1594309471057,-0.510317569460374,0.683207902089763,87.6121200316793,-288.449167255387,-22.3356518577721,26.4703027542728,4.84099361919102,-177.215541157332,0.176133077509594,-343.074155852717,660.657345862938,0.302991434139015,-0.00750007357364592,-37.9068475833063,17.7046272851149,65.2363808414703,0.587966214001502,-1.27256601064277,-0.248802828060472,0.321442719549659,-31.4422578497324,-54.1428575854367,-5.71015643876801,0.118687129942285,-0.66562283652982,0.50981130382676,1.22974729299537,3.18607354776275,9.16756041969082,6.32689408409098,63.807988173401,20.4909822811666,-92.6757452225615,13.7580884712354,25.2534858787277,0.608956120915777,72.4422506945957,-134.78150707392,-91.5834135848058,-13.0087383546564,20.0815401384986,-18.0670876585202,-26.4115736388412,43.3341304978594,-162.306522707459,400.502966867853,-0.132638199217064,0.0427209269629665
170.245,-3.77823358219503,-77.6743683505223,-57.7956220548375,-0.142672275676723,-1.59425651822558,-0.720029185567033,-0.462354723895783,-49.9431641902006,-265.948178524694,-226.375005811164,0.0101536158071249,-1.56974925245465,-2.37611447352213,-2.02804668911967,-1.2422634782387,3.75570733694959,0.0874301576387282,48.9338853628546,51.0949998223621,149.769251157083,8.90069651361194,15.8189971222655,0.280093717370818,-0.935460523978429,63.820001842404,-294.445822789029,-24.2133535344378,28.1529431816795,3.78510624776414,-204.253746105576,5.59685918339878,-344.494761878085,588.559019023608,0.302505748904525,-0.00965736557100763,-37.7901193803569,-0.496645487471726,58.0026541031754,0.614930757765752,-1.44093926048,-0.0868236807780469,0.474717477645987,-31.9792145100641,-93.0361032064827,-11.4387843283285,0.196681855463578,-0.704300475625121,1.07556456242434,1.7673255971954,3.37299513586473,10.4466381439886,5.98509460870451,61.6981148685463,21.2393279689822,-82.848350969793,16.1613660325464,31.2082736139761,3.03893676624138,85.0652270762966,-192.041490561452,-95.3284387009228,-10.2209656542082,26.3548284438301,-7.37966580366279,-56.5900633656004,2.74410735629721,-196.915055640943,662.193190210609,-0.2193045234352,0.0706349496873899
170.25,-4.53701123101045,-86.6796392727916,-60.6487952433515,-0.138023694623033,-1.76197050333388,-0.565085215369329,-0.337531078200448,-52.5638664415322,-276.486257595797,-238.143450409451,0.0140087388455682,-1.39412202890858,-2.31977121742007,-2.05537909784929,-2.09680291338781,4.02275091043368,-1.07153895128224,54.1527739656363,44.66287621906,162.280737099949,7.93666921333437,16.4785947487712,1.07054269488375,-2.55420613608573,40.0267491283951,-300.442764272579,-26.0911447491168,29.8356638456237,2.72916852645545,-231.29324036787,11.0178437760604,-345.915435644906,516.457254182902,0.302020040510184,-0.0118147604386186,-37.673385611235,-18.6987861858975,50.7685824253575,0.641896587331525,-1.60932053917851,0.075163190463526,0.610035351745944,-32.5161967751195,-131.931203447986,-17.1676853869267,0.274680300155417,-0.742979959059705,1.64134479890846,2.28727415603458,3.55992563730361,11.7257768609774,5.64327883464486,59.5881409545979,21.9877093415858,-73.0204880987302,18.5647581939033,37.1633453026715,5.46903328494666,97.6888053833411,-249.304204485468,-99.0736423981812,-7.43306001910254,32.6284158902758,3.30826567981771,-86.7699921505699,-37.8478513163861,-231.525238878797,923.895892225024,-0.305974980328182,0.0985503034891451
170.255,-5.54916964025306,-96.9610793587297,-66.025872852082,-0.12576720870761,-1.91443737610255,-0.573892792569236,-0.375938542876642,-55.3107481840359,-280.684020444785,-247.172258004891,0.0109326340753803,-1.21755732678916,-2.21085291812162,-2.02790518081008,-2.64579704294291,5.63048064792854,-1.13086630166019,53.6602094348474,32.2248509042928,171.865278097057,4.50433516677601,16.4786693243175,1.24623517686835,-2.88583906946085,8.42257536084805,-303.814485100397,-23.2611305185733,30.2675896217876,-0.416180714156533,-231.612394347034,54.1240361768025,-332.376867093442,455.067530403189,0.304325694227959,-0.0158470287195562,-38.0481198411037,-34.2325648870467,37.8255279163992,0.654329393977197,-1.69828700053715,0.0258408374515747,0.51666925868631,-34.1167876409571,-156.971340965983,-34.9729758514917,0.379047663739204,-0.741518434992708,1.42095881732802,2.00432639585326,2.40700282585661,12.7378292627542,4.4164922793561,53.5215773712182,17.0163153346952,-41.2875094148496,18.1468018620376,32.6994804965434,5.44961800474341,77.0631838420311,-212.784214606863,-120.958112407541,-6.83538579940796,33.9733543395996,5.59955596923828,-93.2399978637695,-46.5499992370605,-238.945007324219,980,-0.324555486440659,0.104534827172756
170.26,-6.63053667209293,-107.591407942388,-72.0920461422025,-0.111433794309985,-2.06275259180256,-0.627388428323125,-0.458049362023715,-58.0922308293651,-283.15177637591,-255.453971266055,0.00596482209230153,-1.0407260712028,-2.08758036616701,-1.98227051442974,-3.11144169147701,7.6041789877378,-0.890106852702234,51.6089689797449,18.1470700738922,180.651642466843,0.398195993339053,16.2987611646566,1.25417230155926,-2.86624123071784,-25.3151040352559,-306.469992250076,-19.1461922639962,30.3582017779404,-4.13191778724367,-224.639631436428,107.517075345225,-314.755124518818,396.597378513398,0.307393245955433,-0.0203911915761902,-38.5569976131691,-49.0390949228815,23.3237159043565,0.662796917573269,-1.76558669089132,-0.0811504439122344,0.349368819361251,-36.0077326712854,-178.23200217033,-56.0749735730941,0.490617396166801,-0.729102408270101,0.986016010108743,1.49149493763934,0.888366301660209,13.6770556845133,2.94812421153554,46.3748988429313,10.4837024203561,-3.57473506037029,16.9588788666296,25.3920343644346,4.7617338648635,47.3626592269887,-150.66886471087,-147.794086259646,-6.83538579940796,33.9733543395996,5.59955596923828,-93.2399978637695,-46.5499992370605,-238.945007324219,980,-0.324555486440659,0.104534827172756
170.265,-7.71185214151473,-118.221229644081,-78.1579301812602,-0.0971010633671761,-2.21106073544383,-0.680881513264704,-0.538747008558507,-60.8735808463019,-285.619414637956,-263.735289633395,0.000997246987535951,-0.86390324739479,-1.96431369217119,-1.93144116515869,-3.57706413685221,9.57778321643035,-0.649358883786665,49.5578263331707,4.06996050902798,189.437587879717,-3.70774738860575,16.1188615834889,1.26210904778724,-2.8466443264512,-59.0511747302634,-309.125372778205,-15.0314502204746,30.4488096134678,-7.84747768423539,-217.667201005457,160.907568593412,-297.134222195128,338.1300146339,0.310460651413989,-0.0249351377552133,-39.0658511206069,-63.8449189445052,8.82259537676988,0.671264037415594,-1.83288317221964,-0.188136623650955,0.167401857322627,-37.898587536392,-199.491649610553,-77.175965096064,0.602181808656746,-0.716686973576232,0.551093942104,0.965188608133762,-0.630197809961128,14.6162373214917,1.47982615935811,39.2285610870328,3.95140099814539,34.1362410500524,15.7710125145077,18.0849366705354,4.0738825251047,17.6635508109074,-88.5564766377789,-174.628780502088,-6.83538579940796,33.9733543395996,5.59955596923828,-93.2399978637695,-46.5499992370605,-238.945007324219,980,-0.324555486440659,0.104534827172756
170.27,-8.79433582313499,-128.770492322655,-84.2319983301099,-0.0827581680830838,-2.35913151395419,-0.736241546320131,-0.619526832669952,-63.6549720982698,-288.032100438055,-271.987743139988,-0.00397758182020498,-0.687154331728092,-1.84153653436885,-1.87473319590813,-4.03568102534951,11.5430264347916,-0.415690327915475,47.5077960032782,-9.95062079314902,198.186033454145,-7.80532132613248,15.9313935760614,1.26943254347656,-2.80729173146718,-92.5822008990566,-311.783724593005,-10.9404497146606,30.5388946533203,-11.5415992736816,-210.735000610352,213.990005493164,-279.614990234375,280,0.313510358333588,-0.0294528659433126,-39.5775566119103,-78.5958511361214,-5.6851951458831,0.679621091007035,-1.89886442992555,-0.297069107641524,-0.029156071929098,-39.7910386382143,-220.578869396982,-98.2884807955411,0.713782749748081,-0.70363500261274,0.116145432714286,0.427555073147733,-2.14316829892244,15.5253629292747,0.0125757771518462,32.0152002524071,-2.51532355287833,71.7068083872394,14.5635975089795,10.8000444455929,3.37570324814593,-11.8076270194241,-26.3591485919023,-201.35151257617,-6.83419283883122,33.938954779047,5.5900311569437,-93.2294605152315,-46.5226352245309,-238.80537360217,980.12610144965,-0.324465833246814,0.104578223771287
170.275,-10.0676567827979,-125.465458927329,-91.6553107781809,-0.0667949737592712,-2.46542757603581,-1.11023013459739,-1.01684090846784,-66.4207440749604,-281.033210566908,-275.239656623603,-0.01015159746571,-0.52447744331564,-1.80342304931136,-1.89541698087915,-3.29324220264091,12.0632755368356,-1.39386702498774,45.6645780555787,-14.1957089521885,200.454094740063,-10.4390824052301,14.4519351921238,1.17188583684332,0.60818108995066,-90.7958517446618,-314.928234340441,-10.9404497146606,30.5388946533203,-11.5415992736816,-210.735000610352,213.990005493164,-279.614990234375,280,0.313510358333588,-0.0294528659433126,-40.5725239565955,-83.8450206067661,-21.2147229326688,0.669098639708528,-1.73952338667839,-0.73775630284472,-0.567719073159617,-41.9408798273369,-212.024666531012,-121.198536156385,0.830717302633848,-0.581899118350463,-0.319777586950887,-0.119872815359248,-2.68780407762473,11.2902100829479,-1.26366030129979,13.4057239492264,2.27838120039471,84.9739633429134,10.0249660197938,7.36965192899041,0.91806816713609,-2.08306336431955,49.8483796595376,-208.721039143832,-6.62912096001726,28.0256139273274,3.9527003090586,-91.4180730271978,-41.8187166116549,-214.802107874332,1001.80314736815,-0.309054302252517,0.112038170200651
170.28,-11.3409170271756,-122.160583124669,-99.0782692632322,-0.0508325406024586,-2.57171856964222,-1.48420089011725,-1.41180930133925,-69.1863841723846,-274.034654421198,-278.491415047448,-0.0163253187179456,-0.361808311764165,-1.76531138160487,-1.90821797608058,-2.55083878136388,12.583499832037,-2.37199708002791,43.8214479973483,-18.4405946942834,202.722047878865,-13.0727178996873,12.9725473526448,1.07434378149307,4.02349105266063,-89.0095877680828,-318.072594149401,-10.9404497146606,30.5388946533203,-11.5415992736816,-210.735000610352,213.990005493164,-279.614990234375,280,0.313510358333588,-0.0294528659433126,-41.5674438586265,-89.0939397832344,-36.743510230813,0.658576690148114,-1.58018994123035,-1.17842248492589,-1.1138277520506,-44.0906185063895,-203.470871551884,-144.107499105663,0.947646279773245,-0.460169038774638,-0.755679820662422,-0.673419785196563,-3.23241388666372,7.05525917982378,-2.53983552546578,-5.20286500528453,7.07185737724426,98.2404856858202,5.48655094446882,3.93942298250602,-1.53944972738315,7.64103659806823,126.052274136027,-216.090214313127,-6.42405885956867,22.1125550392189,2.31544753340542,-89.6067719108735,-37.1150222939636,-190.799986685199,1023.47915966821,-0.293643506120464,0.11949776092019
170.285,-12.6142379868385,-118.855549729343,-106.501581711303,-0.0348693462786459,-2.67801463172384,-1.85818947839452,-1.80431905759441,-71.9521561490753,-267.03576455005,-281.743328531062,-0.0224993343634506,-0.199131423351713,-1.72719789654738,-1.91282656710845,-1.80839995865528,13.103748934081,-3.35017377710017,41.9782300496488,-22.6856828533229,204.990109164782,-15.706478978785,11.4930889687072,0.976797074859832,7.43896387407848,-87.223238613688,-321.217103896837,-10.9404497146606,30.5388946533203,-11.5415992736816,-210.735000610352,213.990005493164,-279.614990234375,280,0.313510358333588,-0.0294528659433126,-42.5624112033117,-94.3431092538791,-52.2730380175987,0.648054238849606,-1.42084889798319,-1.61910968012908,-1.66463833110519,-46.2404596955121,-194.916668685913,-167.017554466507,1.06458083265901,-0.338433154512361,-1.19160284032759,-1.23034085184319,-3.77704966536601,2.820106333497,-3.81607160391742,-23.8123413084652,11.8655621305173,111.507640641494,0.947919455283057,0.509030465903531,-3.99708480839299,17.3656002531727,202.259802387467,-223.45974088079,-6.2189869807547,16.1992141874992,0.678116685520318,-87.7953844228399,-32.4111036810876,-166.796720957361,1045.15620558671,-0.278231975126166,0.126957707349554
170.29,-13.7976949820477,-114.667402311971,-112.221789955333,-0.020337859420607,-2.77987525623649,-2.16293173130244,-2.12504791589237,-74.5589171734272,-259.656469922813,-282.817612647446,-0.0311257548592801,-0.0600630108895331,-1.64360816348089,-1.86377172185494,-1.35533485540336,13.5413254693049,-3.62762557077624,40.3465293045455,-24.9767257956418,208.232444519608,-17.378370116692,9.98114789446983,0.854665144596674,10.3584521863314,-80.5524252901642,-321.596259967053,-11.8316006199591,30.5690146668317,-9.75467924331421,-196.828764421936,225.25819499743,-271.087554370371,265.411719939117,0.313259614082474,-0.0293392586984394,-43.4123254887481,-91.5611561782949,-64.617101139195,0.634724417026599,-1.14341303647659,-2.00269289294334,-2.16003110935204,-48.1432440714689,-182.441957700198,-183.917657292789,1.19216408203394,-0.128574250231823,-1.52032942015286,-1.68061929842847,-3.38118087265346,1.02921232876714,-4.4636301369863,-31.790092138477,17.3797596006289,119.150739738555,-3.30107179096907,-1.26988330796548,-6.62236935565703,24.5691383079342,253.6722820402,-227.619117637848,-5.76129571717745,11.9850778595437,-0.596489912737208,-84.5801328265201,-28.0220996967008,-141.363056050769,1076.18125317098,-0.256666395270782,0.133088400151783
170.295,-14.7860910186303,-108.559952531812,-114.24267001994,-0.00891472648527885,-2.87211478266994,-2.31727430493864,-2.29287645142514,-76.8206026265973,-251.449584978356,-279.160904167964,-0.0450816174846116,0.0277342586514054,-1.46120330372902,-1.70801636025611,-1.530899543379,13.7993523592085,-2.3827123287671,39.1741276283894,-23.0227230020482,213.591995039179,-16.9607389649924,8.39840563165906,0.679100456621021,12.2007976774339,-63.26853167221,-315.96741830618,-14.6590161700227,30.6645784978997,-4.08519560082318,-152.707495837451,261.009552075112,-244.031974197922,219.126484018265,0.312464060612828,-0.0289788092068387,-43.9472235760623,-71.3302268788876,-70.0422362738529,0.615293236969982,-0.609360363943437,-2.26226903951331,-2.53009514250595,-49.5095564187571,-161.44759590985,-187.762990339039,1.34290217460555,0.272773995862106,-1.61620889771475,-1.89588262455644,-0.941895738203949,4.54848630136986,-3.74541095890411,-16.6703797658643,24.4601461938854,114.57607437473,-6.92142846270929,0.538964992389659,-9.6122891933029,26.296542458237,251.222389462014,-224.804696807411,-4.75468997919033,11.4620250458768,-1.08322838054037,-78.3143354343316,-24.3166206708237,-112.817833463242,1127.52062404871,-0.221727160154594,0.136332061086162
170.3,-15.7744399258959,-102.452793970887,-116.263453723682,0.00250786176509152,-2.96434991088069,-2.47160951911587,-2.45831977120739,-79.0821802366693,-243.243091359712,-275.50437004994,-0.0590368146577866,0.115527341788113,-1.27880714151957,-1.54495987139107,-1.70645585996955,14.0573669457128,-1.13785844748856,38.0017818554222,-21.0688133804361,218.951290001315,-16.5431277270421,6.81573883815321,0.503544140030451,14.0430553206682,-45.9854621956643,-310.338845043251,-17.4862969014924,30.7601377722335,1.58401770580849,-108.588331070846,296.75920443426,-216.977684106541,172.843455098935,0.31166854507726,-0.0286183769024156,-44.482096158032,-51.1002622432844,-75.4671127238296,0.595862983443026,-0.0753331564433075,-2.52183280881137,-2.89589883786884,-50.8758036166868,-140.454235185771,-191.608140029717,1.49363307958931,0.674103104618342,-1.71208380349151,-2.10641281158029,1.49727308472856,8.06759246575342,-3.02722602739726,-1.5513883408184,31.540195175727,110.001627142956,-10.541612506342,2.3477270421106,-12.602066463724,28.0238642413765,248.772613701136,-221.990410175946,-3.74813223880659,10.9389971727408,-1.56994363937597,-72.0488368118069,-20.6113183319115,-84.2739719868432,1178.85754693049,-0.186789591032832,0.139575567354275
170.305,-16.7628359624784,-96.3453441907282,-118.28433378829,0.0139309947004197,-3.05658943731414,-2.62595209275206,-2.62159630736137,-81.3438656898394,-235.036206415255,-271.847661570458,-0.0729926772831181,0.203324611329051,-1.0964022817677,-1.37539670641797,-1.88202054794519,14.3153938356164,0.107054794520572,36.829380179266,-19.1148105868426,224.310840520886,-16.1254965753425,5.23299657534244,0.327979452054797,15.8854008117707,-28.7015685777101,-304.710003382378,-20.313712451556,30.8557016033016,7.25350134829952,-64.4670624863611,332.510561511941,-189.922103934092,126.558219178082,0.310872991607614,-0.0282579274108149,-45.0169942453463,-30.8693329438771,-80.8922478584875,0.576431803386409,0.458719516089843,-2.78140895538134,-3.25471256718712,-52.242115963975,-119.459873395423,-195.453473075967,1.64437117216093,1.07545135071227,-1.80796328105339,-2.30989311624019,3.93655821917807,11.5868664383561,-2.30900684931508,13.5683240317944,38.6205817689836,105.426961779131,-14.1619691780822,4.15657534246574,-15.5919863013699,29.7512683916794,246.322721122949,-219.17598934551,-2.74152650081948,10.4159443590739,-2.05668210717913,-65.7830394196184,-16.9058393060345,-55.7287493993158,1230.19691780822,-0.151850355916644,0.142819228288654
170.31,-17.2018455505371,-93.6326370239258,-117.502644844898,0.0239482798123343,-3.09534712096697,-2.69450545310974,-2.69718164500822,-82.3484241485596,-231.391006469727,-266.832978456763,-0.0821183643753962,0.24112519288528,-1.01538467407227,-1.30172230728482,-1.65909379268828,14.8901301197009,0.947412655414347,34.5378215226023,-12.5879511363679,224.317492413114,-15.9872274316409,4.53134935518972,0.0287057488828709,19.9071728763794,-27.6015485050469,-292.72107757932,-19.7019295099916,27.649933697601,9.9077358534882,-19.4191368236216,301.082294407497,-186.812093704491,95.0702229631173,0.268619507485642,-0.0243064337322164,-45.2545765304565,-21.8834896087646,-79.8281888877648,0.559893000470325,1.15799877264843,-2.89670324325562,-3.4597423906402,-52.8489822387695,-110.134941101074,-191.123999998017,1.76362591502123,1.70457694280368,-1.8505494594574,-2.45099501841036,5.67713597740268,13.8530140538538,-2.29900233845014,19.4410200913485,39.0783828135205,94.7658519964864,-16.8791699659651,4.82641383621586,-15.6853400013892,26.1272836047519,227.29480736013,-212.833359487616,-2.19198291925664,10.2585995588616,-2.21664150459879,-58.7023036692087,-15.8125610864269,-41.1986840093921,1284.30504040194,-0.120304067602865,0.1433440906633
170.315,-17.2018455505371,-93.6326370239258,-114.481189944191,0.0328429280685534,-3.09136762138217,-2.69450545310974,-2.7026359428976,-82.3484241485596,-231.391006469727,-260.732627154941,-0.08738475501921,0.238973702719134,-1.01538467407227,-1.3046970075009,-1.11768979648537,15.7180169479753,1.4645384455095,31.3516816346341,-2.40609111809133,220.046326523787,-16.072201153018,4.5337771758005,-0.36945683128429,25.670998844924,-39.43492600053,-275.648403259595,-16.341626859054,21.8056010273237,10.1525338899512,26.37320018174,215.964114166162,-202.838139927138,75.4048760158366,0.193230910330851,-0.017484784932173,-45.2545765304565,-21.8834896087646,-73.5781392555295,0.545664248537527,1.98938037215945,-2.89670324325562,-3.53780335655658,-52.8489822387695,-110.134941101074,-180.261183704557,1.8577306795169,2.51578687802811,-1.8505494594574,-2.53873636419037,6.8594846148503,15.1179085920678,-2.8549732583177,17.9243815369628,34.2437227577419,79.239789325108,-18.8748385080225,4.58605959574911,-13.4638841425297,18.2263760368458,195.016782474401,-203.670584663986,-2.00765763243561,10.3935001945217,-2.11546611467931,-50.9696949312751,-16.8067534598342,-37.8677142981134,1340.63047857192,-0.0914665776055008,0.141696245100272
170.32,-17.2018455505371,-93.6326370239258,-111.459879114384,0.0417371522046001,-3.08738831155035,-2.69450545310974,-2.70687007793843,-82.3484241485596,-231.391006469727,-254.632566733878,-0.0926508945476965,0.236822315141685,-1.01538467407227,-1.30450145921653,-0.576311615845897,16.5458643004329,1.98163957768982,28.1656936701776,7.77528340237776,215.775364294859,-16.1571708226251,4.53620488064643,-0.76760042601467,31.4345499791195,-51.2677392495179,-258.576543009789,-12.9814844361658,15.9615470301663,10.3973202538014,72.1633536882933,130.84999258305,-218.863421985841,55.7404667639092,0.117845907902227,-0.0106634614062475,-45.2545765304565,-21.8834896087646,-67.3283876420635,0.531436175068963,2.82072232921388,-2.89670324325562,-3.60240436922129,-52.8489822387695,-110.134941101074,-169.398885378687,1.95183095685042,3.32695813263385,-1.8505494594574,-2.61438642404674,8.04177687481187,16.3827428167905,-3.41091766803268,16.4078152998838,29.409293231243,63.7144669771452,-20.8704118913663,4.34571681600334,-11.2425342085157,10.3258452049481,162.740296689611,-194.508246745507,-1.82334113472801,10.5283943977655,-2.01429554906795,-43.2374549044199,-17.80089842754,-34.5369034162126,1396.9532309972,-0.0626304626553424,0.140048478110845
170.325,-17.2018455505371,-93.6326370239258,-108.438424213677,0.0506318004608192,-3.08340881196554,-2.69450545310974,-2.71025473737007,-82.3484241485596,-231.391006469727,-248.532215432056,-0.0979172851915103,0.234670824975538,-1.01538467407227,-1.30233908479793,-0.0349076196429941,17.3737511287074,2.49876536778498,24.9795537822094,17.9571434206543,211.504198405532,-16.2421445440022,4.53863270125722,-1.16576300618183,37.198375947664,-63.1011167450009,-241.503868690065,-9.62118178522818,10.117214359889,10.6421182902644,117.955690693655,45.7318123417148,-234.889468208488,36.0751198166285,0.0424573107474362,-0.00384181260620411,-45.2545765304565,-21.8834896087646,-61.0783380098282,0.517207423136164,3.6521039287249,-2.89670324325562,-3.6521928512146,-52.8489822387695,-110.134941101074,-158.536069085227,2.04593572134609,4.13816806785828,-1.8505494594574,-2.67701667748984,9.22412551225948,17.6476373550045,-3.96688858790023,14.8911767454982,24.5746331754644,48.1884043057667,-22.8660804334236,4.10536257553659,-9.02107834965616,2.424937637042,130.462271803882,-185.345471921877,-1.63901584790698,10.6632950334257,-1.91312015914847,-35.5048461664863,-18.7950908009473,-31.205933704934,1453.27866916719,-0.0337929726579783,0.138400632547816
170.33,-17.7265348557523,-92.8614208042829,-105.163332887503,0.0581525256983041,-3.00973255255706,-2.69870522455987,-2.71735413973299,-83.5465960611164,-226.678015727239,-242.442016633114,-0.099760811802669,0.200132720799221,-0.942938605879554,-1.22691275892199,0.246113798453638,18.1481319999478,2.45439886827388,22.1707588479083,23.5011530864519,207.966382543976,-16.9325388215967,4.11004837216581,-1.39955448061853,41.2701403003675,-69.9748049765173,-224.582955020856,-7.72872829437256,6.82580614089966,10.7799835205078,143.744995117188,-2.20499992370605,-243.915008544922,25,0,0,-45.1162247396777,-13.9999426132445,-52.4569734738549,0.499751362079849,4.5312601314438,-2.74866129963852,-3.53823726735603,-53.1596193084782,-99.8520536165712,-145.835823152197,2.09885416836645,5.19103806999372,-1.72560625169738,-2.60114573860662,9.43616217061943,17.8834702791504,-4.66695646505076,19.3480307388848,19.8008823240145,30.2158187976191,-22.7598606203633,3.49227596907313,-6.95548052726963,2.36181787656637,99.2821898002674,-172.877776860266,-1.69024109088894,10.6686165135555,-1.96369114579055,-30.2512813309084,-19.6559657363914,-30.7428687360605,1506.61701239944,-0.00623634737442755,0.134785844209737
170.335,-18.927821330531,-91.0957061145067,-101.56084255341,0.0639025212361129,-2.84618051732576,-2.7083206838232,-2.72972531800551,-86.2898341997781,-215.887530808959,-236.364243708922,-0.0971910629156751,0.123831206559772,-0.777071909139646,-1.05829036677731,0.191425870633779,18.8536062688241,1.68603348240481,19.8482098145709,23.0656751427012,205.373769669553,-18.403644079951,3.12566567140828,-1.42142965174649,43.1605871879677,-70.4541682944445,-207.855875863608,-7.72872829437256,6.82580614089966,10.7799835205078,143.744995117188,-2.20499992370605,-243.915008544922,25,0,0,-44.7994655959863,4.04959314986108,-40.7770694517917,0.478132069132825,5.47211338598488,-2.40971636060602,-3.21726401124046,-53.8708289837982,-76.3091806553271,-130.764989695272,2.09867232311019,6.55562203722612,-1.43954632231494,-2.35044156600799,8.39709154204204,16.7924461191442,-5.55290089573253,31.5076551837703,15.1051472871361,9.08669903067339,-19.9434323376403,2.39851741267588,-5.09062218861232,12.4048169669424,69.5144029165916,-156.147321905005,-2.04519324792616,10.5068578534573,-2.2099310215762,-28.193648150995,-20.3450337520925,-33.9776596457436,1556.10958707642,0.0196717258884282,0.128634464615711
170.34,-20.1290505248179,-89.3300756186409,-97.9585239955106,0.0696522425990439,-2.68263628068474,-2.71793568459621,-2.74225653737947,-89.0329415336458,-205.097560409319,-230.286760588894,-0.0946214365610522,0.0475333305767709,-0.611213121359147,-0.89079535641077,0.136740550477844,19.5590468988357,0.917704734213873,17.5257715264669,22.6302179636817,202.781280417716,-19.8746791921457,2.14132990860138,-1.44330377980887,45.0509439340989,-70.9335087550707,-191.129594297393,-7.72872829437256,6.82580614089966,10.7799835205078,143.744995117188,-2.20499992370605,-243.915008544922,25,0,0,-44.4827215562022,22.0982682637314,-29.0977223582057,0.456513807050427,6.41292177817356,-2.07078758335776,-2.88025456183528,-54.5820047467744,-52.7674302800528,-115.694874855239,2.09849048652479,7.92014093751367,-1.15350003302069,-2.08623399935527,7.35807045907921,15.7014739820332,-6.43880308225874,43.6666998258499,10.4096361552281,-12.0414132443894,-17.1271383496095,1.30481100955712,-3.22585277129482,22.4473371807644,39.7480354391185,-139.417664701744,-2.40012847991298,10.3451069064365,-2.45615915599832,-26.1361130844318,-21.034068911222,-37.2122963121065,1605.59980181754,0.0455785637863564,0.122483378335608
170.345,-21.3303369995966,-87.5643609288647,-94.3560336614177,0.0754022381368527,-2.51908424545344,-2.72755114385954,-2.75520764862007,-91.7761796723075,-194.307075491038,-224.208987664702,-0.0920516876740583,-0.0287681836626786,-0.445346424619239,-0.725131360870226,0.0820526226579843,20.2645211677119,0.149339348344804,15.2032224931295,22.1947400199309,200.188667543292,-21.3457844505,1.15694720784385,-1.46517895093683,46.941390821699,-71.4128720729979,-174.402515140145,-7.72872829437256,6.82580614089966,10.7799835205078,143.744995117188,-2.20499992370605,-243.915008544922,25,0,0,-44.1659624125107,40.147804026837,-17.4178183361424,0.434894514103403,7.35377503271464,-1.73184264432526,-2.52769590014658,-55.2932144220944,-29.2245573188086,-100.624041398313,2.09830864126853,9.28472490474606,-0.867440103638248,-1.8090224129269,6.31899983050182,14.6104498220269,-7.32474751294051,55.8263242707354,5.71390111834977,-33.1705330113351,-14.3107100668866,0.211052453159864,-1.36099443263751,32.4903362711404,9.98024855544271,-122.687209746482,-2.7550806369502,10.1833482463383,-2.70239903178397,-24.0784799045184,-21.723136926923,-40.4470872217896,1655.09237649452,0.0714866370492122,0.116331998741582
170.35,-22.8688026367558,-88.3447781299691,-92.4953320941979,0.0789902038657123,-2.32602992552322,-2.82102590343737,-2.85264703380048,-94.6030781915318,-181.110520658416,-216.906334739464,-0.0895112422228974,-0.136758223118181,-0.333557171171722,-0.615913605016898,0.457141842292209,20.2101283697048,-0.828922691526341,12.8977769099783,23.4747666519418,200.321635580519,-21.5457070927378,0.161641138128294,-1.58410496404404,41.6653541968339,-57.9949672244125,-163.048678782933,-6.81713222354639,6.73650093543464,9.06317669382237,128.440668244976,-10.4490837779788,-245.790606155376,21.5360993058065,0,0,-42.8625211953184,62.2539351203128,-3.57245570692446,0.404864464488035,7.97061843759937,-0.573414428183854,-1.34106461881004,-55.1649308469976,-7.51590163883909,-84.4241209429956,2.09257771033444,10.5664686456297,0.209472691871495,-0.728783129779571,6.11241347508005,14.8467957426125,-6.33412340939964,56.8559775923087,-1.71297869567581,-46.5284186646442,-13.0522347545397,1.53079290103072,-0.0921751810262027,28.382147825339,13.7712065044343,-110.472314195123,-3.3754834045401,9.93346357431752,-2.22718057896907,-25.7074158425324,-22.1174731574125,-42.7075486709882,1692.284893503,0.0898010039564792,0.110163832780586
170.355,-24.5026857645358,-89.8450559963651,-91.1269350703092,0.0819671650186814,-2.12462325289875,-2.93821411098225,-2.97458953614872,-97.453801114541,-167.232942417701,-209.256951248578,-0.0869789257114251,-0.253713480849299,-0.237049228730627,-0.524685217264893,0.953755623964016,19.9409114249037,-1.86658411954584,10.5970256017782,25.2398591702944,201.225156430864,-21.3862679312537,-0.836813938706581,-1.73047534179992,34.362969609938,-40.6473668977875,-153.213208954891,-5.64776450702756,6.6219429337824,6.86090910747169,108.808743163073,-21.0243438300805,-248.196565730055,17.0927128382168,0,0,-41.2800569195331,85.5082520201414,10.8859471721497,0.372454786310022,8.49589925873546,0.816759468733968,0.0905792243091044,-54.7993076127778,13.6755331946951,-67.9040072020322,2.08527765560478,11.8248711557075,1.51003212387496,0.586217247879689,6.14116479928211,15.4584148210925,-4.81291698343655,54.7391573143574,-9.91243041255713,-57.6901280265854,-12.234128893154,3.53293056819174,1.00821640888867,20.2730481934922,27.0497361443268,-99.5332581855882,-4.07096924294425,9.65864965208094,-1.54797071302526,-28.3786755556397,-22.4285103497335,-44.6926972383647,1726.00235552177,0.105969686332055,0.103990543891332
170.36,-26.1364909844802,-91.345262325575,-89.7586032951818,0.0849439842223298,-1.92322618387302,-3.05539673068584,-3.09743202860871,-100.3043881076,-153.356025896337,-201.607932500373,-0.08444672994745,-0.370663161846785,-0.140545888041507,-0.436328283069957,1.45034572578737,19.6717073170732,-2.90419606914516,8.29638399943871,27.0048675244034,202.128634198963,-21.2268363722472,-1.835221406583,-1.87683874023205,27.0609332199039,-23.3005937502741,-143.378208107863,-4.4784525490304,6.50739039455633,4.65874653101927,89.177754182881,-31.5990996260285,-250.602410582268,12.6495382429552,0,0,-39.6976680997975,108.76146009311,25.3436606366292,0.340046653510522,9.02115503310341,2.20686707851194,1.53377901123577,-54.4337018124334,34.8659575650005,-51.3846811834483,2.07797794896088,13.0832136618511,2.81052954179146,1.91101311319038,6.16991475254557,16.0700047359697,-3.29178309258819,52.6224379719525,-18.1114911580615,-68.8513051689309,-11.4160620412029,5.53497276817429,2.10855552924461,12.1643352247977,40.3276326290771,-88.594723778953,-4.76642191875836,9.38384883369339,-0.868793233590416,-31.0498078960732,-22.7395327109848,-46.6777511486475,1759.71820980346,0.122137597742421,0.0978175493606933
170.365,-27.7703741122601,-92.845540191971,-88.3902062712931,0.0879209453752988,-1.72181951124855,-3.17258493823072,-3.22126301709403,-103.155111030609,-139.478447655621,-193.958549009487,-0.0819144134359778,-0.487618419577903,-0.0440379456004116,-0.35083051860538,1.94695950745918,19.4024903722721,-3.94185749716466,5.99563269123865,28.769960042756,203.032155049308,-21.0673972107631,-2.83367648341787,-2.02320911798793,19.758548633008,-5.95299342364911,-133.542738279821,-3.30908483251156,6.3928323929041,2.45647894466859,69.5458291009783,-42.1743596781301,-253.008370156947,8.20615177536548,0,0,-38.1152038240121,132.015776992939,39.8020635157034,0.307636975332509,9.54643585423949,3.59704097542976,2.98676534739296,-54.0680785782136,56.0573923985347,-34.8645674424849,2.07067789423122,14.341616171929,4.11108897379493,3.24432575629313,6.19866607674762,16.6816238144497,-1.77057666662511,50.5056176940013,-26.3109428749428,-80.0130145308721,-10.5979561798173,7.53711043533532,3.20894711915948,4.05523559295092,53.6061622689695,-77.6556677694183,-5.46190775716251,9.1090349114568,-0.189583367646607,-33.7210676091805,-23.0505699033057,-48.662899716024,1793.43567182223,0.138306280117996,0.0916442604714392
170.37,-28.4982553169077,-86.5791034134629,-87.4638685687961,0.088604874948951,-1.54079945894784,-3.08150443159025,-3.13785376434901,-104.403726859958,-136.950909331098,-184.705240361803,-0.0803873601847318,-0.59608277738436,-0.0437568529371414,-0.364282313148325,2.42108809032214,19.4711481220685,-4.05444115576031,4.26239058163298,25.0655287996347,201.942596990766,-20.542084044445,-2.43368532862308,-2.55268937450022,10.3384708709075,-2.28704333592804,-123.860756347256,-3.46118719049187,7.32554840621859,1.16761788123504,60.4820017037768,-33.4344018139985,-244.799925750017,7.76132905273962,0,0,-36.711546721535,141.828129902393,56.8447947773395,0.274658341393141,9.6464088036888,4.56166885232599,4.02183690126741,-53.2268892497885,70.2263890975178,-16.4422160838726,2.03095041633307,14.4,5.39258468896177,4.56553270129807,7.93275107711035,17.710031269021,-1.58782465478762,44.1901765590197,-34.9092996532,-93.5634765399094,-12.8273739989736,6.48915287209538,3.11441072217116,5.95669928681818,56.897694075462,-63.6087283622044,-5.10604389064199,9.5124253585317,-0.178649673306843,-33.586042550978,-20.5088346797944,-42.6653115392111,1802.39879936507,0.148557436438438,0.0877123834038048
170.375,-29.1820915175548,-79.9344648254604,-86.5589928816012,0.0891772715794539,-1.3607622630089,-2.98028608419527,-3.04535486814822,-105.574454821206,-134.975479282409,-175.373430239661,-0.0789091415218921,-0.704139435357388,-0.0481576506499669,-0.384885734371476,2.89414636766165,19.5562485529127,-4.12202090966595,2.55667388497475,21.0947933735372,200.756011462656,-19.9989430593515,-1.96563295898029,-3.10083626729046,0.814885981232401,0.713411215621123,-114.185758200088,-3.67759310306993,8.30926603632356,-0.0768659601895709,51.9319104411796,-23.7542275787118,-236.074628481876,7.5110336679039,0,0,-35.3165192681491,150.986956528732,74.0141184105875,0.241650375891131,9.7256934549982,5.50564008107721,5.04167962094904,-52.362519253347,84.0544185343638,2.07360959983875,1.98964319995002,14.4,6.67321694274414,5.89129466879015,9.74989557101766,18.7587689314826,-1.47018582391484,37.6701362873732,-43.5274950643953,-107.230840578531,-15.2051801549129,5.29274093258066,2.96173053742136,8.34532067543559,59.7034744388056,-49.4098728891164,-4.6990089506762,9.94883391950735,-0.200230319464949,-33.3144713327824,-17.8281710986558,-36.2790244704954,1810.15795629498,0.158521188933732,0.0838893653133367
170.38,-29.8658951110971,-73.2901430712642,-85.6541603412539,0.0897496409165831,-1.18073365171596,-2.87907256315673,-2.95390670371383,-106.745126959071,-133.000143427409,-166.042065082717,-0.0774309933443978,-0.812190940905375,-0.0525582385212078,-0.407619325454603,3.36718208834097,19.6413449259449,-4.18959744119156,0.851038521365184,17.1242472825258,199.569482514058,-19.4558279726456,-1.49760290730286,-3.64895702299826,-8.70824479892097,3.71372269762272,-104.511221382223,-3.89398869684613,9.29293676019021,-1.32129046135853,43.382226869373,-14.0745149195378,-227.349747258808,7.26075021780902,0,0,-33.9215583333334,160.145346438181,91.1826233654245,0.208643984295543,9.80497432580735,6.44956629880282,6.06465951219551,-51.4981904723354,97.8817886144752,20.5885524003876,1.94833795320347,14.4,7.95378813261968,7.22088098857984,11.5669534187065,19.8074565873802,-1.35255260237025,31.1504069083584,-52.1452795374153,-120.897552921367,-17.5828729308143,4.09638604112713,2.80905763286348,10.7338281683164,62.5091210151779,-35.2116944547216,-4.2919934192046,10.3852216713775,-0.221809936601208,-33.0429130638152,-15.1476353385921,-29.8930419167076,1817.91674324792,0.168484466331157,0.0800665295144043
170.385,-30.5497313117442,-66.6455044832616,-84.7492846540591,0.090322037547086,-1.00069645577703,-2.77785421576174,-2.86347627346794,-107.915854920319,-131.02471337872,-156.710254960575,-0.0759527746815581,-0.920247598878404,-0.0569590362340333,-0.432080709355489,3.84024036568047,19.7264453567891,-4.2571771950972,-0.854678175293051,13.1535118564283,198.382896985948,-18.9126869875521,-1.02955053766007,-4.1971039157885,-18.2318296885961,6.71417724917189,-94.8362232350544,-4.11039460942418,10.2766543902952,-2.56577430278314,34.8321356067758,-4.39434068425118,-218.624449990666,7.0104548329733,0,0,-32.5265308799476,169.30417306452,108.351946998672,0.175636018793533,9.88425897711676,7.39353752755403,7.08864799070825,-50.6338204758939,111.709818051321,39.104378084099,1.90703073682043,14.4,9.23442038640204,8.55293329705537,13.3840979126138,20.8561942498418,-1.23491377149747,24.6303666367119,-60.7634749486106,-134.564916959989,-19.9606790867536,2.89997410161241,2.65637744811369,13.1224495569338,65.3149013785215,-21.0128389816336,-3.88495847923881,10.8216302323531,-0.243390582759314,-32.7713418456196,-12.4669717574535,-23.5067548479918,1825.67590017783,0.17844821882645,0.0762435114239361
170.39,-30.5782951354981,-66.3679580688477,-82.5264508489431,0.0836139185360679,-0.808089521173263,-2.77362632751465,-2.87101235345944,-107.964756202698,-130.942199707031,-150.387460724562,-0.0769257520596701,-0.972272603136648,-0.0571428574621677,-0.453605615336838,4.29151640957734,20.0440480536368,-3.09730300752777,8.24305786605315,15.0564469841876,192.890544052039,-19.2424050678215,-1.3048695465445,-4.36863342996554,-20.8937589391403,4.03968090905247,-88.7939728378272,-3.57512897561857,8.45688768392723,-1.23230528263758,23.8021596247529,23.8080483174646,-163.79663160587,5.80134330672966,0,0,-32.4682606124878,169.686737060547,121.419099671739,0.16442917113852,9.67615512953486,7.43296718597412,7.20693120641012,-50.5977157592773,112.287414550781,53.7237002561275,1.82866152686909,14.4,9.28791236877441,8.65886441616101,13.4096564188826,21.2188426804099,-1.24917850709234,21.9607113048173,-53.2833541222885,-151.256995082083,-20.352472233158,5.89219068752015,2.72431671498274,14.0538827921209,40.6894568994072,-16.018759252116,-3.20652288492217,10.4861756311081,-0.379794056570459,-29.0094018758012,-12.2459225264875,-22.1911751645066,1817.60940314711,0.186478752272087,0.0752201175253771
170.395,-30.5782951354981,-66.3679580688477,-80.2460527668875,0.0765880866700619,-0.614925049968107,-2.77362632751465,-2.8836778583671,-107.964756202698,-130.942199707031,-144.195523673023,-0.0780056326828306,-1.02185761218962,-0.0571428574621677,-0.475750831416941,4.74186535914966,20.3718020113811,-1.88386278229126,17.8122008411905,17.215527339133,187.210216766281,-19.6101900433055,-1.61260799541892,-4.5237536237071,-23.2567009585012,1.11766371909769,-82.9097838876539,-3.00706913727125,6.51481831294337,0.213610623586895,12.6635293013416,52.8192784500286,-106.956340649957,4.55037400236212,0,0,-32.4682606124878,169.686737060547,134.308076947521,0.154172140472128,9.45551281821191,7.43296718597412,7.28264321232704,-50.5977157592773,112.287414550781,68.1738899198672,1.74867277595852,14.4,9.28791236877441,8.71106895079335,13.3571157080992,21.5516005153717,-1.26919401596222,19.4587726960823,-45.1010882277957,-168.081760022552,-20.6577087434236,9.06715078200496,2.80187681185353,14.9218392724352,14.8669794067835,-11.425694176574,-2.51622237849776,10.1170565568745,-0.521209782210311,-25.0951192851125,-12.1320841002748,-21.096577023185,1808.85261801653,0.194425410656563,0.0743187165304366
170.4,-30.5782951354981,-66.3679580688477,-77.9656546848318,0.0695622548040559,-0.421760578762951,-2.77362632751465,-2.8971356587112,-107.964756202698,-130.942199707031,-138.003586621483,-0.0790855133059912,-1.0714426212426,-0.0571428574621677,-0.498205786186822,5.19221430872197,20.6995559691254,-0.670422557054763,27.3813438163279,19.3746076940785,181.529889480524,-19.9779750187896,-1.92034644429334,-4.67887381744866,-25.6196429778621,-1.80435347085709,-77.0255949374807,-2.43900929892392,4.57274894195952,1.65952652981137,1.52489897793033,81.8305085825925,-50.1160496940448,3.29940469799458,0,0,-32.4682606124878,169.686737060547,147.197054223303,0.143915109805735,9.23487050688896,7.43296718597412,7.35343637833755,-50.5977157592773,112.287414550781,82.6240795836069,1.66868402504795,14.4,9.28791236877441,8.76195014658002,13.3045749973158,21.8843583503335,-1.28920952483209,16.9568340873472,-36.9188223333028,-184.906524963021,-20.9629452536893,12.2421108764898,2.87943690872431,15.7897957527494,-10.9554980858402,-6.83262910103196,-1.82592187207334,9.74793748264088,-0.662625507850164,-21.1808366944237,-12.0182456740622,-20.0019788818634,1800.09583288596,0.202372069041038,0.0734173155354961
170.405,-30.5782951354981,-66.3679580688477,-75.6853653381415,0.0625367579481522,-0.228605318146733,-2.77362632751465,-2.91123440564022,-107.964756202698,-130.942199707031,-131.811944817753,-0.0801653424376095,-1.12102526595221,-0.0571428574621677,-0.52046653139955,5.64254178447445,21.0272942987009,0.542959808167185,36.9500305096144,21.5335850984062,175.849833047679,-20.3457424573208,-2.22807021939087,-4.83398661465228,-27.9824723259461,-4.72623133136356,-71.1416865608794,-1.87097654716052,2.63077217394013,3.10537349097069,-9.61320022635434,110.840355383565,6.72153096762039,2.04849504312659,0,0,-32.4682606124878,169.686737060547,160.085416918821,0.133658568221483,9.01423871637048,7.43296718597412,7.41777809387298,-50.5977157592773,112.287414550781,97.0735802243797,1.58869908821095,14.4,9.28791236877441,8.81061240168612,13.2520367918113,22.2171003185283,-1.30922407930998,14.4550147776112,-28.7369465907218,-201.730487654542,-21.2681672094771,15.4169195805447,2.95699330732613,16.6577108466208,-36.7767442949672,-2.239783034887,-1.13565428098873,9.37883600897345,-0.804034490417079,-17.2667407470017,-11.9044126759645,-18.9074329338539,1791.33946530189,0.210318348507986,0.0725159575217207
170.41,-31.29087208555,-63.4889953106547,-72.941745033718,0.0526167326679988,-0.0433325996318679,-2.47599289789025,-2.62814058920635,-109.483094262559,-117.986863946839,-127.807420689963,-0.0776319090183167,-1.10461926426816,-0.306273090479657,-0.791156720027901,6.02614425756371,21.0700940485669,0.800658339968136,38.9897831458383,28.0107212233133,173.090831293741,-20.0615673517118,-3.02244526273886,-5.06068968949043,-31.7862926164288,-1.46166594789454,-60.1763209434222,-1.84895515441895,2.55548596382141,3.16142582893372,-10.0450000762939,111.965003967285,8.92500019073486,2,0,0,-30.2702340978935,161.229781028571,163.510036271394,0.119438596877307,8.66600683039041,8.1142169762118,8.15566741561806,-48.6573140872892,118.045341980495,104.417724056541,1.48355076317225,14.4,10.6548214529754,10.223286130451,10.152820834992,20.9535107732882,-2.25796252985668,12.6799409132461,-11.7813356997523,-210.618330163364,-19.6223194914411,16.1092790853901,2.20012527368629,7.42474409869662,-50.1126223755603,3.09946285606866,-1.70772418377411,9.26842554086807,-0.714016133625354,-15.2805168324619,-9.43354166475285,-19.8129624731744,1778.71159683519,0.214111546765765,0.0721972695224441
170.415,-32.0321514753779,-60.4940685780755,-70.1795749774054,0.0425804649361546,0.141613030265163,-2.16637086045519,-2.33324574756568,-111.062590639033,-104.509690167038,-123.891300312093,-0.0749528806280198,-1.0855527951246,-0.56543823342374,-1.0706784047271,6.40703672372613,21.1014002786624,1.01980195063693,40.7257973455807,34.6616847158331,170.449770730125,-19.7511139032643,-3.83640724522294,-5.29026871019108,-35.6480384893253,2.0522329239404,-49.0065672426673,-1.84895515441895,2.55548596382141,3.16142582893372,-10.0450000762939,111.965003967285,8.92500019073486,2,0,0,-27.9836715681272,152.432180703825,166.552818828631,0.105059488253331,8.31264618575544,8.82290735525216,8.91235668868282,-46.6387534710252,124.03519743605,111.474948932939,1.37739283020246,14.4,12.076789328603,11.6876787636429,6.93088798765922,19.6256048467357,-3.24410877786623,10.9342642968074,5.52727340862625,-219.185672967288,-17.8978679836783,16.7014886046975,1.40964296377388,-2.21512695850043,-62.9443117480538,8.46854573356532,-2.33067499893676,9.16845339797674,-0.614668920811912,-13.3721413323596,-6.86773533762023,-20.7991089003196,1765.92821954618,0.217737065663392,0.0719020960531435
170.42,-32.773466213038,-57.4989990327199,-67.4172732072949,0.0325437186259054,0.326567479275727,-1.8567340587248,-2.03821608443655,-112.642162333632,-91.0318737295783,-119.974993194422,-0.0722737244885268,-1.0664854167984,-0.824615734631279,-1.34851752092723,6.78794735270702,21.1327080015924,1.2389560111465,42.4618943269836,41.31296535887,167.808584227805,-19.4406456508758,-4.65040804140129,-5.51985867834396,-39.5099685091806,5.5662993556853,-37.8362809133444,-1.84895515441895,2.55548596382141,3.16142582893372,-10.0450000762939,111.965003967285,8.92500019073486,2,0,0,-25.6970000038595,143.634160866403,169.595746480645,0.0906796939630249,7.9592686911541,9.53163152812108,9.65983634451867,-44.6200965999038,130.025338517253,118.532510332387,1.27122983510243,14.4,13.4988250106241,13.1486082287109,3.70880150278661,18.2976355991242,-4.23030205015922,9.18850443795708,22.836707876268,-227.753424304081,-16.173334245621,17.2937263634554,0.619122959792994,-11.8554576919674,-75.7766129983487,13.8378846352324,-2.95365551944561,9.06847648792396,-0.515316970636742,-11.463674831566,-4.30180666027413,-21.7853023517568,1753.14423268312,0.221362757443519,0.071606908508526
170.425,-33.5465190082465,-54.7445371200052,-64.7350308088897,0.0227055943037582,0.503239363461679,-1.54782241835264,-1.74343247756791,-114.080353506178,-76.603042169148,-115.397575542115,-0.0693836927896931,-1.04403519063368,-1.05289481782424,-1.59329105854149,7.2087040527804,21.0199409692941,1.32929088744482,43.2638976923581,46.9349051583124,165.085831068928,-19.0126003273972,-5.43669899300562,-5.69565640656781,-43.7073460433994,8.51847166875193,-25.6767569734194,-1.78242540230621,2.30757678013672,3.28617910598383,-10.2387484160969,109.904968879225,9.9182521132665,2,0,0,-23.5075647255613,133.50020414629,171.233570480578,0.0763684889050545,7.61106674319593,10.1145637977619,10.2720293112956,-42.5812073656346,134.936102424658,124.939789490164,1.16526832854338,14.4,14.7320119059685,14.4172273242338,0.660232278386802,16.9469186219554,-5.09366821270894,7.49828294074455,37.6023327509264,-234.568037037649,-14.4015535244804,17.7052892008532,-0.108016022620162,-19.7483443353733,-86.4713977581928,18.3653675501982,-3.57707551362241,9.01023535174009,-0.431743493312434,-9.37632161744312,-1.95061851325114,-23.2916062958356,1737.49810258445,0.224963030240995,0.0714786728403587
170.43,-34.5356403125267,-53.6248964337793,-62.5960993778028,0.0142142044785095,0.623665365074426,-1.24372613250291,-1.45258202417229,-114.55786021871,-55.7030736396956,-106.323690722873,-0.0650588834755507,-0.99857727595652,-1.07118632234132,-1.62546606360498,7.90052309142318,19.9275951188055,0.543842204474441,37.7154743247969,45.5606428890322,161.807509160201,-17.7850116573243,-6.03488838732082,-5.50579629445907,-50.1869284251926,7.6515305175705,-6.78707255712151,-1.26354776701118,0.374087973801565,4.25915260032929,-11.749826951741,93.8383806059655,17.664804481929,2,0,0,-21.9784062582766,114.279697762329,163.318970849668,0.0625182868744209,7.29792286209631,9.84247760606182,10.0198159834502,-40.4040039058905,132.510212286898,126.928306036168,1.06063729874124,14.4,14.6817103925634,14.3992287606389,-1.20975978471157,15.4410418423533,-5.12227727069793,6.18502764136229,35.0785707330427,-229.465927818289,-12.3078906443772,16.8886306364403,-0.404509896324212,-15.7636259330912,-82.6375913340793,17.1709152974593,-4.20371524658378,9.23572615186541,-0.455413774702203,-6.0719753775493,-1.05853605132307,-28.3346028135163,1702.38698596161,0.228391823094992,0.0724854635647508
170.435,-35.5247144529073,-52.5053091349598,-60.4572699365801,0.00572321954501294,0.744085624459363,-0.939644346762179,-1.16042832508561,-115.035344162469,-34.8041016755936,-97.2502385702737,-0.0607342803796666,-0.953121528832036,-1.08947695467147,-1.65462368380105,8.59230914231855,18.8353013542338,-0.241569026241364,32.1673155206234,44.1864461481836,158.529343570467,-16.5574815219009,-6.63304925839577,-5.31594523537876,-56.6662018434924,6.78463070441839,12.1017111494483,-0.744694873163569,-1.55930863871296,5.23207970074502,-13.2608334351948,77.7725584298007,25.4109874746441,2,0,0,-20.4493207052808,95.060107862555,155.404748607639,0.0486687452577692,6.98479391251877,9.5704043881454,9.75868987088749,-38.2269042609212,130.084437821946,128.916727764484,0.956011258021203,14.4,14.6314112776665,14.3786926049929,-3.07966268168066,13.9352368669081,-5.15088496453195,4.87183496143927,32.5549290547554,-224.364061880886,-10.2143275956149,16.072011012451,-0.700989632422229,-11.7790975326402,-78.8039677159177,15.9765199993386,-4.83032509971809,9.46120619999759,-0.479082927430833,-2.7677866975563,-0.166496126228006,-33.377358867888,1667.27754352894,0.231820452455148,0.0734922062827189
170.44,-36.5138357571876,-51.3856684487339,-58.3183385054931,-0.00276817028023577,0.864511626072109,-0.635548060912451,-0.866489615703149,-115.512850875002,-13.9041331461412,-88.1763537510321,-0.0564094710655242,-0.907663614154878,-1.10776845918855,-1.68040823637179,9.28412818096134,17.7429555037452,-1.02701770921174,26.6188921530622,42.8121838789034,155.25102166174,-15.329892851828,-7.23123865271097,-5.12608512327002,-63.1457842252855,5.91768955323696,30.9913955657462,-0.225817237868539,-3.49279744504812,6.20505319509048,-14.771911970839,61.7059701565411,33.1575398433066,2,0,0,-18.9201622379961,75.8396014785937,147.490148976729,0.0348185432271356,6.67165003141915,9.29831819644529,9.4894275892236,-36.049700801177,127.658547684186,130.905244310488,0.851380228219065,14.4,14.5811097642615,14.3564440384772,-4.94965474477903,12.4293600873059,-5.17949402252095,3.558579662057,30.0311670368717,-219.261952661526,-8.12066471551169,15.2553524480381,-0.997483506126278,-7.7943791303581,-74.9701612918042,14.7820677465997,-5.45696483267945,9.6866970001229,-0.502753208820602,0.536559542337517,0.725586335700066,-38.4203553855688,1632.1664269061,0.235249245309145,0.074498997007111
170.445,-37.3248958765421,-48.8808678179756,-56.0796251384188,-0.00994151307757144,0.967670828221995,-0.372608347959315,-0.611484892719729,-115.845387981452,1.76778888761921,-77.6823686880858,-0.0490881609174567,-0.866865404804438,-1.12870075088249,-1.70515979854524,9.56869517995578,16.7397981349013,-1.64708937243297,22.5321352462408,38.0440856779612,150.856378739533,-14.3373040959764,-7.38196734204714,-4.85357864249779,-68.5251365410244,3.48942726979755,50.3121128152442,0.408369514834513,-4.6144283530867,6.93725078382107,-18.2968686842694,45.2829076792493,39.3691217936736,1.85171591575846,0,0,-17.6653039335438,62.1694036875483,138.113602721134,0.0247271872222469,6.36461315638907,8.97228487272241,9.15921100506835,-34.1585713416407,125.972950287378,132.247914054379,0.750260805395859,14.4,14.5215906565933,14.3243106535414,-5.76952286431222,11.5472178320413,-5.16144613809719,2.26396508322693,24.2377739586209,-213.187541564927,-6.59701596694257,14.8738906158321,-1.17737750146684,-5.18083507607413,-69.0753044344296,15.6192935546102,-5.7164718811145,9.80375043436536,-0.649524126335853,3.18266192832401,1.24044137824355,-44.8453541463239,1594.46999488159,0.238880835747645,0.0752500907892915
170.45,-37.6854079791119,-42.8697144196066,-53.5879801708849,-0.0137799999091231,1.02714399394764,-0.213794357193186,-0.45795133756345,-115.811053462797,4.20981986207503,-63.5922494529835,-0.0341812771297682,-0.837854346870374,-1.15632057332809,-1.73269142516312,8.82252836972397,15.962213774765,-1.84868531765351,22.1442642597656,24.6851624521083,143.635513874652,-13.9393484638528,-6.40016890753158,-4.37184287729548,-71.1206398921882,-2.89105045772086,70.7270557367266,1.33451801861184,-3.68138232960715,7.06015199006066,-26.9196771783358,27.9548202318468,41.6966384559672,1.32809008401683,0,0,-17.1045061088677,62.5451005876832,125.035194500813,0.0241480188083655,6.0729818173688,8.50965290917973,8.68677827845361,-32.9911955850282,126.160798737445,131.956129098889,0.658012464688238,14.4,14.4387311892565,14.2693846791179,-3.93159619489908,12.2436401882576,-5.02530342184437,1.01631341006477,10.16775392423,-204.65114760425,-6.51585396302261,15.5938761344769,-1.06217981848368,-6.03738350454038,-57.9628006719127,21.5989712627708,-5.04678562987769,9.64636146575936,-1.10789557140722,4.16315133071917,0.800595677707942,-54.7693734015484,1550.22361209942,0.243026331705709,0.075354125244726
170.455,-38.0459028915185,-36.8588476488076,-51.0964540115222,-0.0176183037115487,1.08661432383666,-0.0549879390949355,-0.301378637582498,-115.776720581301,6.65173439408501,-49.5028020717453,-0.019275104141421,-0.808844672259691,-1.18393907878806,-1.75615405534342,8.07639713868394,15.1846664918917,-2.0502716502503,21.7564117679969,11.3268762147747,136.414993319558,-13.5414118072981,-5.41841728774206,-3.89013008251875,-73.7160194829404,-9.27122394731598,91.1410252201525,2.26062236119787,-2.74838079621074,7.18304733604819,-35.5420745142631,10.6275590331305,44.0240441361579,0.804489220129084,0,0,-16.5437350245038,62.9207795736038,111.957409893319,0.0235688780107542,5.78136438409614,8.04704300514323,8.21036114471364,-31.8238754919554,126.348638230405,131.664358056472,0.565768522623604,14.4,14.3558756728765,14.2163441065074,-2.09375716265308,12.9400293372283,-4.88916719723356,-0.231278771791206,-3.90159521467962,-196.11516068124,-6.43469582912001,16.3138273223225,-0.946987628428379,-6.89389109052959,-46.8508267827394,27.5783638442049,-4.37713131103891,9.48898000187245,-1.56624516012511,5.14359398080638,0.360770950169694,-64.6929194534896,1505.97933910091,0.247171629995646,0.0754581547395246
170.46,-38.4064149940883,-30.8476942504385,-48.6048090439883,-0.0214567905431003,1.14608748956231,0.103826051671194,-0.141418087855213,-115.742386062645,9.09376536854084,-35.412682836643,-0.00436822035373242,-0.779833614325628,-1.21155890123366,-1.7754694630779,7.33023032845212,14.4070821317554,-2.25186759547084,21.3685407815216,-2.03204701107817,129.194128454676,-13.1434561751745,-4.4366188532265,-3.40839431731644,-76.3115228341042,-15.6517016748344,111.555968141635,3.18677086497519,-1.8153347727312,7.30594854228778,-44.1648830083295,-6.70052841427207,46.3515607984516,0.280863388387451,0,0,-15.9829371998277,63.2964764737387,98.8790016729972,0.0229897095968728,5.48973304507587,7.58441104160055,7.73168432476728,-30.6564997353429,126.536486680473,131.372573100982,0.473520181915983,14.4,14.2730162055397,14.1665677284677,-0.255830493239941,13.6364516934447,-4.75302448098074,-1.47893044495336,-17.9716152490705,-187.578766720563,-6.35353382520006,17.0338128409673,-0.831789945445221,-7.75043951899583,-35.7383230202226,33.5580415523655,-3.70744505980211,9.33159103326645,-2.02461660519647,6.12408338320154,-0.0790747503659095,-74.6169387087141,1461.73295631874,0.25131712595371,0.0755621891949591
170.465,-38.5997871398926,-27.623420715332,-45.8680652409447,-0.0216067635412879,1.18904344147306,0.189010992646217,-0.0514482484039045,-115.723969650269,10.4036264419556,-23.494039201343,0.00796745456168042,-0.758701253370626,-1.22637367248535,-1.77783407248965,6.70989161588671,13.883458175775,-2.20428502613262,21.7227617639879,-9.28281057698111,123.307519181312,-12.9042426359016,-3.80814133288376,-3.09848527180325,-77.0286930957387,-14.9040406608428,124.272474687329,4.19864650524783,-0.967161967390353,7.38420841361336,-51.4248618622954,-22.0965682885364,49.9562118944829,0,0,0,-15.6821354293823,63.4979934692383,88.2012136607337,0.01987863582837,5.15865973526339,7.33626365661621,7.46710825865123,-30.0303405761719,126.637245178223,130.791358220741,0.392397459662382,14.4,14.2285718917847,14.1598383965794,1.16436282184062,14.1610318167586,-4.58867843637853,-1.72608584081243,-26.5115212758461,-182.280181407352,-5.86627086394181,17.6834275873697,-0.726680796743641,-8.7851532497839,-34.4117906453062,37.2727741188847,-3.33253475060602,9.36045466353919,-2.23318467166268,6.81391060534072,-1.20011669145694,-87.2668019524917,1417.15995086587,0.255972254631299,0.0754358582592513
170.47,-38.5997871398926,-27.623420715332,-42.8474442989944,-0.0174888963688815,1.21289229790428,0.189010992646217,-0.0428566524072992,-115.723969650269,10.4036264419556,-14.0867111779066,0.0173293388034341,-0.746682894674059,-1.22637367248535,-1.76132723765868,6.23508056552423,13.653629422674,-1.86838146390809,22.9356688994686,-9.46677335588436,118.964126791274,-12.8486796406464,-3.58841494255644,-2.98735928129288,-75.5725809305215,-5.90857257379413,128.082686819867,5.30981821979286,-0.217105872400975,7.410823343921,-57.1087030241573,-35.2586843703345,55.0389631649855,0,0,0,-15.6821354293823,63.4979934692383,80.3000044318927,0.0138376593229917,4.78191539040138,7.33626365661621,7.45215518839244,-30.0303405761719,126.637245178223,129.875193902278,0.324139472984487,14.4,14.2285718917847,14.2034427921602,2.1013569690985,14.4868330162094,-4.39168236229196,-0.815625985901436,-28.6535963454483,-180.727410832881,-4.90907199113658,18.2516854933886,-0.633233941087193,-10.0261225040804,-44.4081409701166,38.367196752699,-3.29866123031211,9.60482789558288,-2.15273508354517,7.16749332650508,-3.10946325628269,-103.071948974348,1372.20443652304,0.261217541053244,0.0750429662645126
170.475,-38.5997871398926,-27.623420715332,-39.826967388178,-0.0133712255471891,1.23674001715943,0.189010992646217,-0.0303906930088728,-115.723969650269,10.4036264419556,-4.67983172055949,0.0266907766459774,-0.734665109044376,-1.22637367248535,-1.74093994321682,5.76029215539874,13.4238116284111,-1.53249391844696,24.1485182003539,-9.65072736295951,114.620941505585,-12.7931192947807,-3.36869902936007,-2.87623858956138,-74.1165381965538,3.08646658572795,131.892717271492,6.42093695075432,0.532914457945308,7.43743700515891,-62.7922731655555,-48.4201728478944,60.1214720765682,0,0,0,-15.6821354293823,63.4979934692383,72.399171953444,0.00779697086722738,4.40518900969848,7.33626365661621,7.44046041342945,-30.0303405761719,126.637245178223,128.959073268933,0.255884741026537,14.4,14.2285718917847,14.2540012784742,3.03830643801634,14.8126186806041,-4.19469568149521,0.09479045589422,-30.7955692752894,-179.174714298585,-3.95191876008573,18.8199163033792,-0.53979154122207,-11.267032585706,-54.4040146427086,39.4615672015698,-3.26478932519654,9.84918947526952,-2.07228933147516,7.52105918791733,-5.01871877845325,-118.876342365314,1327.25106577711,0.266462577366166,0.0746500930038954
170.48,-38.5997871398926,-27.623420715332,-36.8063464462277,-0.00925335837478273,1.26058887359066,0.189010992646217,-0.0140908680346812,-115.723969650269,10.4036264419556,4.72749630287686,0.0360526608877311,-0.722646750347808,-1.22637367248535,-1.71693447747002,5.28548110503626,13.1939828753101,-1.19659035622243,25.3614253358347,-9.83469014186276,110.277549115547,-12.7375562995255,-3.14897263903275,-2.76511259905102,-72.6604260313365,12.0819346727766,135.70292940403,7.53210866529934,1.28297055293469,7.46405193546655,-68.4761143274173,-61.5822889296925,65.2042233470708,0,0,0,-15.6821354293823,63.4979934692383,64.4979627246029,0.00175599436184904,4.02844466483648,7.33626365661621,7.43364829251023,-30.0303405761719,126.637245178223,128.042908950469,0.187626754348642,14.4,14.2285718917847,14.3123004889351,3.97530058527421,15.1384198800549,-3.99769960740864,1.00525031080522,-32.9376443448916,-177.621943724114,-2.99471988728051,19.3881742093981,-0.446344685565623,-12.5080018400024,-64.400364967519,40.555989835384,-3.23091580490262,10.0935627073132,-1.99183974335765,7.87464190908168,-6.92806534327901,-134.68148938717,1282.29555143428,0.271707863788111,0.0742572010091567
170.485,-38.6747732373466,-25.1618901703686,-33.8456696076513,-0.00303469543208861,1.26673620588687,0.279492194466892,0.0963715033089232,-115.587884669565,14.5061775521918,11.2418240514043,0.0402600631905165,-0.700983500717695,-1.23642713872318,-1.6997094775542,5.25838602649485,12.8322239319116,-0.751728415839177,24.3424964967693,-7.59170123890148,104.833894176756,-12.1115254970788,-3.29285865410046,-2.43426970884522,-72.7414456907962,23.2086135695317,141.166089794906,6.85677196248784,1.80407653914685,6.09349784369457,-82.9690629154171,-85.4365364030501,76.3393471780911,0,0,0,-15.2655486919334,66.5065315559697,60.5152698966433,-0.00891685872770046,3.63118358128785,7.18992990056019,7.28677438926395,-29.3304748572576,127.093083988507,127.483536240275,0.12457538490143,13.9131848113312,14.253146970888,14.4033455183515,5.00670834034573,15.2479034933763,-3.7106736710504,1.7689613013586,-33.480760503088,-177.228339704598,-1.96981006419348,19.6585641814729,-0.321219916812902,-14.2435081520424,-76.4422711205263,41.2697536652209,-3.21411633491516,10.2147588729858,-1.95194101333618,8.05000019073486,-7.875,-142.520004272461,1260,0.274309247732162,0.0740623474121094
