time,hip_angle_l,hip_angle_l_velocity,hip_angle_l_velocity_filt,hip_angle_l_torque_estimated,hip_angle_l_torque_desired,hip_angle_l_torque_measured,hip_angle_l_torque_interaction,knee_angle_l,knee_angle_l_velocity,knee_angle_l_velocity_filt,knee_angle_l_torque_estimated,knee_angle_l_torque_desired,knee_angle_l_torque_measured,knee_angle_l_torque_interaction,thigh_imu_l_accel_x,thigh_imu_l_accel_y,thigh_imu_l_accel_z,thigh_imu_l_gyro_x,thigh_imu_l_gyro_y,thigh_imu_l_gyro_z,shank_imu_l_accel_x,shank_imu_l_accel_y,shank_imu_l_accel_z,shank_imu_l_gyro_x,shank_imu_l_gyro_y,shank_imu_l_gyro_z,foot_imu_l_accel_x,foot_imu_l_accel_y,foot_imu_l_accel_z,foot_imu_l_gyro_x,foot_imu_l_gyro_y,foot_imu_l_gyro_z,insole_l_force_y,insole_l_cop_x,insole_l_cop_z,hip_angle_r,hip_angle_r_velocity,hip_angle_r_velocity_filt,hip_angle_r_torque_estimated,hip_angle_r_torque_desired,hip_angle_r_torque_measured,hip_angle_r_torque_interaction,knee_angle_r,knee_angle_r_velocity,knee_angle_r_velocity_filt,knee_angle_r_torque_estimated,knee_angle_r_torque_desired,knee_angle_r_torque_measured,knee_angle_r_torque_interaction,thigh_imu_r_accel_x,thigh_imu_r_accel_y,thigh_imu_r_accel_z,thigh_imu_r_gyro_x,thigh_imu_r_gyro_y,thigh_imu_r_gyro_z,shank_imu_r_accel_x,shank_imu_r_accel_y,shank_imu_r_accel_z,shank_imu_r_gyro_x,shank_imu_r_gyro_y,shank_imu_r_gyro_z,foot_imu_r_accel_x,foot_imu_r_accel_y,foot_imu_r_accel_z,foot_imu_r_gyro_x,foot_imu_r_gyro_y,foot_imu_r_gyro_z,insole_r_force_y,insole_r_cop_x,insole_r_cop_z
205,-14.9325869467685,17.9828866069121,7.66983584943839,0.131927416307664,0.507969570440339,-0.147385917816559,-0.184856239362105,-6.24256629943848,0.109012940431316,-0.540295863179659,-0.00496242391469215,0.165344107772882,-0.206228946261053,-0.2211092383625,0.737790434492245,9.51204556417201,2.01306605815494,-18.2293203043536,-4.58314349788588,-22.7391040255498,0.445302957218654,9.45751252272641,-1.13770843382435,-11.1789082854679,-14.9428386495657,-27.9484687421602,-3.11964561633067,9.48002337642738,0.959053144857997,11.8017605477275,1.83517995269976,-17.900068648566,519.035991243368,-0.267905007845873,-0.0232695003149782,-3.77179410081871,-52.0795831816532,-38.2618129864475,-0.0292145767360831,-0.76146573136334,-0.804736052069088,-0.73345285925479,-19.0749442283362,-81.4650255616809,-64.3820845976925,-0.095488238118289,-1.83878014241055,-2.00803824774317,-1.87350419241232,-0.612154898395846,9.32527562366271,0.397735767380282,-31.5516015729201,-2.00221038241478,52.9835091668419,0.0978451016041433,9.90436446390362,3.93002733355595,-7.84785847444828,-6.35696729302819,-88.2023510736525,-3.4368531703949,9.51541328430176,-1.2957056760788,6.8600001335144,-11.1300001144409,-62.7900009155273,394,0.180583864450455,0.153460040688515
205.005,-14.7633627522358,19.9534758056183,8.22313582899026,0.136742663135977,0.532355507815023,-0.0636875117390278,-0.105820407306066,-6.23691864707898,0.54412875916992,-0.499980016864251,-0.00787711434302265,0.192343661442073,-0.169771146153665,-0.186921997596559,0.787416233542551,9.72015337836825,1.92212363135271,-18.6206834827378,-4.47320251865683,-23.2670984871305,0.290028309093354,9.29860311849375,-1.29088012821473,-10.9191325941422,-14.2905749340351,-27.9659284925875,-3.11909203412368,9.45558095931464,0.943935547737175,10.464124122071,1.78871634128592,-15.2714466396059,539.766637209233,-0.259288007978278,-0.025453346819306,-4.22405830490206,-53.0081942627868,-41.3443434920528,-0.0325751379222073,-0.724735008406176,-0.868659805409992,-0.801066587011742,-19.8360567354044,-84.2922089254763,-67.8213500665493,-0.0883127900676647,-1.80150047861585,-1.98848306024781,-1.84754994926607,-0.666354417866169,9.27617273040457,0.501061815676323,-32.1814564990625,-1.09921404311509,55.9349508478767,0.0555309078381684,9.95544598055809,3.8553775294699,-7.13435752005018,-6.27272646581244,-90.2922035066736,-3.43301649985908,9.51269048506212,-1.29904728380717,7.64313970833373,-11.149895127991,-64.2839344762251,390.796129592739,0.182448360521523,0.153038909272635
205.01,-14.52649200122,20.6296241690489,9.42396866492546,0.136958561826412,0.542963731154971,0.0233012517033421,-0.0228665004510862,-6.21975305790745,1.10758571777341,-0.340399288665478,-0.0106439160887538,0.196519748105614,-0.13801334313021,-0.15741382191029,0.779563081347471,9.78140796548985,1.74621302218296,-17.9555893585621,-5.0859422948654,-24.7543497793836,0.198931743630451,9.35514581429831,-1.23276680197115,-10.8609610964009,-13.5227111638497,-28.0124656907805,-3.01226002021577,9.44843372325087,0.915722868403539,9.39766613486436,1.48087277743886,-13.3914019621638,569.451552506628,-0.251895704014235,-0.0286120894072725,-4.67377097783351,-51.6558975359257,-42.8002099964389,-0.03312237743249,-0.694074461444223,-0.876944448990117,-0.811336993619111,-20.7389140008057,-86.4333456593181,-70.2305975526748,-0.0800326838235693,-1.76299247952501,-1.98019841666769,-1.83049073837135,-0.746456570255965,9.38611686113567,0.413106511091457,-33.2207872587075,-1.02553014597609,58.4014223521086,0.0115532555457353,10.1847580246544,3.75014529005586,-6.30444415227402,-6.08851672296493,-91.8182357974209,-3.42135524558701,9.50441475380796,-1.30920383413751,10.023430021828,-11.210364435842,-68.8246264523054,381.058220870842,0.188115347710282,0.151758913902513
205.015,-14.2896325448231,21.3057402919509,10.6247442419995,0.137174450222231,0.553571448666988,0.110285867293173,0.0607143650212809,-6.20258828723627,1.67101580927034,-0.180826169694637,-0.0134105859061164,0.200695635642383,-0.106257054402151,-0.127888509994378,0.771710303611298,9.84265963183199,1.57031080089273,-17.2905269478197,-5.69865285403333,-26.2415301555918,0.107839521890867,9.41168581399875,-1.17465624672349,-10.8027923724293,-12.7548840074241,-28.0590006699579,-2.90543310033867,9.44128682798607,0.887511534324496,8.33125899917342,1.17304389238084,-11.5114469301861,599.135052349355,-0.244503752534646,-0.0317706813781024,-5.12346220728447,-50.3036652901216,-44.2560070812893,-0.0336695908489566,-0.663415376457615,-0.885228697536694,-0.819993876107719,-21.6417282156031,-88.574380298141,-72.6397301595572,-0.0717529723966703,-1.72448631659662,-1.97191416812111,-1.81157921708585,-0.82655490316491,9.49605574944206,0.325155400446348,-34.2600684603341,-0.951849762278686,60.8677762485061,-0.0324222997768193,10.4140591345506,3.64491806839118,-5.47457035694531,-5.90431576372142,-93.3441953229435,-3.40969454735415,9.49613941716239,-1.31935990017688,12.4036068368333,-11.2708308603576,-73.3651019162754,371.320776477989,0.193782064682219,0.15047897956593
205.02,-14.0527617938073,21.9818886553815,11.8255770779347,0.137390348912666,0.564179672006935,0.197274630735543,0.144924849450804,-6.18542269806475,2.23447276787383,-0.0212454414958642,-0.0161773876518476,0.204871722305924,-0.0744992513786959,-0.0983410221413805,0.763857151416218,9.90391421895359,1.39440019172298,-16.6254328236439,-6.3113926302419,-27.7287814478449,0.0167429564279631,9.46822850980331,-1.11654292047991,-10.7446208746879,-11.9870202372387,-28.1055378681509,-2.79860108643076,9.43413959192229,0.85929885499086,7.26480101196679,0.865200328533771,-9.63140225274402,628.81996764675,-0.237111448570603,-0.0349294239660689,-5.57317488021592,-48.9513685632605,-45.7118735856754,-0.0342168303592394,-0.632754829495662,-0.893513341116819,-0.827222059422752,-22.5445854810043,-90.7155170319827,-75.0489776456827,-0.0634728661525749,-1.68597831750577,-1.96362952454099,-1.79149085403732,-0.906657055554705,9.60599988017315,0.237200095861481,-35.299399219979,-0.878165865139685,63.334247752738,-0.0763999520692525,10.6433711786468,3.53968582897714,-4.64465698916915,-5.72010602087391,-94.8702276136908,-3.39803329308209,9.48786368590823,-1.32951645050723,14.7838971503276,-11.3313001682086,-77.9057938923557,361.582867756092,0.199449051870978,0.149198984195809
205.025,-13.8158910427914,22.658037018812,13.0264099138699,0.137606247603101,0.574787895346883,0.284263394177913,0.229750016296735,-6.16825710889323,2.79792972647732,0.138335286702909,-0.0189441893975787,0.209047808969465,-0.0427414483552411,-0.0687660489117812,0.756003999221138,9.9651688060752,1.21848958255323,-15.9603386994682,-6.92413240645047,-29.216032740098,-0.0743536090349405,9.52477120560788,-1.05842959423633,-10.6864493769466,-11.2191564670533,-28.152075066344,-2.69176907252285,9.42699235585852,0.831086175657223,6.19834302476016,0.557356764686706,-7.75135757530196,658.504882944146,-0.22971914460656,-0.0380881665540354,-6.02288755314737,-47.5990718363994,-47.1677400900616,-0.0347640698695221,-0.602094282533708,-0.901797984696944,-0.833289882204729,-23.4474427464056,-92.8566537658244,-77.4582251318082,-0.0551927599084795,-1.64747031841493,-1.95534488096086,-1.7710315885724,-0.9867592079445,9.71594401090424,0.149244791276615,-36.3387299796239,-0.804481968000685,65.80071925697,-0.120377604361686,10.8726832227431,3.4344535895631,-3.814743621393,-5.5358962780264,-96.3962599044381,-3.38637203881002,9.47958795465407,-1.33967300083757,17.1641874638219,-11.3917694760596,-82.446485868436,351.844959034196,0.205116039059737,0.147918988825687
205.03,-13.5790315863946,23.3341531417141,14.227185490944,0.137822135998919,0.5853956128589,0.371248009767744,0.31517330727854,-6.15109233822204,3.36135981797426,0.29790840567375,-0.0217108592149413,0.213223696506234,-0.0109851596271814,-0.0391532524652083,0.748151221484965,10.0264204724173,1.04258736126299,-15.2952762887258,-7.5368429656184,-30.7032131163062,-0.165445830774524,9.58131120530831,-1.00031903898866,-10.628280652975,-10.4513293106276,-28.1986100455213,-2.58494215264575,9.41984546059372,0.80287484157818,5.13193588906922,0.249527879628685,-5.87140254332421,688.188382786873,-0.222327193126971,-0.0412467585248653,-6.47257878259832,-46.2468395905953,-48.623537174912,-0.0353112832859887,-0.571435197547101,-0.910082233243521,-0.838537270313619,-24.350256961203,-94.9976884046474,-79.8673577386906,-0.0469130484815805,-1.60896415548654,-1.94706063241429,-1.75110432348984,-1.06685754085345,9.82588289921064,0.0612936806315059,-37.3780111812505,-0.73080158430328,68.2670731533674,-0.16435315968424,11.1019843326393,3.32922636789841,-2.98486982606428,-5.35169531878289,-97.9222194299607,-3.37471134057716,9.47131261800849,-1.34982906687694,19.5443642788271,-11.4522359005753,-86.9869613324061,342.107514641343,0.210782756031675,0.146639054489104
205.035,-13.3421608353787,24.0103015051446,15.4280183268792,0.138038034689354,0.596003836198848,0.458236773210114,0.401191847656204,-6.13392674905052,3.92481677657774,0.457489133872523,-0.0244776609606725,0.217399783169775,0.0207726433962734,-0.00948280801733486,0.740298069289885,10.0876750595389,0.866676752093239,-14.63018216455,-8.14958274182697,-32.1904644085593,-0.256542396237428,9.63785390111288,-0.942205712745081,-10.5701091552336,-9.68346554044222,-28.2451472437143,-2.47811013873784,9.41269822452995,0.774662162244544,4.06547790186259,-0.0583156842183806,-3.99135786588215,717.873298084268,-0.214934889162928,-0.0444055011128318,-6.92229145552977,-44.8945428637342,-50.0794036792981,-0.0358585227962714,-0.540774650585148,-0.918366876823646,-0.843359497087881,-25.2531142266042,-97.1388251384891,-82.276605224816,-0.0386329422374851,-1.57045615639569,-1.93877598883416,-1.73266841638798,-1.14695969324324,9.93582702994173,-0.0266616239533604,-38.4173419408954,-0.657117687164279,70.7335446575994,-0.208330811976673,11.3312963767356,3.22399412848437,-2.15495645828813,-5.16748557593538,-99.448251720708,-3.3630500863051,9.46303688675433,-1.35998561720729,21.9246545923215,-11.5127052084263,-91.5276533084863,332.369605919446,0.216449743220434,0.145359059118982
205.04,-13.3331703186035,24.0359649658203,16.8378771085135,0.135702403682303,0.639205844416183,0.461538463830948,0.404106425062463,-6.13327522277832,3.94620299339294,0.865891749673513,-0.0287844104174459,0.193435352917021,0.0219780225306749,-0.0102872744954976,0.636506417081248,10.0294660175381,0.945919200913697,-14.1637706574859,-8.45730824096003,-32.6953134503352,-0.248283745329943,9.71810836446698,-0.801357653071103,-10.5992410104343,-9.9725402502976,-27.5044019674126,-2.41699860249619,9.41803920693384,0.797442902334222,4.01816559671633,0.0325172306836821,-3.60561388324285,735.012214715732,-0.210682426405522,-0.0479611637775212,-6.93936046600342,-44.8432159423828,-50.0915524118229,-0.0343929935377841,-0.494526405296635,-0.91868132352829,-0.840213709542775,-25.2873825073242,-97.2200927734375,-84.6084396492213,-0.0333010907351831,-1.49422963022085,-1.93846154212952,-1.72466756985623,-0.821944869238648,9.9321891635533,0.0910679649238445,-37.7142785106225,-5.58671955862507,74.7952582689092,-0.397460074720752,11.3439054182233,3.07159410751275,-1.29656885764888,-6.42372786977471,-100.525920931158,-3.71617184288699,9.69609380455581,-1.63489792462289,17.4564000792478,-16.6476960273387,-103.188762317803,303.49044696955,0.229487932907239,0.132247530444717
205.045,-13.3331703186035,24.0359649658203,18.2560528423935,0.133265986887385,0.683695974307404,0.461538463830948,0.404298482055216,-6.13327522277832,3.94620299339294,1.2841318190134,-0.0331521316277482,0.168359457192365,0.0219780225306749,-0.0121942395463586,0.528924388780268,9.96654068022994,1.03523258289941,-13.7051750092427,-8.75301472452664,-33.1614270600249,-0.236104647786436,9.79930234809036,-0.657238332139614,-10.6318188433696,-10.3033305539484,-26.7325579255608,-2.35768792814728,9.42387317386722,0.822236705254188,4.01106110572695,0.139084336911604,-3.27880807205734,751.656981358524,-0.206553634584311,-0.0515326630738703,-6.93936046600342,-44.8432159423828,-50.0467401927904,-0.0328479783080848,-0.447660858589871,-0.91868132352829,-0.837193371257307,-25.2873825073242,-97.2200927734375,-86.9373353394157,-0.0280852976677246,-1.41651114994018,-1.93846154212952,-1.72038421715391,-0.480930138020478,9.92406976519095,0.216918639540067,-36.9424344687706,-10.7139692652124,78.9201131159486,-0.592325635416862,11.3479651174045,2.91732553862832,-0.437015265586603,-7.7368651357824,-101.58595349513,-4.08370353247489,9.9386839984696,-1.9202697361251,12.7177163252095,-21.9831554516352,-115.13138374682,273.854642947018,0.242817597953555,0.118668541446348
205.05,-13.3331703186035,24.0359649658203,19.6741609539327,0.130829686267215,0.728183982792469,0.461538463830948,0.405069617797796,-6.13327522277832,3.94620299339294,1.70235194556912,-0.0375196445736404,0.143284757152228,0.0219780225306749,-0.0139697362728047,0.421347490272741,9.90361834336705,1.12454170618867,-13.2466012280436,-9.04870710803204,-33.6275184441945,-0.223926130974263,9.88049246017152,-0.513125883195581,-10.6643951229083,-10.6341050846494,-25.9607506872585,-2.29838008188699,9.42970686262176,0.84702932594056,4.00395695349834,0.245646361740221,-2.9520178438306,768.300954335159,-0.20242503963473,-0.0551039920717598,-6.93936046600342,-44.8432159423828,-50.0019301105221,-0.0313030367487665,-0.400797546555371,-0.91868132352829,-0.835036310356719,-25.2873825073242,-97.2200927734375,-89.2661199817516,-0.0228697533029681,-1.33879637548062,-1.93846154212952,-1.72035864482216,-0.139931667279668,9.91595075398283,0.342763313265835,-36.1706272304684,-15.8409744910774,83.0447712790835,-0.787181904411624,11.3520246230086,2.76306432567413,0.422497340704549,-9.04993978795898,-102.645935513968,-4.45121769718727,10.1812626250463,-2.2056279403504,7.97925852404906,-27.3183604672238,-127.073435720305,244.220252037399,0.256146627406459,0.105090199929812
205.055,-13.3331703186035,24.0359649658203,21.0923366878127,0.128393269472297,0.772674112683689,0.461538463830948,0.406422426880665,-6.13327522277832,3.94620299339294,2.12059201490901,-0.0418873657839428,0.118208861427572,0.0219780225306749,-0.015582825715724,0.313765461971762,9.84069300605894,1.21385508817439,-12.7880055798005,-9.34441359159865,-34.0936320538842,-0.211747033430756,9.9616864437949,-0.369006562264092,-10.6969729558436,-10.9648953883002,-25.1889066454067,-2.23906940753808,9.43554082955515,0.871823128860525,3.99685246250896,0.352213467968143,-2.6252120326451,784.945720977952,-0.198296247813519,-0.058675491368109,-6.93936046600342,-44.8432159423828,-49.9571178914896,-0.0297580215190672,-0.353931999848607,-0.91868132352829,-0.83412776385757,-25.2873825073242,-97.2200927734375,-91.595015671946,-0.0176539602355095,-1.26107789519995,-1.93846154212952,-1.72531587343387,0.201083063938502,9.90783135562049,0.468613987882058,-35.3987831886165,-20.9682241976647,87.1696261261229,-0.982047465107734,11.3560843221898,2.60879575678971,1.28205093276683,-10.3630770539667,-103.705968077939,-4.81874938677517,10.4238528189601,-2.49099975185261,3.24057477001077,-32.6538198915203,-139.016057149323,214.584448014867,0.269476292452775,0.0915112109314438
205.06,-13.323123454535,23.9260298086223,22.4659105232709,0.126105529195488,0.818859445264701,0.463390592570028,0.410212423693921,-6.13013561428779,3.99429962124229,2.54652495592614,-0.0462077369188749,0.0922002496908466,0.0232408375103196,-0.0157382955734179,0.199082964929671,9.77674404217199,1.30411782901776,-12.3131667246661,-9.6516197587511,-34.5390719490203,-0.200574580793163,10.0372228594997,-0.230095763465547,-10.7309960447428,-11.3137436954485,-24.3995183741963,-2.188766429041,9.43995223955609,0.896585964788727,4.00005517296065,0.460027595110375,-2.30832408258942,801.469240981092,-0.194144662588461,-0.0620989744215775,-6.96552416233811,-44.8981835301145,-49.8886637077245,-0.0284584826037494,-0.306820712660614,-0.916576632103651,-0.832688389389051,-25.3420123672274,-97.2888022855003,-93.9003926979973,-0.012483673022337,-1.18197665607818,-1.93719872727473,-1.73454738131594,0.52731862296516,9.89636098830987,0.593734775155607,-34.6272471190048,-25.8682994971634,91.2336259081203,-1.17833142150104,11.3574143864307,2.44573124363616,2.16029333538278,-11.6842502729314,-104.704158629095,-5.17324256896973,10.6578369140625,-2.76624774932861,-1.33000004291534,-37.7999992370605,-150.535003662109,186,0.282333076000214,0.0784139484167099
205.065,-13.0395395605324,20.8229879287355,22.6270568655363,0.127862393047908,0.911258432410561,0.515668982766499,0.465015578489581,-6.04151667853613,5.35188034702488,3.18246777746613,-0.04924482817029,0.0407636593486387,0.0588851924943155,0.0187155886651105,-0.10906247180586,9.68484101718069,1.42034812533029,-11.3954713044552,-10.2723155702392,-34.4222743500844,-0.216792761673981,9.95883498524239,-0.232798793612348,-10.8044116783596,-12.1546864077872,-23.1314301571776,-2.38362814598438,9.40564080942324,0.920539059837426,4.28387332548591,0.601936679428661,-2.26102106790942,814.714088700427,-0.189366944714345,-0.061497357773921,-7.70402354259531,-46.449704727839,-49.1764704703981,-0.0338402294870767,-0.252955791904,-0.857169379670908,-0.775767586036621,-26.884000821991,-99.228204555999,-95.5685824276029,-0.00854531331022134,-1.06512367122715,-1.90155437581509,-1.71528503950794,0.451633778854685,9.79364584273137,0.699152950880934,-33.8630571145383,-24.5902000573788,93.6463305947111,-1.4134950442729,11.284432572467,2.04297975176253,3.5485162255927,-13.2259785788856,-104.020058406755,-5.17324256896973,10.6578369140625,-2.76624774932861,-1.33000004291534,-37.7999992370605,-150.535003662109,186,0.282333076000214,0.0784139484167099
205.07,-12.755969188554,17.7200940100293,22.7881955239211,0.129619173128449,1.00365301373022,0.567944880192123,0.520400943239569,-5.9529019683679,6.70939633979555,3.81838027558338,-0.0522817746052235,-0.0106704783619488,0.0945278478619187,0.0534284620425594,-0.417193215358256,9.59294237436683,1.53657287947725,-10.4778196423704,-10.892981785322,-34.3054823203645,-0.233010169229371,9.88045084872467,-0.235501694871577,-10.8778238113264,-12.9955890217704,-21.8634024059331,-2.57848057140969,9.37133101534942,0.94449101273969,4.56767794481679,0.743838997149373,-2.2137203087613,827.958304870661,-0.184589454654356,-0.060895769812925,-8.44248770926391,-48.0011519449608,-48.4643111923143,-0.0392217197545885,-0.199093439568173,-0.797764959931873,-0.720826526259053,-28.4259157506983,-101.167514350708,-97.2366926135441,-0.00460714138943276,-0.948276258233122,-1.86591172397167,-1.70203633655806,0.375952543596209,9.69093559488057,0.804566099990977,-33.0989035486567,-23.3121615607298,96.0589202372104,-1.64864745382605,11.2114542384678,1.64024746413704,4.93667292169189,-14.7676333711881,-103.33599080411,-5.17324256896973,10.6578369140625,-2.76624774932861,-1.33000004291534,-37.7999992370605,-150.535003662109,186,0.282333076000214,0.0784139484167099
205.075,-12.4723852945514,14.6170521301425,22.9493418661865,0.13137603698087,1.09605200087608,0.620223270388594,0.576364916190514,-5.86428303261624,8.06697706557814,4.45432309712337,-0.0553188658566386,-0.0621070687041567,0.130172202845915,0.0884358408679927,-0.725338652093788,9.50103934937553,1.65280317578978,-9.56012422215954,-11.5136775968101,-34.1886847214286,-0.249228350110189,9.80206297446738,-0.238204725018377,-10.9512394449433,-13.8365317341091,-20.5953141889145,-2.77334228835307,9.33701958521656,0.968444107788389,4.85149609734205,0.885748081467659,-2.16641729408131,841.203152589996,-0.17981173678024,-0.0602941531652684,-9.18098708952111,-49.5526731426853,-47.7521179549879,-0.0446034666379158,-0.145228518811559,-0.73835770749913,-0.667916051204195,-29.9679042054619,-103.106916621206,-98.9048823431497,-0.000668781677317078,-0.831423273382098,-1.83026737251202,-1.69468499950251,0.300267699485734,9.58822044930205,0.909984275716303,-32.3347135441902,-22.0340621209452,98.4716249238012,-1.8838110765979,11.1384724245041,1.23749597226341,6.32489581190181,-16.3093616771423,-102.651890581771,-5.17324256896973,10.6578369140625,-2.76624774932861,-1.33000004291534,-37.7999992370605,-150.535003662109,186,0.282333076000214,0.0784139484167099
205.08,-12.2049751253602,12.6891947152217,22.588506289705,0.133062535385208,1.18871597631202,0.665545009025665,0.625931331885553,-5.7587989633037,8.4362678416167,5.01655803311326,-0.0575926451043238,-0.111917340162555,0.158738436583708,0.116688757808092,-0.949477378992432,9.44370997695094,1.80790951596972,-8.98382386777076,-11.8331765021525,-33.8385881128631,-0.315649654264069,9.79173724069806,-0.24278248271321,-10.8980901393106,-14.5748353028695,-19.5572820806758,-2.90276384353638,9.31423091888428,0.984353065490723,5.03999996185303,0.980000019073486,-2.13499999046326,850,-0.176638513803482,-0.0598945766687393,-10.0161042670463,-51.3151651079858,-47.4795932584754,-0.051047735483687,-0.106961935688306,-0.666285934041588,-0.604329922604624,-31.6569762213905,-104.195370522086,-100.272440340912,0.00242258729871101,-0.719936635096463,-1.7511476120495,-1.6494089769495,0.262057425090549,9.5821421139282,1.01895475798487,-31.3576881018874,-21.5183960780009,100.916834270337,-2.16335673361872,11.0677401382943,0.835513335528505,7.47592450314437,-17.9344870059391,-101.772715602223,-5.20967298118935,10.6822719844031,-2.71204638490247,-0.463256641928993,-38.5758483226024,-151.073877587794,182.475521896609,0.284763743565748,0.0768954528762708
205.085,-11.969518435682,13.0855657233476,21.1951448708775,0.134610091184044,1.2819172544841,0.697113001875709,0.662276051488071,-5.61994086254574,6.85078420424877,5.43307940720437,-0.0583569243348681,-0.158517843733831,0.173308279437574,0.131298105650747,-1.00748356931182,9.45475877510702,2.03993427724729,-9.08271743151341,-11.5569565482506,-33.0269788655959,-0.481381626605202,9.9160362199539,-0.251069081330259,-10.5945892023073,-15.1102245962349,-18.9741510668829,-2.90276384353638,9.31423091888428,0.984353065490723,5.03999996185303,0.980000019073486,-2.13499999046326,850,-0.176638513803482,-0.0598945766687393,-11.0424489957391,-53.4952052575426,-48.0766894907191,-0.0595945764231426,-0.0995432620100921,-0.569153640117149,-0.517530624291349,-33.6372177907814,-103.600812297641,-101.04554621785,0.00383905673000917,-0.619048740728894,-1.58602272637235,-1.52310846841426,0.297966019097792,9.76720948304246,1.13496713862364,-29.9595377179396,-22.5107418383151,103.426684715667,-2.53072927230821,11.0014473493579,0.434994402370771,8.15794908067986,-19.7248015219698,-100.507560010894,-5.31816752891302,10.7550428300694,-2.55062760973275,2.11801893397072,-40.8864287006176,-152.678714845599,171.979163648337,0.292002590510419,0.0723731739109073
205.09,-11.7340729731967,13.4819178314636,19.8018498911793,0.136157573191358,1.37511408857463,0.728679489481006,0.699113175149833,-5.48108938290644,5.2653761669017,5.84958092046322,-0.0591211671225728,-0.205116125270796,0.187877427563096,0.146286640758228,-1.06548699374382,9.46580704642741,2.27194797497531,-9.1816062797514,-11.280749765241,-32.2154083179876,-0.647105696410937,10.0403292723082,-0.259355284820538,-10.2911027370252,-15.6455883608336,-18.3910478583072,-2.90276384353638,9.31423091888428,0.984353065490723,5.03999996185303,0.980000019073486,-2.13499999046326,850,-0.176638513803482,-0.0598945766687393,-12.0687447856216,-55.6751414570637,-48.6737572518473,-0.0681410098267916,-0.0921249420737093,-0.472025977715403,-0.432354208337987,-35.6173649370572,-103.006282423294,-101.818615231071,0.00525545862032738,-0.518165656960904,-1.42090571428311,-1.40102919051027,0.333872900889032,9.95226802765887,1.25097398748764,-28.5614540014715,-23.503040280979,105.936415484742,-2.89808429371091,10.9351577214356,0.0344945670069127,8.83994113749356,-21.5150306711058,-99.242464745505,-5.42665690333191,10.8278102058308,-2.38921653143387,4.69917142787653,-43.1968989040964,-154.283475580551,161.483305893974,0.29924109228787,0.0678511105796735
205.095,-11.4986162835185,13.8782888395895,18.4084884723518,0.137705128990194,1.46831536674671,0.76024748233105,0.736395945057503,-5.34223128214847,3.67989252953377,6.26610229455433,-0.0598854463531171,-0.251716628842071,0.202447270416962,0.161680242671255,-1.12349318406321,9.47685584458349,2.50397273625288,-9.28049984349405,-11.0045298113392,-31.4037990707204,-0.81283766875207,10.164628251564,-0.267641883437587,-9.98760180002193,-16.180977654199,-17.8079168445144,-2.90276384353638,9.31423091888428,0.984353065490723,5.03999996185303,0.980000019073486,-2.13499999046326,850,-0.176638513803482,-0.0598945766687393,-13.0950895143144,-57.8551816066206,-49.270853484091,-0.0766878507662473,-0.0847062683954956,-0.374893683790964,-0.348488458114858,-37.5976065064482,-102.41172419885,-102.591721108009,0.00667192805162554,-0.417277762593335,-1.25578082860596,-1.28222433583406,0.369781494896275,10.1373353967731,1.36698636812642,-27.1633036175238,-24.4953860412932,108.446265930072,-3.2654568324004,10.8688649324992,-0.366024366150821,9.52196571502905,-23.3053451871364,-97.9773091541767,-5.53515145105557,10.9005810514971,-2.22779775626415,7.28044700377624,-45.5074792821116,-155.888312838356,150.986947645703,0.306479939232541,0.0633288316143101
205.1,-11.2977685829085,15.7760177634808,17.5235516533174,0.135916444823858,1.55181045988688,0.829794594325429,0.812040584187776,-5.2734376555073,3.22871160507202,6.21296689203458,-0.0609377489478838,-0.292484517111847,0.154441243849448,0.114923673611014,-1.03857665816326,9.5642005102041,2.60635931122448,-9.97487496850594,-9.42335789871504,-31.1964647896196,-0.93080497448981,10.1808635204082,-0.287222831632641,-9.71695735701686,-15.5655116213152,-17.5262114197531,-3.03430236639721,9.26977381167363,0.897730123282847,4.95292899431015,0.980000019073486,-2.12830220618114,863.395535714286,-0.174480047185468,-0.0593684386144563,-13.7134030014155,-56.553319025283,-50.1501778685737,-0.0850255214217863,-0.117164125315889,-0.320335509090741,-0.308152198461314,-38.7676066301307,-100.182992610639,-102.557441155622,0.0085812005735701,-0.341945896042039,-1.14318046128339,-1.21817135822033,0.512041709183669,10.4445151785714,1.46889132653059,-25.4849417359536,-24.2981845238095,109.394384133283,-3.70680204081633,10.3409696428572,-0.407281377551039,8.5631355505165,-24.9511909486017,-96.620296989166,-5.56602573394775,10.9212894439697,-2.18186283111572,8.01500034332275,-46.1650009155273,-156.345001220703,148,0.308539897203445,0.0620419271290302
205.105,-11.1106745048445,18.2710940025899,16.8408006021125,0.132800528184262,1.63145012296791,0.914453945882923,0.903107727087495,-5.23251018816111,3.22871160507202,5.97300453635771,-0.0621046936635778,-0.330934983517257,0.0815401433145019,0.0437151243749869,-0.896801658163264,9.6819005102041,2.65718431122448,-10.9061712648022,-7.32298752834467,-31.2294894809776,-1.02977997448981,10.1541135204082,-0.311297831632649,-9.45936476442428,-14.4922091521794,-17.3643904320988,-3.21817398550255,9.20762927708577,0.776643917591748,4.83121651471878,0.980000019073486,-2.11893968322143,882.120535714286,-0.171462826502072,-0.0586329745556399,-14.1694481330988,-53.8663136484672,-51.1418275837869,-0.09328054256831,-0.165486515494257,-0.282709133721014,-0.285304943666105,-39.6153811357459,-97.3040593716563,-102.20199124327,0.0106866310717527,-0.276774866799347,-1.05146616509146,-1.17609679301024,0.696616709183668,10.8002901785714,1.5651913265306,-23.6950034643487,-23.6277832892416,109.721328577727,-4.17760204081633,9.62941964285715,-0.305631377551041,6.95153061224489,-26.5396786029227,-95.2266550138574,-5.56602573394775,10.9212894439697,-2.18186283111572,8.01500034332275,-46.1650009155273,-156.345001220703,148,0.308539897203445,0.0620419271290302
205.11,-10.9235893479172,20.7660512699156,16.1580821062696,0.129684760119749,1.71108598862079,0.999109260660349,0.994398546606627,-5.19158467234398,3.22871160507202,5.73305362271573,-0.0632715827362851,-0.369383616503518,0.0086425188953551,-0.0270343448311886,-0.755033418367353,9.7995948979592,2.70800688775509,-11.837423154447,-5.22271730914588,-31.2625125976317,-1.12875025510206,10.1273647959184,-0.335371683673474,-9.20178445452255,-13.4189578609222,-17.2025771604938,-3.40203683712653,9.14548770571242,0.655563485608721,4.70950983869786,0.980000019073486,-2.10957760669139,900.844642857143,-0.168445749687677,-0.05789754556568,-14.6254715193534,-51.1794363951197,-52.133430014539,-0.10153517009376,-0.213806601534242,-0.245084552475612,-0.262599595552043,-40.4631152172478,-94.4252634077656,-101.846558279703,0.0127919611774836,-0.211606945082367,-0.959756242077874,-1.13394902776095,0.881182908163259,11.1560482142857,1.66148673469386,-21.9051505416982,-22.957414021164,110.048257432603,-4.64837959183673,8.91790357142858,-0.203986224489817,5.34000251952632,-28.1280905139834,-93.8330794910557,-5.56602573394775,10.9212894439697,-2.18186283111572,8.01500034332275,-46.1650009155273,-156.345001220703,148,0.308539897203445,0.0620419271290302
205.115,-10.7364952698532,23.2611275090247,15.4753310550647,0.126568843480154,1.79072565170182,1.08376861221784,1.08583000904771,-5.15065720499779,3.22871160507202,5.49309126703886,-0.0644385274519791,-0.407834082908928,-0.0642585816395906,-0.0973251734086732,-0.61325841836736,9.9172948979592,2.75883188775509,-12.7687194507433,-3.12234693877551,-31.2955372889897,-1.22772525510206,10.1006147959184,-0.359446683673483,-8.94419186192997,-12.3456553917864,-17.0407561728395,-3.58590845623187,9.08334317112456,0.534477279917622,4.58779735910649,0.980000019073486,-2.10021508373168,919.569642857143,-0.165428529004281,-0.0571620815068635,-15.0815166510368,-48.4924310183039,-53.1250797297522,-0.109790191240284,-0.262128991712611,-0.207458177105885,-0.239615307228281,-41.310889722863,-91.5463301687824,-101.491108367351,0.0148973916756662,-0.146435915839674,-0.868041945885943,-1.09055882021112,1.06575790816326,11.5118232142857,1.75778673469387,-20.1152122700932,-22.2870127865961,110.375201877047,-5.11917959183673,8.20635357142857,-0.102336224489819,3.72839758125471,-29.7165781683043,-92.439437515747,-5.56602573394775,10.9212894439697,-2.18186283111572,8.01500034332275,-46.1650009155273,-156.345001220703,148,0.308539897203445,0.0620419271290302
205.12,-10.4846729011494,23.1250114125654,16.3361470861082,0.121502187613906,1.84039435908307,1.23030963206395,1.23918203703015,-5.05542301339225,6.3240809554256,5.55229648031163,-0.0706371715255945,-0.443397315184555,-0.13941692871875,-0.169411817198069,-0.507538821919265,9.9523561614992,2.76269634679159,-12.4172952584456,0.0117450318666315,-32.4014655985318,-1.17337671737644,10.1080890403748,-0.365392693583206,-9.0314786545244,-10.9361972033271,-17.4165228817805,-3.45000008303799,9.07093640995784,0.574315851366118,4.58500003814697,1.04606051675337,-2.56242342053473,925.392693583197,-0.15988683340073,-0.0567835579808291,-15.55168236924,-46.8829905099854,-52.6663912986003,-0.11758884085868,-0.32363430010582,-0.192370921457298,-0.23849285081932,-42.1554494340012,-86.8371096129743,-99.1764000996369,0.0212948106655545,-0.10661206324807,-0.792451220687743,-1.06094461171613,1.22638811391271,11.2234018529241,1.37981510238459,-19.6979170525301,-20.8701703712802,107.762932191373,-5.7447670684845,8.33829907353793,-0.215942912038752,5.17601317167036,-22.6460488888109,-88.9620753959202,-5.68097461085072,11.5606121179172,-2.28389615298962,10.5724851825824,-48.7319231845582,-156.486557781543,138.293151550245,0.309408424050439,0.0618633318111699
205.125,-10.2313155205631,22.9269903514011,17.2333172657034,0.116389393675369,1.88936042934489,1.37831355908635,1.39393391235325,-4.95890661790734,9.49241938168434,5.61854244586354,-0.0769544879470352,-0.478894361525375,-0.214632045341634,-0.241102874272266,-0.40266226246251,9.98547507501186,2.76545625625097,-12.0356781480117,3.17030807983327,-33.5326877473181,-1.11541861872927,10.116368768753,-0.370912512501978,-9.12688293213289,-9.51876222171532,-17.8049545834722,-3.30656231042679,9.0596991153355,0.617942093328193,4.58500003814697,1.11367829982441,-3.0357479349327,930.912512501974,-0.154285479511897,-0.0564134129414594,-16.0222032189002,-45.2988209678492,-52.1735615391758,-0.125377135046018,-0.385452736123021,-0.177813158143619,-0.236854676782955,-42.9999747378365,-82.0846020393876,-96.8154876620976,0.0277935101411665,-0.0673825547090426,-0.717236110233737,-1.02833730279041,1.38646286255723,10.9198118123914,0.990667868610842,-19.3128926464672,-19.435698911524,105.081390531448,-6.37402642522505,8.49009409380429,-0.334619018792436,6.69566702214838,-15.3714727211639,-85.4355244200351,-5.79863324945724,12.2150059447525,-2.3883347701178,13.1902592100582,-51.3593571162346,-156.631451343645,128.357477496447,0.310297425223516,0.0616805263542825
205.13,-9.97797022072173,22.7289787324007,18.1304446658698,0.111276843528266,1.93832416477597,1.52631042889308,1.54851214691804,-4.86239482457747,12.6606067332518,5.68478525263394,-0.0832715031422494,-0.514389715273864,-0.28984357551036,-0.312356522835796,-0.297790703795353,10.0185924093278,2.76821603411063,-11.6540792340831,6.32872051922429,-34.6638559564635,-1.05746328367636,10.1246481023319,-0.376432068221297,-9.22228266061503,-8.10139482712344,-18.193367763721,-3.16313137730504,9.04846235653686,0.661566255076556,4.58500003814697,1.1812928587021,-3.50904987997561,936.432068221298,-0.148684392710319,-0.0560432855515767,-16.4927016328913,-43.7147269630743,-51.6807552791676,-0.133165057867049,-0.447268224474953,-0.163256088982301,-0.233848725419376,-43.844459772489,-77.3323210778346,-94.4546877990595,0.0342918997417319,-0.0281549167359381,-0.642024586233596,-0.991464158710744,1.54652997841762,10.6162362478286,0.601539190398501,-18.9278865993786,-18.0012958511318,102.399976734468,-7.003255777228,8.64188187608571,-0.453289466757891,8.21524841154255,-8.09724342440032,-81.9091415993558,-5.91628627779108,12.8693685683726,-2.49276840733862,15.8079084151982,-53.9866657649654,-156.776337996843,118.422277201663,0.311186384006683,0.0614977296140389
205.135,-9.73711649799102,22.3274118965757,19.005019698558,0.107224470685808,1.96587394473107,1.63538588009028,1.66390020212364,-4.75000561652883,14.5717907267671,6.12270771470666,-0.0895577653217658,-0.545744497835378,-0.345165465880176,-0.363315539753057,-0.290052442159401,9.99615218508999,2.72519897172235,-10.9260934970961,8.16678282395507,-35.6374838934907,-1.01237429305911,10.1147485861183,-0.38953213367609,-9.16980037449617,-6.94040940683612,-17.9831362467866,-3.07041525840759,9.04119873046875,0.689765632152557,4.58500003814697,1.22500002384186,-3.81500005722046,940,-0.145063757896423,-0.0558040291070938,-16.9343461458849,-42.211996620394,-50.7492820153112,-0.140398181380863,-0.494483724138692,-0.169767965749481,-0.25027414443553,-44.6070261004529,-72.0034241440486,-91.3759533523506,0.0404199561010102,0.00490396608006988,-0.575808830601391,-0.958563140704406,1.63379537275062,10.4104678663239,0.356672493573287,-18.4589495064902,-16.1538112920118,100.107683518995,-7.40523393316198,8.50455629820052,-0.506169665809741,9.84124408899044,-3.93168555016025,-77.6502408835571,-5.19558444552679,13.6017010780472,-2.66186796220225,19.3682980550653,-58.9378416266356,-149.256680415529,105.994755784062,0.282043544283869,0.0555287844325705
205.14,-9.51912910118202,21.5538125698609,19.8382524350532,0.105110584347477,1.9542765927805,1.67330062118471,1.70776097995056,-4.60860860849101,14.1849908063467,7.23997908249891,-0.0957869651842677,-0.569526338407515,-0.364122836427394,-0.377544679714546,-0.459869023136263,9.87215912596402,2.59851041131105,-9.56503173696403,7.59107699387478,-36.3230064426037,-0.990810282776337,10.0716205655527,-0.416487146529567,-8.84700577612746,-6.24823129899392,-16.6786467358533,-3.07041525840759,9.04119873046875,0.689765632152557,4.58500003814697,1.22500002384186,-3.81500005722046,940,-0.145063757896423,-0.0558040291070938,-17.3231879179888,-40.858196770391,-49.016077571452,-0.146616189936189,-0.515004959757557,-0.214791724815735,-0.303365369218418,-45.2197471541182,-65.6212266138954,-86.9852930046447,0.0458702393379521,0.0266822793447812,-0.526045724881722,-0.936502976068276,1.58797185089974,10.3835128534704,0.375541002570714,-17.8366547653051,-13.5514878288743,98.5269883207973,-7.39175642673524,7.83876748071979,-0.438782133676065,11.6615394014409,-5.44915294042971,-72.0529159922562,-2.94251775505917,14.4764590789359,-2.94915010606415,24.6514801630447,-68.1362387346302,-127.727712965625,89.0130976863753,0.198008320835685,0.0389839143152792
205.145,-9.30113130966619,20.780176354141,20.6715249041666,0.102996597208691,1.94267868781138,1.71121717023972,1.7511665608484,-4.46720485795127,13.7981724414114,8.35730372726259,-0.102016462085531,-0.593309313014299,-0.383081110954898,-0.391459914078708,-0.629693701799501,9.74816015424164,2.47181580976864,-8.20390507474054,7.01534371132059,-37.0085616807896,-0.96924524421593,10.0284904884319,-0.443443444730087,-8.52419578533118,-5.55602018470911,-15.3740950204704,-3.07041525840759,9.04119873046875,0.689765632152557,4.58500003814697,1.22500002384186,-3.81500005722046,940,-0.145063757896423,-0.0558040291070938,-17.7120482319731,-39.50433236458,-47.2827904799154,-0.15283449499662,-0.535527173929452,-0.259817630835356,-0.354468207778181,-45.8324974253245,-59.2387247493028,-82.5944232887471,0.0513207824710952,0.0484616311061434,-0.476280246213423,-0.90841948991424,1.54214614395887,10.3565565552699,0.394410411311072,-17.2143303500587,-10.9490402742074,96.9462177473103,-7.37827827763498,7.17294691516709,-0.37139138817478,13.4819215144879,-6.96669269097718,-66.4553241930877,-0.689343627335786,15.3512587925707,-3.23644594894583,29.934914199025,-77.3350744672545,-106.197718909099,72.0306298200514,0.113969090176425,0.0224382552575406
205.15,-9.08313351815035,20.0065401384211,21.50479737328,0.100882610069905,1.93108078284227,1.74913371929473,1.79403489693302,-4.32580110741152,13.4113540764762,9.47462837202626,-0.108245958986794,-0.617092287621083,-0.402039385482401,-0.405121464765012,-0.799518380462739,9.62416118251927,2.34512120822623,-6.84277841251706,6.4396104287664,-37.6941169189755,-0.947680205655523,9.98536041131108,-0.470399742930607,-8.20138579453491,-4.8638090704243,-14.0695433050875,-3.07041525840759,9.04119873046875,0.689765632152557,4.58500003814697,1.22500002384186,-3.81500005722046,940,-0.145063757896423,-0.0558040291070938,-18.1009085459574,-38.150467958769,-45.5495033883787,-0.159052800057051,-0.556049388101348,-0.304843536854978,-0.403500716532874,-46.4452476965309,-52.8562228847102,-78.2035535728495,0.0567713256042384,0.0702409828675055,-0.426514767545125,-0.874091253044895,1.49632043701801,10.3296002570694,0.41327982005143,-16.5920059348123,-8.34659271954044,95.3654471738234,-7.36480012853472,6.50712634961438,-0.304000642673495,15.302303627535,-8.48423244152466,-60.8577323939192,1.56383050038759,16.2260585062056,-3.52374179182751,35.2183482350053,-86.5339101998788,-84.6677248525742,55.0481619537275,0.0299298595171661,0.00589259619980207
205.155,-8.89732898801552,19.2728557890211,21.6735245830748,0.100265963844941,1.89933437621376,1.80754698222363,1.85679517920661,-4.19169973837836,13.7317523652758,10.5247872695193,-0.114313323773812,-0.634486792132955,-0.42422889585474,-0.421831482427091,-0.828072075480637,9.59756035848564,2.31117477358179,-6.54131462841372,7.07021234544547,-37.9264464477089,-0.917650452836435,9.98596396225971,-0.406565773605442,-7.60158830668105,-3.37761330106856,-12.9821466575233,-3.12700157592425,9.10504964679517,0.703912221046983,4.3615045512869,1.15236398870928,-3.88763607332251,943.831350942326,-0.144251958476206,-0.0558211429022978,-18.4557301707905,-37.4392205958881,-43.9861168518543,-0.163650980771415,-0.554537761861425,-0.350351064882105,-0.450927458112109,-46.8658486914879,-46.3451665230486,-73.0339893694697,0.0603401521955135,0.0884843645619189,-0.397563812868089,-0.854294357923818,1.2549081321384,10.2561441509612,0.483855849038769,-13.8792039140436,-6.01847195473591,91.9526062435172,-7.22111352834072,6.17102343398991,-0.356627018846484,16.3605560679032,-11.8568165144659,-53.4581298174904,2.99369932521658,15.6092893134372,-3.23721995647205,33.132954096179,-91.5923740910425,-64.942419309824,42.7740547187212,0,0
205.16,-8.72931927825727,18.5612175665055,21.4746529323571,0.100477566963711,1.85643992445857,1.87730288840442,1.93024061395166,-4.06162794911883,14.4433905877913,11.5378693778355,-0.120291450122339,-0.648348628252413,-0.448207495994185,-0.440227296821969,-0.778479982974314,9.62483600936413,2.328532005959,-6.82600997428337,8.3681782233888,-37.9080790060399,-0.88293598808201,10.0107600085129,-0.292503960840884,-6.84852319825165,-1.45209316610074,-12.0147947296221,-3.21489435113971,9.20422617006562,0.725885429630446,4.01435988009527,1.03954196761608,-4.00045806485652,949.782402043085,-0.142991029914452,-0.0558477249281471,-18.7917486444129,-37.0834017211038,-42.5165996575644,-0.167353286018438,-0.54083740316245,-0.396128385703047,-0.496578190374639,-47.180188218269,-39.7625145018573,-67.4332861725179,0.0628683202158642,0.104773079018268,-0.380124836322891,-0.839867328607987,0.905283879968794,10.1569599659486,0.583040034051415,-10.0097962024389,-3.84193011695829,87.5260528012859,-7.0053879259382,6.0172879472203,-0.47564804086167,16.9972940457621,-16.2558187941936,-45.0611477344749,3.96824024021788,14.1673723698824,-2.63325398242686,26.9711369806257,-94.3608528822227,-46.2139655819044,33.1035966799877,0,0
205.165,-8.56131757964291,17.8496132767681,21.2757907643616,0.100689159992689,1.81354751802342,1.94705546844053,2.0029888476073,-3.93156236202359,15.1549948775288,12.550903179738,-0.126269291418112,-0.662209803403145,-0.472184952771044,-0.458605086253525,-0.728890255149114,9.65211035966799,2.34588841069782,-7.11069174513175,9.66608221091261,-37.8897124401787,-0.848223178604372,10.0355548724255,-0.178447586842909,-6.09549399794301,0.473335155013615,-11.0474889275996,-3.30278293539699,9.30339796433916,0.747857590473655,3.66723176167263,0.926725326172946,-4.11327467674187,955.733169382109,-0.141730161477081,-0.0558743056864957,-19.1277510957926,-36.7275998126973,-41.047152533711,-0.171055414729829,-0.527137697732534,-0.441903523741192,-0.540275339633672,-47.4945127565165,-33.1801763587902,-61.8328500317933,0.0653963676865286,0.121061016785962,-0.362686691313863,-0.819608413056483,0.555676298801108,10.0577805102982,0.682219489701815,-6.14057299434899,-1.66549206240773,83.0997104287401,-6.78967260989857,5.86355979096217,-0.594663387642161,17.6340016622833,-20.6546113179477,-36.6645660416026,4.94273468655071,12.7255241807116,-2.02931680706439,20.8096136766839,-97.1291996650684,-27.4864048758104,23.4335997540732,0,0
205.17,-8.39330786988466,17.1379750542525,21.0769191136439,0.100900763111458,1.77065306626823,2.01681137462132,2.07502740165759,-3.80149057276406,15.8666331000444,13.5639852880542,-0.132247417766638,-0.676071639522603,-0.496163552910489,-0.477058521937917,-0.679298162642792,9.67938601054647,2.36324564307504,-7.3953870910014,10.9640480888559,-37.8713449985097,-0.813508713849947,10.0603509186786,-0.0643857740783509,-5.34242888951362,2.39885528998144,-10.0801369996984,-3.39067571061245,9.40257448760962,0.769830799057117,3.320087090481,0.813903305079747,-4.22609666827588,961.684220482868,-0.140469232915327,-0.0559008877123451,-19.463769569415,-36.371780937913,-39.5776353394211,-0.174757719976852,-0.513437339033559,-0.487680844562134,-0.582163372480684,-47.8088522832977,-26.597524337599,-56.2321468348415,0.0679245357068793,0.137349731242311,-0.345247714768665,-0.793977876763228,0.206052046631507,9.95859632528555,0.78140367471446,-2.27116528274432,0.511049775369891,78.6731569865088,-6.57394700749605,5.70982430419256,-0.713684409657347,18.2707396401423,-25.0536135976755,-28.2675839585871,5.91727560155201,11.2836072371567,-1.42535083301921,14.6477965611306,-99.8976784562486,-8.7579511478908,13.7631417153397,0,0
205.175,-8.25075322104074,15.6494089100391,20.3835884447645,0.10230337988202,1.74112773746127,2.03990716746308,2.09969119732352,-3.68040917343674,15.2623652219344,14.0979961127815,-0.137253983315813,-0.698411009005608,-0.51494190733961,-0.490480347730953,-0.664605594305047,9.67618321708492,2.36692960379666,-7.41519813718467,10.9460312641205,-37.5116705593684,-0.638804199324091,10.0761407924067,0.0275911411519564,-4.78214452797995,4.38957377357704,-9.87238596425816,-3.19066407717885,9.42131287046808,0.793456406492003,2.91096708675476,0.657162923404405,-4.35597106583586,963.38592075933,-0.13782201749794,-0.0563373788585856,-19.805921945024,-35.7927219083378,-38.466209682177,-0.175955112431083,-0.516079007045505,-0.525738904334215,-0.61469870605004,-48.0184164167796,-21.2822360199017,-50.2561127062172,0.069353765420324,0.164244863712931,-0.312818677940169,-0.748581318768722,0.151365499388795,9.91539440569499,0.819999999999993,-0.338988181633357,1.68970329357185,75.6295887939904,-6.25818508664702,5.59933846264469,-0.565029841087216,17.9404500975173,-27.7718397431971,-18.5938647115273,6.48292172765152,11.2861606788265,-1.81207667640362,8.66070682071393,-99.4812513770983,3.68289259145765,8.92536132882721,0,0
205.18,-8.12440436434927,13.6657610066439,19.3751934997035,0.104464877607229,1.7201173100635,2.0332785193082,2.09393130134792,-3.56504592327706,13.819712179493,14.3268416967169,-0.141641977349143,-0.726152992785989,-0.530408753034341,-0.500853780448289,-0.672145682030646,9.65356295390811,2.36190287864626,-7.26625813272825,10.0896262384961,-36.9345280420998,-0.374901128927885,10.0861942427075,0.105505380983217,-4.34463326488925,6.42198425105515,-10.1485455558544,-2.80721857250258,9.38880715297374,0.818136569167631,2.46233187547046,0.472430778958373,-4.4967193556656,962.380575729249,-0.13429141923557,-0.0570350491478909,-20.1520088191878,-35.0713957466566,-37.5828303643689,-0.175556767499715,-0.529132066287415,-0.55888214510864,-0.640893081116544,-48.161246559584,-16.7739453521575,-44.0404960820808,0.0700829946425161,0.197899236819534,-0.270837235880696,-0.689561451075356,0.284573715874505,9.90785431796937,0.819999999999993,0.359168089256068,2.23271372648585,73.4668558126129,-5.87866733779153,5.51639749766303,-0.245832794036575,16.9940604858672,-29.4194885424961,-8.10600606438833,6.78811315225991,12.208958099205,-2.82998305436152,2.78446509112865,-97.0357506652512,12.1189943891207,7.16600752618585,0,0
205.185,-7.9980615323029,11.6822076887867,18.36684663756,0.106626272266553,1.69910788449806,2.02665018722465,2.0875037583547,-3.44968817393991,12.377127926535,14.5556763686943,-0.146029762151401,-0.753893653755776,-0.545874861229278,-0.511581930983698,-0.679685410225074,9.63094376932482,2.35687639318331,-7.11732523012214,9.23326204851095,-36.3574130445011,-0.111010642122676,10.0962472136334,0.18341590565904,-3.9071428634838,8.45429781786773,-10.4246919794366,-2.42379135151431,9.35630298543732,0.842815555028332,2.01371805629047,0.287707443025809,-4.63746093424748,961.375278636658,-0.130760989321391,-0.0577326861704457,-20.4980791910212,-34.3501039796998,-36.699493168405,-0.17515844156248,-0.542184503125202,-0.592023805526361,-0.665888167841142,-48.3040698918722,-12.265869651544,-37.8251758348577,0.070812189093145,0.231552005197302,-0.228857795606559,-0.627263076028551,0.417775580642854,9.90031458977493,0.819999999999993,1.05729107022222,2.77569826723731,71.30422595602,-5.49916768533833,5.43346048752426,0.0733490328611462,16.0477160005575,-31.0670587775763,2.38135249412545,7.09329002454021,13.1317115181808,-3.84784089587187,-3.09149644382905,-94.5903665612961,20.5546939313099,5.40673761415115,0,0
205.19,-7.87171267561144,9.69855978539153,17.3584516924991,0.108787769991762,1.67809745710029,2.02002153906977,2.08045334040702,-3.33432492378023,10.9344748840936,14.7845219526297,-0.150417756184731,-0.781635637536157,-0.561341706924009,-0.522753994768253,-0.687225497950673,9.608323506148,2.35184966803291,-6.96838522566572,8.37685702288659,-35.7802705272325,0.15289242827353,10.1063006639342,0.261330145490301,-3.4696316003931,10.4867082953458,-10.7008515710329,-2.04034584683805,9.32379726794298,0.86749571770396,1.56508284500617,0.102975298579778,-4.77820922407721,960.369933606577,-0.127230391059021,-0.058430356459751,-20.8441660651851,-33.6287778180185,-35.8161138505968,-0.174760096631112,-0.555237562367112,-0.625167046300786,-0.689928749058675,-48.4469000346766,-7.75757898379971,-31.6095592107214,0.0715414183153371,0.265206378303905,-0.186876353547086,-0.562531605986797,0.550983797128564,9.89277450204932,0.819999999999993,1.75544734111165,3.31870870015131,69.1414929746425,-5.11964993648284,5.3505195225426,0.392546079911788,15.1013263889074,-32.7147075768753,12.8692111412644,7.39848144914859,14.0545089385593,-4.86574727382977,-8.96773817341433,-92.1448658494489,28.9907957289729,3.64738381150979,0,0
205.195,-7.79954584581813,7.6442322525934,15.8837806845343,0.108359947275254,1.67759527865458,1.98070148191127,2.04014614305442,-3.24052578892628,10.2832254987044,14.5186970863128,-0.1550436406483,-0.828285900516206,-0.586211078843854,-0.54385248280967,-0.693356165250745,9.54630135598801,2.31476026486714,-6.83278367606218,7.22890220320891,-34.4616097259873,0.459760328171885,10.0277739513566,0.249726016991017,-3.19469809333874,10.6586333705503,-11.1567310233817,-2.02585040344214,9.31786473965625,0.856481995191279,1.67604458483596,0.275804861666363,-4.9885787606102,956.308218224175,-0.124356205461628,-0.0595977168892977,-21.1438997964927,-32.6409477496723,-35.0661163154478,-0.173245957951283,-0.615536639553967,-0.619659810358394,-0.674610283655602,-48.4774501325626,-3.44985560339211,-25.712703557985,0.0708881931212412,0.313730035112698,-0.156676201012262,-0.508031777893611,0.657054809262771,9.88328766949849,0.836780826253748,2.04963640402069,3.21190589067222,67.8256805691739,-4.79037666333264,5.48445209728675,0.699623336667374,14.5624893808216,-31.1974880357908,22.2639960185213,7.37172288763525,13.4841569646201,-5.17278315321464,-12.4808566598747,-84.919469701304,40.6817497074813,2.49657521238748,0,0
205.2,-7.75892047782829,5.5485972633568,14.1375141545809,0.106424488096435,1.68903377132585,1.92234423421874,1.98030258129251,-3.15927505294661,10.0927133075272,13.9648355752498,-0.159808383293143,-0.88594882690706,-0.61655684764397,-0.571022798030806,-0.698666675107291,9.46133319828318,2.25899991137334,-6.70493806840446,5.91110901658319,-32.7111083288277,0.791667194206348,9.89766645987112,0.185999898712398,-3.01440300561631,9.74732365442604,-11.7172848415732,-2.22617110064206,9.32740371948681,0.824685058122938,2.11283404712592,0.656833951431106,-5.23950039691272,950.466657381968,-0.121863992276341,-0.0610386374646625,-21.4166675198261,-31.4978740961592,-34.3937223127604,-0.171082046033522,-0.703348755790039,-0.591648331465979,-0.636325980553275,-48.4426286779711,0.741414628305917,-20.0009981663502,0.0694299993172397,0.370914834669839,-0.133333299956931,-0.459726067875316,0.747333476824139,9.8726666497854,0.863333375536511,2.10864206909349,2.72674820007368,67.0028793506588,-4.49033285643748,5.74466708025778,0.999667143562528,14.2609048704495,-27.8374432191456,31.023059189327,7.1516879717034,12.0443916642946,-5.06594543960052,-14.6183369277817,-74.9104853173013,54.2686886892764,1.69999873390476,0,0
205.205,-7.71829704696262,3.45306219949639,12.3913308911987,0.10448912120539,1.70047171857978,1.86398976915293,1.92003475351931,-3.07802819121526,9.9022102004712,13.4110004737573,-0.164572898742552,-0.94360900377825,-0.646901169478189,-0.598847512217054,-0.703976931744791,9.3763690920831,2.20324221667954,-6.57709855676084,4.59337866579511,-30.9606904001689,1.12355823405037,9.76756517225226,0.122276819062344,-2.83411651483684,8.83605739194074,-12.2778119310875,-2.42648224602542,9.33694224447378,0.792889637216006,2.54960268214799,1.03784487272886,-5.4904100686131,944.625375080714,-0.119371897926319,-0.0624794893331527,-21.6894222368785,-30.3548549473978,-33.7213603715837,-0.168918237296759,-0.79115668491395,-0.563638188234392,-0.597822431585672,-48.407808883758,4.93248500923951,-14.2895651238185,0.0679718750437457,0.428096907505658,-0.109991511952384,-0.41162363730228,0.837607839661705,9.8620461365104,0.889884658724038,2.16764492062131,2.24161364306711,66.1801173654653,-4.19030335641849,6.00486965549549,1.29969664358152,13.9593347404184,-24.4775586182556,39.7817047050131,6.93166354761382,10.6046950157573,-4.95911282028897,-16.7557152750197,-64.9019781879421,67.8549798101626,0.903460238279123,0,0
205.21,-7.67767167897278,1.3574272102598,10.6450643612454,0.102553662026571,1.71191021125106,1.8056325214604,1.85941192912148,-2.99677745523558,9.71169800929396,12.8571389626944,-0.169337641387395,-1.0012719301691,-0.677246938278306,-0.627377223290361,-0.709287441601337,9.29140093437826,2.14748186318574,-6.44925294910313,3.27558547916939,-29.2101890030094,1.45546510008483,9.63745768076675,0.0585507007837246,-2.6538214271144,7.92474767581648,-12.8383657492791,-2.62680294322534,9.34648122430435,0.761092700147666,2.98639214443795,1.4188739624936,-5.74133170491562,938.783814238507,-0.116879684741031,-0.0639204099085175,-21.9621899602119,-29.2117812938846,-33.0489663688962,-0.166754325378998,-0.878968801150022,-0.535626709341977,-0.559327696492552,-48.3729874291665,9.12375524093753,-8.57785973218375,0.0665136812397442,0.485281707062799,-0.0866486108970522,-0.364541337491112,0.927886507223072,9.85142511679731,0.916437208006801,2.22665058569411,1.75645595246858,65.3573161469502,-3.89025954952334,6.26508463846652,1.59974045047667,13.6577502300464,-21.1175138016104,48.5407678758189,6.71162863168197,9.16492971543182,-4.85227510667485,-18.8931955429266,-54.8929938039394,81.4419187919576,0.106883759796412,0,0
205.215,-7.62607122482902,2.92785705751835,9.17627487391527,0.100291888810862,1.70690684524916,1.74624006324275,1.79747604000729,-2.93972593369132,7.83451529638841,11.86021971448,-0.170733144019194,-1.07087625756013,-0.685443672042478,-0.634495230532791,-0.684193144082788,9.2893843112426,2.21507448994094,-6.23514408503146,2.713545248374,-28.2251430210376,1.38738826508857,9.60592353313608,-0.0344588011835614,-2.43267494922898,5.07406753378182,-12.5920806950831,-2.65368175506592,9.3477611541748,0.756826221942902,3.04500007629395,1.47000002861023,-5.77500009536743,938,-0.116545282304287,-0.0641137510538101,-22.27569132491,-29.5633919423235,-32.4481532831886,-0.163574002461194,-1.0092421975488,-0.546305560822151,-0.559750693908843,-48.1529471432408,15.4093239780187,-3.43554457958971,0.0635072700921796,0.538600596730839,-0.0608291395136289,-0.316753384040553,1.03618919023685,9.75146473195252,0.915307844378697,2.00575290488677,2.12581687851629,63.8016137931893,-3.86173038905329,6.23900197692299,1.68457547840243,12.8439471908089,-15.1519356154487,58.9902977156992,6.23034483899121,8.89195519959535,-5.05876259931125,-16.1089844152305,-46.5129390945899,87.3706355582942,0,0,0
205.22,-7.5727669929196,5.06654580656379,7.75040831484727,0.0979794183724274,1.69935501894699,1.68668389544335,1.73516949636221,-2.8864217017819,5.69582638582596,10.7945797859995,-0.171606553469626,-1.14233511525581,-0.69020816546643,-0.638937396699801,-0.654385280322511,9.30022353442816,2.30178827542541,-6.00765421570491,2.2686018274853,-27.3586742540438,1.25731758686185,9.58966469835774,-0.1320118098536,-2.20518507990243,1.92266375575807,-12.2207369378,-2.65368175506592,9.3477611541748,0.756826221942902,3.04500007629395,1.47000002861023,-5.77500009536743,938,-0.116545282304287,-0.0641137510538101,-22.5955229186198,-30.1466704453826,-31.8584008290442,-0.160235979434504,-1.1461034837848,-0.562981287805983,-0.56659962843286,-47.9041892370221,22.019816522055,1.61880880522838,0.0602607482426305,0.591323278240139,-0.0346244234105586,-0.271010527516584,1.14729122788884,9.63765288850414,0.909888232785907,1.74146320375738,2.62763276673663,62.1322396050429,-3.87527941803522,6.16854702621686,1.73606178853383,11.9507149097767,-8.78221927430514,69.7023942095762,5.70854578370242,8.7997966937295,-5.31382109034395,-12.5618485864078,-38.384876897757,92.1127957019764,0,0,0
205.225,-7.51946530269585,7.20513257731679,6.32460974483893,0.0956670581986522,1.69180355273571,1.62713056743833,1.67272369629423,-2.83312001155815,3.55723945356365,9.72899067002751,-0.172479921273603,-1.21379056560563,-0.694972431706832,-0.644139739484567,-0.624578837879408,9.31106224077112,2.38849792616901,-5.78017519369236,1.82367962266663,-26.4922468025548,1.12725311074644,9.57340663884331,-0.229560166940162,-1.97770605788988,-1.22858975506284,-11.8494108871619,-2.65368175506592,9.3477611541748,0.756826221942902,3.04500007629395,1.47000002861023,-5.77500009536743,938,-0.116545282304287,-0.0641137510538101,-22.9153392619199,-30.7299211361919,-31.2686764958447,-0.156898115573512,-1.28295824411548,-0.579656219647389,-0.574061755176832,-47.6554431922332,28.6299938604579,6.67292118521217,0.0570143811957634,0.644043445793616,-0.00842095681712504,-0.228250415996608,1.25838796790409,9.52384647190315,0.904468879614421,1.47718610465455,3.12942472705843,60.4629450170391,-3.8888278009639,6.09809543498768,1.78754564366285,11.0575252204039,-2.41280665795374,80.4139799225789,5.18677160916203,8.70764258222307,-5.5688674195184,-9.01488189433072,-30.2572022682614,96.8547297270175,0,0,0
205.23,-7.46295757641368,8.76258411222098,5.12042605634603,0.0939967542930103,1.67663638029121,1.5877003272907,1.63031556010942,-2.78916664123535,1.75938552794295,8.63018107238258,-0.174068329672812,-1.28394305083625,-0.713208204672929,-0.663563025569078,-0.579896436424216,9.32717984413421,2.47579565709526,-5.60559313341177,1.52297469489979,-25.6383174308086,1.00659762428278,9.56765850040983,-0.304734780968243,-1.77239544658218,-3.68356361114281,-11.8156303000719,-2.6418739300906,9.3411121257979,0.755565189875236,3.06342834244862,1.47837651115107,-5.74652003418687,937.569209351947,-0.116358373529194,-0.0640326498590782,-23.2376515316963,-31.416937448448,-30.7926819391028,-0.153646118536972,-1.41891282081509,-0.605188925261985,-0.591163499641038,-47.3770894997746,34.8020516916931,11.7465532524555,0.0532065479311785,0.691939114787529,0.0241275282198849,-0.182554913862102,1.34952134372441,9.43287193765369,0.897128062346291,1.41290201439473,3.89067887661884,58.8979119112087,-3.91100909433911,6.04000000000002,1.82282015586577,10.275485761454,3.31107124437074,90.187679988615,4.6547093031841,8.67143070050564,-5.7787238748916,-5.38470010125518,-21.9266116336244,101.600972764906,0,0,0
205.235,-7.39139535873929,7.58800817089026,4.95826202801489,0.095344865540599,1.62567599210372,1.64286861624282,1.68246749253758,-2.78916664123535,1.56362286021268,7.37551853101042,-0.179017327527022,-1.3479519295729,-0.794761327471719,-0.747027676196878,-0.465302298955275,9.3681063218017,2.56583390796372,-5.67969868968209,1.90023934500328,-24.8433669180906,0.930201532636828,9.61131340992182,-0.274722030678756,-1.67134241530446,-2.86503405779326,-13.3684785473729,-2.57456708106712,9.30321139894491,0.74837706715411,3.16847296585978,1.52612405541962,-5.58417826658222,935.113620691898,-0.115292957948202,-0.0635703576180554,-23.571608200572,-32.5915133897787,-30.8513992657095,-0.150798619187919,-1.5505991642696,-0.672350320508048,-0.650826813922543,-46.9596418422552,38.9130677465542,16.910557790401,0.0467605990183927,0.717144392572004,0.086491684759947,-0.110747421335549,1.34679291187989,9.44924252872068,0.880757471279299,2.28869495213499,5.87131828966221,57.8233813452889,-3.97376302676258,6.04000000000002,1.7818936781983,10.0161163145078,5.99908187635816,95.5502275150862,4.07443264693619,8.89818299155879,-5.77611000025648,-1.36435561185636,-12.6444863737427,106.366180063769,0,0,0
205.24,-7.31982972862784,6.41337622002536,4.79609026690857,0.0966930410727353,1.5747131738753,1.69803953588919,1.73461994758796,-2.78916664123535,1.36785085755953,6.1207961611827,-0.18396656137369,-1.4119638605664,-0.876318339122868,-0.831181261102103,-0.350702697076554,9.40903475104411,2.65587645229701,-5.75380777966833,2.2775219849332,-24.0483784982382,0.853801798051025,9.65497040111372,-0.244707849234326,-1.57028456532323,-2.04646547294529,-14.9214008420845,-2.5072570225234,9.26530886479962,0.741188601668084,3.27352259831311,1.57387387652495,-5.42182875772691,932.657914937354,-0.114227491562977,-0.0631080433326741,-23.9055807941375,-33.7661453406436,-30.910119392246,-0.14795098405615,-1.68229178717399,-0.739514918338405,-0.711561002411577,-46.5421742787867,43.0242798347973,22.074808573377,0.0403143427311893,0.742350872267584,0.148858815128465,-0.0427936222387978,1.34406434993039,9.46561390041765,0.864386099582339,3.16452965197233,7.85205214929436,56.7487995404884,-4.03651995160093,6.04000000000002,1.74096524895591,9.75673449955598,8.6872206858589,100.91303075409,3.49412832025501,9.12494609527185,-5.77349600097902,2.65618058726013,-3.36191849666309,111.131614591057,0,0,0
205.245,-7.24826751095346,5.23880027869464,4.63392623857744,0.098041152320324,1.5237527856878,1.75320782484131,1.78679313497022,-2.78916664123535,1.17208818982926,4.86613361981054,-0.1889155592279,-1.47597273930305,-0.957871461921658,-0.915964730496455,-0.236108559607612,9.44996122871159,2.74591470316547,-5.82791333593865,2.65478663503669,-23.2534279855201,0.777405706405074,9.6986253106257,-0.214695098944839,-1.4692315340455,-1.22793591959573,-16.4742490893855,-2.43995017349992,9.22740813794664,0.734000478946958,3.37856722172426,1.6216214207935,-5.25948699012226,930.202326277306,-0.113162075981985,-0.0626457510916513,-24.2395374630133,-34.9407212819743,-30.9688367188527,-0.145103484707098,-1.8139781306285,-0.806676313584468,-0.773478833509049,-46.1247266212672,47.1352958896584,27.2388131113224,0.0338683938184036,0.767556150052059,0.211222971668527,0.0212912196668664,1.34133591808588,9.48198449148464,0.848015508515347,4.04032258971259,9.83269156233773,55.6742689745687,-4.0992738840244,6.04000000000002,1.70003877128843,9.49736505260981,11.3752313178463,106.275578280561,2.9138516640071,9.351698386325,-5.7708821263439,6.67652507665895,5.92020676321854,115.896821889921,0,0,0
205.25,-7.19830779083456,3.88005798983638,4.51266374054698,0.0987407612295112,1.47241697373605,1.7802197933197,1.81084827839105,-2.79215080450399,0.880328099652581,3.78960306921708,-0.190388887300716,-1.5318273858118,-1.03380844043071,-0.995703769055288,-0.184095709402585,9.4740957094026,2.68214631906537,-5.78160915196441,2.93726384582292,-22.6096904856832,0.712695270649467,9.71590429059744,-0.186347635324722,-1.28997134814864,-1.07829658476733,-17.4621073124891,-2.40699481964111,9.2088508605957,0.730480968952179,3.4300000667572,1.64499998092651,-5.17999982833862,929,-0.112640418112278,-0.0624193996191025,-24.5850757208883,-36.1035547495363,-31.442862951433,-0.142204262163669,-1.9261929408563,-0.921174588476989,-0.884024352679731,-45.6517732661401,51.1072573432399,32.1935286255647,0.0299900014188773,0.777685942452527,0.268162816147903,0.0762181073554806,1.32225192592212,9.38760726493547,0.827712871792234,4.60734492634223,11.5643047942251,54.9711730505057,-4.22147084332432,6.19427172083059,1.65815621651957,9.18159693288514,13.6116285324319,112.683445226088,2.62973165512085,9.46272277832031,-5.76960229873657,8.64500045776367,10.4650001525879,118.230003356934,0,0,0
205.255,-7.16907531329974,2.34477783530885,4.43064808254132,0.0988182175210212,1.42072582589122,1.7802197933197,1.80793493257728,-2.79799730001095,0.496508053049364,2.88404933213879,-0.18852798044795,-1.57985472372914,-1.10435093962871,-1.07054890314735,-0.192119917351151,9.48211991735117,2.47084217641958,-5.61980413571743,3.12878815076831,-22.1110668641875,0.65920055099231,9.70788008264886,-0.159600275496151,-1.03570632261769,-1.57031591988566,-17.9078966429654,-2.40699481964111,9.2088508605957,0.730480968952179,3.4300000667572,1.64499998092651,-5.17999982833862,929,-0.112640418112278,-0.0624193996191025,-24.941691540197,-37.2550154074827,-32.3152372613959,-0.139255694091717,-2.01971885740117,-1.08107089979841,-1.04134741572173,-45.1256192804374,54.9454571556226,36.9470170834823,0.0285749450311734,0.773353364363891,0.319893974520813,0.122469922646721,1.28748035814497,9.18700206622112,0.803640247946518,4.87812066781675,13.0568735155236,54.6244480156908,-4.40067815417581,6.49651688689354,1.61536044079383,8.81175689574921,15.4145987134695,120.093454541561,2.62973165512085,9.46272277832031,-5.76960229873657,8.64500045776367,10.4650001525879,118.230003356934,0,0,0
205.26,-7.13984144181721,0.809424471103454,4.34862851362735,0.0988956775060266,1.36903221315928,1.7802197933197,1.80506183443074,-2.80384407430746,0.1126697040263,1.97845241382274,-0.186666984858029,-1.62788435182521,-1.17489680263861,-1.14581958262092,-0.200144507933257,9.49014450793328,2.25952795775726,-5.45799140381473,3.32032158853068,-21.6124194658751,0.605703280444892,9.69985549206674,-0.132851640222449,-0.781429172484882,-2.06235871689591,-18.3537072308606,-2.40699481964111,9.2088508605957,0.730480968952179,3.4300000667572,1.64499998092651,-5.17999982833862,929,-0.112640418112278,-0.0624193996191025,-25.2983243646948,-38.4065309727133,-33.187653170439,-0.136306985417597,-2.11324923371984,-1.24097483575916,-1.20013034285075,-44.5994402051355,58.7838399921727,41.7007322110131,0.0271598211666497,0.76902057967671,0.371627599688744,0.165648554601165,1.25270713228915,8.98638730166829,0.779566476200186,5.14890932120493,14.5495134098097,54.2777064473279,-4.57989401050967,6.79877646548647,1.57256262435589,8.44189922282876,17.2176548689567,127.503817202574,2.62973165512085,9.46272277832031,-5.76960229873657,8.64500045776367,10.4650001525879,118.230003356934,0,0,0
205.265,-7.11060896428239,-0.725855683424079,4.26661285562169,0.0989731337975366,1.31734106531445,1.7802197933197,1.80221891810288,-2.80969056981443,-0.271150342576918,1.07289867674444,-0.184806078005263,-1.67591168974255,-1.24543930183661,-1.22142529548837,-0.208168715881824,9.49816871588184,2.04822381511148,-5.29618638756776,3.51184589347607,-21.1137958443793,0.552208560787735,9.69183128411816,-0.106104280393878,-0.52716414695393,-2.55437805201424,-18.7994965613369,-2.40699481964111,9.2088508605957,0.730480968952179,3.4300000667572,1.64499998092651,-5.17999982833862,929,-0.112640418112278,-0.0624193996191025,-25.6549401840036,-39.5579916306597,-34.0600274804019,-0.133358417345645,-2.20677515026471,-1.40087114708058,-1.36041319190533,-44.0732862194329,62.6220398045554,46.4542206689308,0.0257447647789458,0.764688001588073,0.423358758061654,0.206247390247908,1.21793556451199,8.78578210295394,0.75549385235447,5.41968506267945,16.0420821311082,53.930981412513,-4.75910132136117,7.10102163154943,1.52976684863016,8.07205918569283,19.0206250499943,134.913826518047,2.62973165512085,9.46272277832031,-5.76960229873657,8.64500045776367,10.4650001525879,118.230003356934,0,0,0
205.27,-7.10393753051758,-1.07623720169067,3.65846748253485,0.0965597059363141,1.29416908101304,1.7802197933197,1.79939109777655,-2.81102485656739,-0.358745723962784,0.585128798677673,-0.183666213185209,-1.71220760905734,-1.2615385055542,-1.24283877143498,-0.332720485241,9.46047984373594,1.98751995065346,-4.89204793074983,2.4410820130864,-20.3991087351664,0.490079802613843,9.66503990130691,-0.100000000000023,-0.2868140939085,-3.05955710905787,-18.8370367831968,-2.41695810061342,9.24671140763647,0.750905786689233,3.29895952481469,1.54307957594609,-4.69223794335151,923.383977794055,-0.112463767843332,-0.0620973973655173,-25.7363270187378,-39.8207778930664,-35.0702483773553,-0.129963346443645,-2.26582009628025,-1.43736267089844,-1.39883447062654,-43.9532073974609,63.4979934692383,50.1726320660475,0.0220263971441823,0.74123942476126,0.435164839029312,0.204929827952186,1.05607939139262,8.7129598930825,0.764560057570966,5.23239407682823,17.0888916811316,53.9725436870962,-4.82912011514194,7.28440045234334,1.49503990130689,8.04671628291573,18.6565895262024,140.862535353204,2.363212798104,9.39746305983192,-5.72177837154098,9.18372242126284,17.6649489705539,119.68600911403,0,0,0
205.275,-7.10393753051758,-1.07623720169067,2.89475321665353,0.0934097533480407,1.27943058946267,1.7802197933197,1.79656019068288,-2.81102485656739,-0.358745723962784,0.220905208429581,-0.182739577814344,-1.74503401581639,-1.2615385055542,-1.24831496624877,-0.491727900073244,9.40927406607811,1.9713497050773,-4.41625675433197,0.997072428713317,-19.6205413555735,0.425398820309203,9.63269941015459,-0.100000000000023,-0.0505821112115319,-3.56862039571474,-18.7538565075993,-2.42986740053626,9.29576685015093,0.777369970402412,3.12917191542272,1.41102256783726,-4.06025090196082,916.107367284784,-0.112234884274795,-0.0616801830283007,-25.7363270187378,-39.8207778930664,-36.1212165047634,-0.126436291751787,-2.31466812709557,-1.43736267089844,-1.40232064101638,-43.9532073974609,63.4979934692383,53.5849169554562,0.0176269888147216,0.712138544636517,0.435164839029312,0.190465386733321,0.856646362619995,8.67792436100082,0.783425344076484,4.90965460750982,18.0038747127044,54.1289226052196,-4.86685068815298,7.43262770345813,1.46269941015457,8.12324213646546,17.6517717969843,146.379051230832,2.0178876115627,9.3129068497653,-5.65981350059411,9.88173780607099,26.9938335998869,121.572537764582,0,0,0
205.28,-7.10393753051758,-1.07623720169067,2.13107536667275,0.0902599509577736,1.26469280068227,1.7802197933197,1.79370685201072,-2.81102485656739,-0.358745723962784,-0.143301014681842,-0.181812986627885,-1.77785885732621,-1.2615385055542,-1.25386378982207,-0.65072773301464,9.35807073004614,1.95518023054088,-3.9404882648861,-0.446868301493054,-18.8420111001166,0.360720922163551,9.60036046108176,-0.100000000000023,0.185638607324522,-4.07765940889808,-18.6706801982556,-2.4427760849098,9.34481995357315,0.803832892233857,2.95939240194956,1.27897185655316,-3.42829399537089,908.831103743398,-0.112006011620027,-0.0612629885849586,-25.7363270187378,-39.8207778930664,-37.172134519253,-0.122909405239153,-2.36351382870858,-1.43736267089844,-1.40735075641839,-43.9532073974609,63.4979934692383,56.9970391381659,0.0132277902605962,0.683039052118113,0.435164839029312,0.175349715803493,0.657222843337589,8.64289049950526,0.80228973103563,4.58693052725633,18.9188141154849,54.2852940667857,-4.90457946207127,7.58084788670858,1.43036046108175,8.19976434106165,16.6470019801126,151.895304066505,1.67257889103258,9.22835467156068,-5.59785158429491,10.5797199076737,36.3222734035176,123.458976460497,0,0,0
205.285,-7.10393753051758,-1.06596572453686,1.38177097658815,0.0872241677434098,1.25175773429078,1.77619248661911,1.78678512993173,-2.81133777479203,-0.348474247235616,-0.486310710941283,-0.18100498144475,-1.8098328185104,-1.26506239891722,-1.26292118408124,-0.797279994648304,9.31400842893936,1.94171789811687,-3.49700845330284,-1.80264587429187,-18.1036880945567,0.290551560357238,9.57314947988092,-0.100572632705645,0.40776088438617,-4.60080060883931,-18.5793372058884,-2.46528388069725,9.38644902814681,0.826653906556361,2.80200416828775,1.16201472217017,-2.83399793186782,902.572632705623,-0.111694361587264,-0.0609056888993067,-25.7601073839373,-39.7694204761523,-38.1786732193093,-0.119519592594409,-2.40942955811157,-1.44592069763721,-1.42244152508625,-43.9087756308663,63.693151555213,60.3080690813653,0.00876365415641454,0.653206631655816,0.440576532834883,0.165696571687911,0.48603371575746,8.6171579088203,0.817709469177503,4.2984431734139,19.6879946251678,54.2670250163421,-4.9450105361742,7.71341472388537,1.39842526005952,8.29299029548775,15.6869135472117,157.437625146749,1.31277221898417,9.19409662390822,-5.52181713042875,11.6844447717087,45.7919990301459,125.555187211434,0,0,0
205.29,-7.10393753051758,-0.89820626395072,0.853443208642395,0.0859390428767096,1.26647448523542,1.71041628037439,1.71805720258993,-2.81644852875539,-0.180714793617671,-0.504039853962353,-0.182015924266778,-1.8287350461959,-1.32261657938134,-1.32590828746328,-0.752855358954645,9.37947631311948,1.96977556276549,-3.54896709154104,-1.80553246530511,-17.9824512720009,0.136234404789783,9.62458853173674,-0.109925187588512,0.413534066412641,-5.33976790822702,-18.3628428798959,-2.63496052206192,9.31421057231169,0.793614565699466,2.83473813490587,1.27658352171522,-2.81763097643154,911.925187588498,-0.110113701143351,-0.06146705376902,-26.1485014949953,-38.9306226645433,-38.5039451894107,-0.118234219298314,-2.41038328704707,-1.58569513590722,-1.57017844734081,-43.1830913806674,66.8805816338549,62.0664393349821,0.0033072856928857,0.612159216692819,0.528963316944411,0.239757618196725,0.747905252477966,8.73406484485624,0.780299249646008,4.53514363649903,18.2216063904453,51.5709490099823,-5.02684539139936,7.60586034273229,1.37270573413162,8.64226780808897,15.4126874009545,163.375342860969,0.730943846920018,9.93104192544478,-5.23006298406693,19.0250316154195,57.4207321003501,130.866270243153,0,0,0
205.295,-7.10393753051758,-0.73043880377178,0.325090247440815,0.0846538567289609,1.28119193794684,1.64463693759798,1.6492565319793,-2.82155952642454,-0.0129473404072597,-0.521769842395803,-0.18302691529551,-1.8476381752322,-1.3801735043107,-1.38871620991245,-0.708428604876756,9.444947319129,1.997834565341,-3.60092820742161,-1.80841919396514,-17.8612086682796,-0.0180901093755233,9.67603003645851,-0.119278188447007,0.41930752373271,-6.07877044519516,-18.1463382303935,-2.80464525443996,9.24196867179316,0.760573649364965,2.86747366243985,1.39115778446182,-2.80126324053867,921.278188447001,-0.108532965325805,-0.06202844540736,-26.536914126587,-38.091784854946,-38.829232670073,-0.116948784709324,-2.41133706146102,-1.72547623930709,-1.71924550938829,-42.4573725262888,70.0681637047756,63.8248934363055,-0.00214934295701783,0.571109844388019,0.617354315768741,0.315211773890373,1.00978927651604,8.85097735558753,0.742887246212003,4.77185538662164,16.7551482311492,48.8747444415126,-5.10868414891127,7.49830083285949,1.34698498177074,8.99156197595282,15.1384481782515,169.313343714655,0.149087730429183,10.668022368143,-4.93829492543834,26.3659684942666,69.0500196855068,136.177606533326,0,0,0
205.3,-7.10393753051758,-0.562679343185639,-0.203237520504937,0.0833687318622606,1.29590868889148,1.57886073135327,1.58038227829588,-2.8266702803879,0.154812113210685,-0.539498985416873,-0.184037858117538,-1.8665404029177,-1.43772768477483,-1.45126310535934,-0.664003969183097,9.51041520330912,2.02589222998963,-3.65288684565981,-1.81130578497838,-17.7399718457238,-0.172407264942977,9.72746908831434,-0.128630743329874,0.425080705759181,-6.81773774458287,-17.929843904401,-2.97432189580462,9.16973021595803,0.727534308508069,2.90020762905797,1.50572658400687,-2.7848962851024,930.630743329877,-0.106952304881892,-0.0625898102770732,-26.925308237645,-37.2529870433369,-39.1545046401744,-0.115663411413229,-2.41229079039651,-1.8652506775771,-1.86948917882447,-41.7316882760899,73.2555937834176,65.5832636899223,-0.00760571142054667,0.530062429425023,0.705741099878268,0.392640087575342,1.27166081323655,8.96788429162348,0.705477026680508,5.00855584970677,15.2887599964267,46.1786684351527,-5.19051900413644,7.39074645170642,1.32126545584285,9.34083948855404,14.8642220319944,175.251061428876,-0.432740641634966,11.4049676696796,-4.64654077907651,33.7065553379774,80.678752755711,141.488689565046,0,0,0
205.305,-7.10393753051758,-0.394911883006699,-0.731590481706516,0.0820835457145119,1.31062614160289,1.51308138857686,1.51142721633898,-2.83178127805705,0.322579566421096,-0.557228973850323,-0.185048849146271,-1.885443531954,-1.49528460970418,-1.51348406596371,-0.619577215105208,9.57588620931864,2.05395123256514,-3.70484796154038,-1.81419251363841,-17.6187292420025,-0.326731779108284,9.77891059303611,-0.137983744188368,0.430854163079249,-7.55674028155102,-17.7133392548986,-3.14400662818266,9.0974883154395,0.694493392173569,2.93294315659195,1.62030084675346,-2.76852854920952,939.98374418838,-0.105371569064346,-0.0631512019154132,-27.3137208692367,-36.4141492337396,-39.4797921208367,-0.11437797682424,-2.41324456481047,-2.00503178097697,-2.02074959800457,-41.0059694217113,76.4431758543383,67.3417177912457,-0.0130623400704502,0.489013057120223,0.794132098702598,0.472562131468253,1.53354483727462,9.08479680235476,0.668065023246503,5.24526759982938,13.8223018371305,43.482463866683,-5.27235776164835,7.28318694183362,1.29554470348197,9.69013365641788,14.5899828092913,181.189062282561,-1.0145967581258,12.1419481123778,-4.35477272044792,41.0474922168246,92.3080403408677,146.800025855219,0,0,0
205.31,-7.10393753051758,0.0731353828831579,-0.823228440605864,0.083873134071441,1.32179428728793,1.45833135285718,1.45342965829654,-2.83288307189942,0.0708249920451469,-0.509865517669387,-0.185076228139891,-1.89751762020917,-1.54120649974583,-1.56367775159295,-0.656148122850249,9.60404508086745,2.07805796111531,-3.72100355586154,-2.02536717349818,-17.9071825873312,-0.436244724709109,9.80605152099141,-0.25436708706363,0.583201046369552,-7.54265332262389,-17.5948311560571,-3.07438537250529,9.10642269560165,0.679681906618884,3.03831562520621,1.63797744719,-2.67370704673631,942.401288024785,-0.105205252411828,-0.0628083397308332,-27.6737372556811,-34.2178733190475,-38.9065719924794,-0.110756854926583,-2.3834792985319,-2.09866535188722,-2.12666892984506,-40.1610056819929,77.9940947658118,69.0588513415803,-0.0169693751692983,0.441862446376807,0.784964371513582,0.457834266830441,1.77258605127703,9.0919420388847,0.641942038884706,6.27969966567614,11.5591827933285,40.6669024792851,-5.20974239504307,7.41650232966604,1.28598711975217,10.2484639804507,9.77981215100563,183.861258456352,-1.14964024731773,12.4017359184986,-4.15972507421926,42.8476996378659,95.1239944041856,150.339693122268,0,0,0
205.315,-7.10393753051758,0.623737849313133,-0.794848351635941,0.0865078801866682,1.33198764580456,1.40660920450333,1.3984012070432,-2.83288307189942,-0.296243311284742,-0.444609366864875,-0.184833279921855,-1.90771559786962,-1.58393349186423,-1.61022837116447,-0.714982070109527,9.62195106481594,2.10107994047763,-3.72731959958235,-2.29379903163234,-18.3082513636023,-0.53344863757228,9.82651550264681,-0.400172956358386,0.775840379854064,-7.32159179239575,-17.5032485221054,-2.93899074337783,9.13766752557157,0.669879566661159,3.16365751528506,1.629024463754,-2.55731810959976,942.91288756617,-0.105427654466207,-0.0622169380693166,-28.0259713072974,-31.6483953405833,-38.0863776318724,-0.106493589354497,-2.34526962202614,-2.1796217580063,-2.22048750833657,-39.2832181677845,79.0952991955256,70.7647330331022,-0.0204507686019324,0.393032148728119,0.748983746571769,0.41952116416357,2.00536384260726,9.06892005952236,0.618920059522368,7.5334343442557,9.07697761105254,37.8183667612025,-5.10742248676604,7.61602615080624,1.2808711243383,10.8642782432291,3.72272622275469,185.636066741898,-1.16189316845317,12.5303913159773,-3.99124751533491,43.1252421548756,95.5179262852438,153.392662760973,0,0,0
205.32,-7.10393753051758,1.17431406157248,-0.766469615903144,0.0891425006702859,1.3421805182751,1.35488952239725,1.34333662120369,-2.83288307189942,-0.663294111834576,-0.379356327644895,-0.184590343288227,-1.91791308926372,-1.62665844664752,-1.65628121855585,-0.773813212011793,9.63985619496013,2.12410082209156,-3.73363534213762,-2.56221809023101,-18.7093010158615,-0.630647915497778,9.84697850852585,-0.545971873246633,0.968470527789583,-7.10054080296154,-17.4116702550541,-2.80360257022161,9.16891086570599,0.660077694104729,3.28899342873363,1.62007190721974,-2.44093472219318,943.424462713146,-0.105650045915871,-0.0616255646073833,-28.3781885634696,-29.0790398815727,-37.2662223802852,-0.102230527066102,-2.30706176745804,-2.26057430391147,-2.31462760375613,-38.4054725087885,80.1964511169221,72.470533383708,-0.0239319960325908,0.344204179436176,0.713004837280583,0.384652143036842,2.23813053448149,9.04589917790841,0.595899177908426,8.78710924147543,6.59489078683414,34.9699668687788,-5.00510745737077,7.81554045812701,1.27575537286853,11.4800631423673,-2.33407088774265,187.410790399927,-1.17414550533718,12.6590405788291,-3.82277798990272,43.4027714379297,95.9118393825961,156.445486826072,0,0,0
205.325,-7.10393753051758,1.72491652800245,-0.738089526933221,0.0917772467855131,1.35237387679172,1.30316737404339,1.28825798638236,-2.83288307189942,-1.03036241516447,-0.314100176840383,-0.184347395070191,-1.92811106692416,-1.66938543876592,-1.70180182735398,-0.832647159271071,9.65776217890862,2.14712280145388,-3.73995138585843,-2.83064994836517,-19.1103697921325,-0.727851828360949,9.86744249018126,-0.691777742541389,1.16110986127409,-6.8794792727334,-17.3200876211024,-2.66820794109415,9.2001556956759,0.650275354147004,3.41433531881248,1.61111892378374,-2.32454578505662,943.936062254531,-0.10587244797025,-0.0610341629458667,-28.7304226150859,-26.5095619031086,-36.4460280196782,-0.0979672614940152,-2.26885209095228,-2.34153071003055,-2.40883134824307,-37.52768499458,81.2976555466358,74.1764150752299,-0.0274133894652248,0.295373881787488,0.67702421233877,0.353335360882007,2.47090832581172,9.02287719854608,0.572877198546087,10.040843920055,4.11268560455821,32.1214311506963,-4.90278754909374,8.01506427926721,1.27063937745467,12.0958774051457,-8.39115681599358,189.185598685473,-1.18639842647262,12.7876959763079,-3.65430043101837,43.6803139549395,96.3057712636543,159.498456464777,0,0,0
205.33,-7.10393753051758,1.28170649212595,-0.483051205794468,0.09253681800888,1.34346200298337,1.30506821186572,1.28682398997978,-2.82248397799753,-0.0521927816793251,-0.180267525358871,-0.182272317106537,-1.92633103759769,-1.73118818850123,-1.76583499776854,-0.847136282910496,9.70043893649293,2.09766725865621,-3.14751886916713,-2.61457446609312,-19.5334600533479,-0.687667258656229,9.88189380485086,-0.74568141455256,1.30265486272449,-7.5831005945342,-17.1852988138924,-2.6467290700291,9.25818370947862,0.664432685414713,3.29678946603898,1.56004602485726,-2.22674333150917,945.903008776137,-0.10678266617337,-0.0604802575299214,-29.0863981423666,-23.2869793767327,-34.3680553642659,-0.0928212645929578,-2.212551712799,-2.39138147859119,-2.47171625096232,-35.8634086871076,86.0434795093861,76.5641050394862,-0.0289128466217646,0.248521841044676,0.601426062394341,0.285968660854328,2.64034689724011,9.06757521940342,0.672286721717369,10.5734338323234,3.12408174801283,29.2545177413622,-4.59979116163907,7.91868319052126,1.12965310275987,12.757251151931,-13.5150834106729,190.872841634711,-1.18792974948883,12.8037748336792,-3.63324475288391,43.7150001525879,96.3550033569336,159.880004882812,0,0,0
205.335,-7.10393753051758,0.696522299378542,-0.195624532348595,0.0930285922938087,1.33182077082093,1.31462832748673,1.29310948195804,-2.81059897541931,1.11817558761103,-0.0366325392219968,-0.179935436028919,-1.92284004716266,-1.79571896894301,-1.83201421642993,-0.855292257035808,9.74665612320297,2.03785678173733,-2.46953254270161,-2.32928319010516,-19.9597187833534,-0.627856781737333,9.89548709505971,-0.786461285179085,1.43690958083648,-8.4188362147813,-17.0443313598748,-2.64152004762946,9.32004042915816,0.682013038786679,3.14454463125627,1.50295419560928,-2.13159032597445,948.077935209551,-0.107791177365267,-0.0599316776591655,-29.4429274779985,-19.970935836591,-32.1103162301975,-0.0875489033970701,-2.15366430307099,-2.43679202779096,-2.52967479667663,-34.0867045102372,91.3101369119213,79.0493103810069,-0.0301292980277602,0.201949808983583,0.520165071513574,0.216431002907648,2.8007477217044,9.12194838023879,0.789189017513381,11.0030489302817,2.34876075091613,26.3848231417185,-4.26811488054342,7.7800316303911,0.969252278295583,13.4251683745381,-18.5060025564859,192.547669243158,-1.18792974948883,12.8037748336792,-3.63324475288391,43.7150001525879,96.3550033569336,159.880004882812,0,0,0
205.34,-7.10393753051758,0.11136600974923,0.0917884358391504,0.0935203431296487,1.32018009374299,1.32418798725633,1.29949748609324,-2.7987145395492,2.28848815066596,0.106995598021775,-0.177598666379924,-1.91934922318721,-1.86024667238781,-1.89760012928873,-0.863447842262867,9.79287110615625,1.97804915673896,-1.79157854440348,-2.04400551755397,-20.385957188224,-0.568049156738946,9.9090797371048,-0.827239211314353,1.57115789733115,-9.25453198496068,-16.9033706275554,-2.63631127360969,9.38189419934696,0.699592553881258,2.99230705590685,1.44586508864956,-2.03644185758475,950.252757936765,-0.108799640468703,-0.0593831239461376,-29.799439813376,-16.6550504141081,-29.8526847510562,-0.0822767936012014,-2.09477970124922,-2.48220041169657,-2.58687955180782,-32.3100850512848,96.5765431864094,81.5343972214145,-0.0313456914301602,0.155379997599205,0.438907955370118,0.150234967243711,2.96114089783641,9.17631894841915,0.906085739101125,11.4326435430647,1.57347672315936,23.5152653766447,-3.93645441464332,7.6413866815312,0.808859102163572,14.0930537490992,-23.4966837221756,194.222416991429,-1.18792974948883,12.8037748336792,-3.63324475288391,43.7150001525879,96.3550033569336,159.880004882812,0,0,0
205.345,-7.10393753051758,-0.358745723962784,0.329250780899825,0.0934791981476487,1.30931458102543,1.33186817169189,1.30415463500144,-2.78916664123535,3.22871160507202,0.298849827083796,-0.176085389736813,-1.9153870121127,-1.91208791732788,-1.94991191678962,-0.859208762180084,9.82691678919429,1.92434744685624,-1.09782828408694,-1.72028839299424,-20.8222870780334,-0.523597079273289,9.92411094774094,-0.850750367582937,1.69550688908392,-9.98936647748337,-16.7653816416827,-2.6317573561635,9.43478708663873,0.714577357838291,2.81964100704544,1.36762626294341,-1.96539565803706,952,-0.109919332706817,-0.0588089351037931,-30.0858600997925,-13.9910840988159,-27.5441201787894,-0.0771032442367046,-2.03753635692181,-2.5186812877655,-2.63415407452086,-30.8827575683594,100.807548522949,84.0875043411159,-0.0323935812395499,0.109115495457398,0.373626381158829,0.103131997711266,3.09513868467613,9.21126423605057,0.980986866698233,11.711799604158,0.994391264525273,20.9136091674366,-3.60833578388618,7.54284671169036,0.706207291848388,14.5972749483353,-28.0359014450109,195.921265106743,-1.18792974948883,12.8037748336792,-3.63324475288391,43.7150001525879,96.3550033569336,159.880004882812,0,0,0
205.35,-7.10393753051758,-0.358745723962784,0.362589566118123,0.0912609950681733,1.3016185238502,1.33186817169189,1.30132733963082,-2.78916664123535,3.22871160507202,0.687678193081989,-0.177936740503929,-1.90949997862452,-1.91208791732788,-1.94980825289445,-0.804334114187466,9.81123831833926,1.895603583622,-0.339712923812589,-1.2396109943522,-21.2997384538658,-0.541888628604161,9.94501557554765,-0.80371495501783,1.77938348213556,-10.3119687584512,-16.6395667521053,-2.62987986390381,9.45105876929024,0.718958214644667,2.56355928027883,1.20300232021155,-1.99283298701742,952,-0.111493163831644,-0.0581301569137565,-30.0858600997925,-13.9910840988159,-25.0280356772287,-0.0723336036251465,-1.98701201104473,-2.5186812877655,-2.64371448289275,-30.8827575683594,100.807548522949,86.9178792974858,-0.0327528201214794,0.0641095080151545,0.373626381158829,0.124154537587875,3.12126946943453,9.16684190196129,0.884302963092181,11.3762932319515,1.21698683839306,19.407056515317,-3.29476636678548,7.60817367358634,0.839474294116185,14.4327477850417,-30.729630491092,197.718159811734,-1.18792974948883,12.8037748336792,-3.63324475288391,43.7150001525879,96.3550033569336,159.880004882812,0,0,0
205.355,-7.10393753051758,-0.358745723962784,0.395929941093,0.0890426862139099,1.29392209968927,1.33186817169189,1.29874288520899,-2.78916664123535,3.22871160507202,1.07652510032123,-0.179788179552519,-1.90361266441375,-1.91208791732788,-1.94915460899549,-0.749456849502845,9.79555909985793,1.86685834973958,0.418438587115532,-0.758910674657344,-21.7772125969184,-0.560181050165702,9.96592120018941,-0.756677299573863,1.863264074834,-10.6345864226759,-16.5137458630576,-2.62800228211609,9.46733122785529,0.723339280351752,2.30746534228114,1.03837052740374,-2.02027162434403,952,-0.113067070004447,-0.057451346356251,-30.0858600997925,-13.9910840988159,-22.5118311964346,-0.0675637355737614,-1.93648525591936,-2.5186812877655,-2.65183697043261,-30.8827575683594,100.807548522949,89.7483892199972,-0.0331120761336784,0.0191013744669812,0.373626381158829,0.147706477991686,3.14740150023674,9.12241744959755,0.787614449124029,11.0407708611578,1.43959302670812,17.9004320233875,-2.98118199715904,7.67350375059184,0.972747651207418,14.2682127762871,-33.4234879873685,199.515140201465,-1.18792974948883,12.8037748336792,-3.63324475288391,43.7150001525879,96.3550033569336,159.880004882812,0,0,0
205.36,-7.10393753051758,-0.358745723962784,0.429268726311298,0.0868244831344345,1.28622604251404,1.33186817169189,1.29644686696321,-2.78916664123535,3.22871160507202,1.46535346631942,-0.181639530319635,-1.89772563092557,-1.91208791732788,-1.94798557815576,-0.694582201510227,9.7798806290029,1.83811448650534,1.17655394738988,-0.278233276015306,-22.2546639727507,-0.578472599496574,9.98682582799611,-0.709641887008755,1.94714066788563,-10.9571887036437,-16.3879309734802,-2.6261247898564,9.4836029105068,0.727720137158127,2.05138361551452,0.873746584671887,-2.04770895332439,952,-0.114640901129273,-0.0567725681662144,-30.0858600997925,-13.9910840988159,-19.9957466948739,-0.0627940949622033,-1.88596091004228,-2.5186812877655,-2.65834688775848,-30.8827575683594,100.807548522949,92.5787641763671,-0.0334713150156079,-0.0259046129752628,0.373626381158829,0.17344412401882,3.17353228499513,9.07799511550827,0.690930545517977,10.7052644889513,1.6621886005759,16.3938793712678,-2.66761258005834,7.73883071248782,1.10601465347522,14.1036856129936,-36.1172170334497,201.312034906456,-1.18792974948883,12.8037748336792,-3.63324475288391,43.7150001525879,96.3550033569336,159.880004882812,0,0,0
205.365,-7.07325064673379,0.312828282919104,0.518451443649614,0.0834627524809715,1.28014536613574,1.33104531213672,1.29365908497533,-2.75029601715178,3.5644986015392,1.90148299711349,-0.184893735504679,-1.8932730316408,-1.91784793421411,-1.9521054330632,-0.619751879608535,9.74004791040632,1.8237440111992,1.74792126763454,0.322825583146854,-22.8536897806777,-0.615272075594635,9.98315194960356,-0.653791921605546,2.12711149133115,-10.5884921161703,-15.9342408553878,-2.66103368530666,9.47794104430947,0.720393117627243,1.82120377857047,0.701203776940292,-2.0682760527375,949.940793840436,-0.116301523373296,-0.0559472665399298,-30.1247300097626,-12.5807786065367,-17.6692459538198,-0.0567502331117306,-1.8391815955784,-2.47753831000673,-2.62195982053767,-30.1462645023002,101.344808217176,95.1074111776703,-0.0359375729426992,-0.0701601098974508,0.348117732856263,0.17549714404207,3.25739220158575,8.94235967802277,0.574775834811675,10.358626756078,1.79669134074198,13.9087065173618,-2.42694387120913,7.90916838637267,1.19936002799802,13.9641776706249,-36.8637897478554,203.155113236887,-1.48742687214195,12.8365043497632,-3.28622261695554,46.0671752884664,95.3754760556017,162.363220196429,0,0,0
205.37,-6.99027815578098,2.12865841421359,0.702779109953998,0.0781529173036347,1.27681803597826,1.32882042975771,1.28983876943421,-2.64519598393147,4.47241364833049,2.41815611537681,-0.190537944529607,-1.89126524089542,-1.93342211086716,-1.96562120565311,-0.510927313758878,9.65906218698332,1.83386722662708,2.00100165333141,1.12893347832948,-23.6597976758603,-0.6836037797328,9.93759748017812,-0.582929413610414,2.47080090400591,-9.04188975913389,-14.9219193126003,-2.75862102210288,9.43490577433184,0.693117159641783,1.63518969146292,0.515189698317927,-2.07713382761989,944.373025355104,-0.11810982106975,-0.0548723996181545,-30.2298281121328,-8.76753512038582,-15.6660904267413,-0.0485359143206124,-1.79878973785399,-2.36629419105636,-2.51361164808079,-28.1549034800817,102.797473643637,97.1215964330785,-0.0419938124895599,-0.113131086679105,0.279146373450242,0.135542582613545,3.43961007928751,8.65131723447135,0.425458407250526,9.99306619896026,1.78106909471131,9.75631352240937,-2.31052689378856,8.25841931863436,1.22466806656771,13.8673197452347,-34.292368051207,205.076649498659,-2.29721982716498,12.9249997961011,-2.3479295261157,52.4270856513479,92.7269888152419,169.077442520031,0,0,0
205.375,-6.9073017082934,3.94457513318303,0.887115565904383,0.0728428289273479,1.27349054715737,1.32659544128541,1.28642075875157,-2.54009093902678,5.38037198895835,2.93485387114518,-0.196182422698069,-1.88925735440874,-1.94899703017324,-1.97877964972517,-0.402097558620877,9.57807260176434,1.84399092477946,2.25409410714071,1.93507981268502,-24.4659440102159,-0.751938742261321,9.89204083849245,-0.512063526543802,2.81450670547533,-7.49521365252149,-13.9095494973631,-2.85621301234132,9.39186845222174,0.665839901005044,1.44916673429257,0.329166749633161,-2.08599202488437,938.8049913713,-0.119918204994695,-0.0537974814414595,-30.3349312260953,-4.95410980010748,-13.6628393793955,-0.040321203830539,-1.75839595404796,-2.2550447674415,-2.40332924100293,-26.1634475000155,104.250208340301,99.1358777347055,-0.0480503408275869,-0.156104112527412,0.21017172515197,0.0966743399757482,3.62183664603021,8.36026091259065,0.276133859503046,9.6274882101246,1.76544610373543,5.60372252101974,-2.19410436503627,8.60768690489121,1.24997731194865,13.7704572011842,-31.7208237365767,206.998277388693,-3.10705139708263,13.0134994623354,-1.40959169286535,58.7872992859075,90.0783752820376,175.791985010641,0,0,0
205.38,-6.82432921734059,5.76040526447752,1.07144323220877,0.0675329937500111,1.27016321699988,1.32437055890641,1.28343163996491,-2.43499090580647,6.28828703574963,3.4515269894085,-0.201826631722997,-1.88724956366335,-1.96457120682629,-1.99164509319653,-0.29327299277122,9.49708687834135,1.85411414020734,2.50717449283758,2.74118770786765,-25.2720519053985,-0.820270446399487,9.84648636906701,-0.44120101854867,3.1581961181501,-5.94861129548504,-12.8972279545756,-2.95380034913754,9.34883318224411,0.638563943019584,1.26315264718503,0.143152671010796,-2.09484979976676,933.237222885968,-0.121726502691148,-0.0527226145196843,-30.4400293284655,-1.14086631395656,-11.6596838523171,-0.0321068850394209,-1.71800409632355,-2.14380064849112,-2.2910921592562,-24.172086477797,105.702873766763,101.150062990114,-0.0541065803744476,-0.199075089309066,0.141200365745949,0.0585471909369154,3.80405452373196,8.06921846903924,0.126816431941897,9.26192765300689,1.74982385770476,1.45132952606732,-2.0776873876157,8.95693783715291,1.27528535051834,13.673599275794,-29.1494020399282,208.919813650465,-3.91684435210566,13.1019949086733,-0.471298602025512,65.1472096487889,87.4298880416778,182.506207334243,0,0,0
205.385,-6.75244385037124,6.66094041262567,1.4639619721684,0.0633850662921985,1.25904038681503,1.32117499641355,1.27991949819893,-2.34787560086493,6.81616878509521,3.9667021655684,-0.206828603622239,-1.88392023984074,-1.96031260612042,-1.98445509194417,-0.240817438020617,9.44026430578145,1.83620163635469,2.54881757979907,3.5771352414402,-25.8248763697899,-0.755070851200168,9.79403814875055,-0.351321528907268,3.45818615451175,-3.53627687934043,-12.6104618509452,-3.01053977012634,9.32381153106689,0.622705101966858,1.15499997138977,0.0350000001490116,-2.09999990463257,930,-0.122777886688709,-0.0520976632833481,-30.498771999932,1.07623720169067,-9.70840494747181,-0.0225241032877675,-1.67919473120542,-2.05534628676571,-2.19969220698348,-22.5934085722607,107.556469437334,102.902410583241,-0.0587831177363507,-0.236577800359154,0.0773243132724009,0.0259248446078633,3.90675476859384,7.90432697520822,0.0735340578638878,9.31514446495058,2.33770306113696,-2.0540551682509,-1.96673024791758,9.23572206614424,1.30081743802062,12.7986309251075,-26.0971441071577,210.348205315901,-4.45659100133322,13.1889419980585,-0.011768870743759,66.7172109474713,84.3831302403663,185.819370819916,0,0,0
205.39,-6.69596538488236,6.29013574249707,2.14558895251287,0.060851364686034,1.23709178957204,1.31663163723932,1.27551772339164,-2.28574889453462,6.81616878509521,4.47973819339214,-0.210938013812245,-1.87875584101108,-1.92850909190084,-1.94956887164317,-0.266657794864218,9.41700798462221,1.77935285129874,2.29679434638607,4.45443130711832,-26.025856923018,-0.504419389817146,9.73202129232588,-0.235039923111027,3.69744871787851,0.0781829112533901,-13.331439708557,-3.01053977012634,9.32381153106689,0.622705101966858,1.15499997138977,0.0350000001490116,-2.09999990463257,930,-0.122777886688709,-0.0520976632833481,-30.4931257305534,1.07623720169067,-7.82939884520006,-0.0110417787526474,-1.64258768317504,-1.9985542970879,-2.13804790319166,-21.5880788749045,109.966698992264,104.29089680676,-0.0615428780987609,-0.266481460631701,0.0205323197440755,0.000499846119215844,3.89900266154075,7.91466311794567,0.153639164079079,9.94998779975039,3.76370793880282,-4.66042202519277,-1.86336882054315,9.41660456404951,1.32665779486422,10.8430582405232,-22.3774087886825,211.091514346094,-4.62121356430798,13.2737286974888,-0.217237564433303,61.634412243753,80.783568453193,184.408485601368,0,0,0
205.395,-6.63948422622362,5.91931339058553,2.82724843617051,0.0583175422605664,1.21514214571242,1.31208806141548,1.27157524700394,-2.22361922569864,6.81616878509521,4.99279868528664,-0.215047619959058,-1.87359119591759,-1.89670406113393,-1.91460090937295,-0.292499383902604,9.39375055448766,1.72250135541426,2.04475909527085,5.33176920657002,-26.2268470599833,-0.253755976144706,9.67000147863373,-0.118752772438251,3.93672269045624,3.69281505699434,-14.0524519459246,-3.01053977012634,9.32381153106689,0.622705101966858,1.15499997138977,0.0350000001490116,-2.09999990463257,930,-0.122777886688709,-0.0520976632833481,-30.4874791919329,1.07623720169067,-5.95030314271361,0.000441093315949208,-1.60597888954131,-1.94175959928984,-2.0745785084334,-20.5827012385041,112.377043478744,105.679449240103,-0.064302770060063,-0.296386546857243,-0.0362623819046795,-0.0250719311632105,3.89125018482922,7.92499975356103,0.233748090098105,10.58486140699,5.1897808153661,-7.26691316647286,-1.76000246438958,9.59749568731827,1.35249938390261,8.88739230465451,-18.6574960950074,211.834858820902,-4.7858439772929,13.3585194399643,-0.422716055876588,56.5513711672959,77.1838350212822,182.997533104901,0,0,0
205.4,-6.58300306756487,5.54849103867399,3.50890791982814,0.0557837198350987,1.19319250185281,1.30754448559163,1.26808374614883,-2.16148955686266,6.81616878509521,5.50585917718114,-0.21915722610587,-1.86842655082409,-1.86489903036702,-1.87962151324545,-0.318340972940991,9.37049312435311,1.66564985952978,1.79272384415563,6.20910710602171,-26.4278371969486,-0.00309256247226514,9.60798166494158,-0.00246562176547599,4.17599666303397,7.3074472027353,-14.7734641832922,-3.01053977012634,9.32381153106689,0.622705101966858,1.15499997138977,0.0350000001490116,-2.09999990463257,930,-0.122777886688709,-0.0520976632833481,-30.4818326533125,1.07623720169067,-4.07120744022717,0.0119239653845458,-1.56937009590758,-1.88496490149179,-2.00940914764162,-19.5773236021036,114.787387965224,107.068001673446,-0.0670626620213651,-0.326291633082785,-0.0930570835534345,-0.0510020410771759,3.8834977081177,7.9353363891764,0.31385701611713,11.2197350142296,6.61585369192938,-9.87340430775296,-1.656636108236,9.77838681058703,1.37834097294099,6.93172636878584,-14.9375834013322,212.57820329571,-4.95047439027781,13.4433101824397,-0.628194547319873,51.4683300908388,73.5841015893715,181.586580608435,0,0,0
205.405,-6.50826542014965,6.56688072051893,4.31901791021522,0.0527252666219069,1.16968132130886,1.29624947964361,1.25827267559819,-2.08748726530083,6.7083784023124,5.89824835354808,-0.222262370521062,-1.86621538317431,-1.84790801167264,-1.8595093211007,-0.319483735380102,9.42309758771931,1.66553949979113,1.71054259233473,6.98886539264831,-26.4202183377683,0.144553440893909,9.64159526420216,0.0229581766917397,4.32289974550573,8.03131333348805,-14.7482232781027,-2.94865253901322,9.26804104284286,0.636018049305674,1.31274393352438,0.203260229746572,-1.96854661479312,930.751161758563,-0.124052401765992,-0.0525878787824788,-30.4661498432112,1.39960849331186,-2.46908596381948,0.021576186722,-1.535685664482,-1.84217125712369,-1.95670074618816,-18.4407317741373,115.551499151945,108.437405241181,-0.0699845324451522,-0.348541808400718,-0.122643491854396,-0.0502520533306789,3.84093958855472,7.89643261800334,0.325962823726001,11.4968992375486,7.80083761358126,-11.3702493437812,-1.51385129490394,9.99220446950712,1.48164173454468,4.75478788277276,-12.0685287679074,211.81929521592,-5.02475118637085,13.4815654754639,-0.720900893211365,49.1749992370605,71.9599990844727,180.949996948242,0,0,0
205.41,-6.4185119039134,8.72748455242779,5.23480248611489,0.0492352281305277,1.14488429739993,1.27940287695904,1.24331155778904,-2.00371759529401,6.51195995520828,6.19146300577345,-0.224541977377806,-1.86643219296869,-1.84309469661991,-1.85168680646703,-0.300320723684197,9.53807565789473,1.7120782424812,1.7679978302237,7.6884674069433,-26.2410931843498,0.207517622180448,9.75383576127819,-0.0263181390977359,4.39387386289798,6.37863031421145,-14.1094562215725,-2.83588001221642,9.16641460448728,0.660277249200508,1.60018909590921,0.509868409008022,-1.72900900122871,932.119948308271,-0.126374856384184,-0.0534811622517436,-30.4422144582935,1.98886409569952,-1.09453664882294,0.0297241970075181,-1.50440253905885,-1.81088470928091,-1.91415573879763,-17.1961648595064,114.962243810632,109.791184761404,-0.0730398255887637,-0.364500514708964,-0.129863466473149,-0.0277911688161026,3.76976268796992,7.81704299812029,0.28216165413535,11.4800006381695,8.78771581732107,-11.9549408822983,-1.33864661654137,10.2331109022556,1.64863369360901,2.39574340944954,-9.89874860763017,209.825260489186,-5.02475118637085,13.4815654754639,-0.720900893211365,49.1749992370605,71.9599990844727,180.949996948242,0,0,0
205.415,-6.32876266736037,10.8879853610755,6.15054339500255,0.0457453560533432,1.12008845587817,1.26255707756469,1.2287107589986,-1.9199519196449,6.31555087385122,6.48466367675468,-0.226821475536912,-1.866648992425,-1.83828161107866,-1.84402800912177,-0.281158625730983,9.65304824561402,1.75861476608187,1.82545032849615,8.38803606237819,-26.0619765720887,0.270478801169577,9.86607090643275,-0.0755921052631513,4.46484459605803,4.7260260991986,-13.4707196231319,-2.72311286270967,9.06479301194699,0.684535292353024,1.88762055215431,0.816461968386807,-1.48948280944636,933.488669590643,-0.128697200261645,-0.0543744031269082,-30.4182802146778,2.57809160083358,0.279947124054828,0.0378718187745217,-1.47312090529722,-1.77959965326284,-1.87050009225834,-15.9516572890923,114.373016566561,111.144899729867,-0.0760949730479797,-0.380458460064211,-0.137083096824565,-0.00607536148058264,3.69858918128655,7.73765716374267,0.23836257309942,11.46310284456,9.77454696411811,-12.5396045411883,-1.16345029239768,10.4740058479532,1.81561769005848,0.0368114215580073,-7.72907190816546,207.83132084326,-5.02475118637085,13.4815654754639,-0.720900893211365,49.1749992370605,71.9599990844727,180.949996948242,0,0,0
205.42,-6.23900915112412,13.0485891929844,7.06632797090221,0.042255317561964,1.09529143196924,1.24571047488012,1.21441452620472,-1.83618224963808,6.1191324267471,6.77787832898006,-0.229101082393656,-1.86686580221938,-1.83346829602593,-1.83657558465606,-0.261995614035078,9.76802631578945,1.80515350877193,1.88290556638512,9.08763807667318,-25.8828514186701,0.333442982456116,9.97831140350878,-0.124868421052627,4.53581871345027,3.07334307992201,-12.8319525666017,-2.61034033591287,8.9631665735914,0.708794492247858,2.17506571453914,1.12307014764826,-1.24994519588194,934.857456140351,-0.131019654879837,-0.0552676865961729,-30.3943448297601,3.16734720322124,1.65449643905137,0.0460198290600398,-1.44183777987407,-1.74831310542006,-1.8259957084768,-14.7070903744614,113.783761225249,112.498679250091,-0.0791502661915911,-0.396417166372457,-0.144303071443318,0.014834185102419,3.62741228070176,7.65826754385963,0.19456140350877,11.4462042451809,10.7614251678579,-13.1242960797054,-0.988245614035115,10.7149122807018,1.98260964912281,-2.32223305176521,-5.55929174788822,205.837286116526,-5.02475118637085,13.4815654754639,-0.720900893211365,49.1749992370605,71.9599990844727,180.949996948242,0,0,0
205.425,-6.15094388256943,12.0676800588105,7.82865850460704,0.040562710812944,1.09822467241806,1.22918040996025,1.20067374607131,-1.7644830873031,6.4432238863881,6.83493443528649,-0.225525945360782,-1.89012414105774,-1.83296704292297,-1.83367572488641,-0.238390568087415,9.79200523995141,1.84361467186402,1.66656963052901,9.62884639810535,-26.0598384782209,0.109499392932436,10.0164115278932,-0.278864975397786,4.80406447301881,2.04160010224294,-12.688361422534,-2.5985963344574,8.95258331298828,0.711320817470551,2.20499992370605,1.15499997138977,-1.22500002384186,935,-0.131261512637138,-0.0553607121109962,-30.3183820482281,4.77917002167776,2.48775553571229,0.0536212804949669,-1.40427687151806,-1.7155036021318,-1.77941678631104,-13.7273135563384,109.58784137828,112.438927616234,-0.0834090247277357,-0.417075866070156,-0.157719819075468,0.0286992353200083,3.74005239951435,7.81327126333949,0.0795517924468043,12.5827190472471,11.8009026727539,-14.6347067496917,-1.02522410377662,10.6583643683302,2.00960419196115,-5.30094598400561,-5.97361279740983,202.013236360309,-6.00292093558649,13.0169204559438,-1.19014635705226,51.3347425637912,76.2122548554483,174.151428977551,0,0,0
205.43,-6.06307018625447,10.7215159490121,8.57319049157105,0.0390789664857351,1.10438172883525,1.21268626287788,1.18712910687805,-1.69418331228877,6.82784218521528,6.86454000621311,-0.221270000546359,-1.9160623094469,-1.83296704292297,-1.83154181417193,-0.214267876541636,9.80540673525463,1.88113885871301,1.4183937915806,10.15167016549,-26.2782332164955,-0.147809316889273,10.0458948175602,-0.445043517157644,5.09525745738495,1.0819868583091,-12.6023271316985,-2.5985963344574,8.95258331298828,0.711320817470551,2.20499992370605,1.15499997138977,-1.22500002384186,935,-0.131261512637138,-0.0553607121109962,-30.2363670073153,6.50995268591662,3.25813367331916,0.0611595987485316,-1.3659841678337,-1.68251530796707,-1.73243056325205,-12.778266593645,104.972421281127,112.214848958789,-0.0878079135228801,-0.438282042441207,-0.171857659431782,0.0409595683122201,3.87406735254649,7.99553159946321,-0.0437419643427614,13.853379342663,12.8465502075232,-16.2528132196354,-1.08687098217139,10.5672342002684,2.02032538820373,-8.35185429747809,-6.68835921358126,197.976242713414,-7.09485557020354,12.4982354424039,-1.71396686419396,53.7456723050055,80.9590642464581,166.562161532971,0,0,0
205.435,-5.97520067998797,9.37541602785134,9.31768697729592,0.0375952929073496,1.11053849166783,1.19619290227974,1.1736549688573,-1.62388688935222,7.21244214443256,6.89414416546841,-0.217014258666555,-1.94199924103612,-1.83296704292297,-1.82968690119536,-0.190146335229098,9.81880759153938,1.9186612563103,1.17022978630752,10.6744690032653,-26.4966175411358,-0.405105757556402,10.0753767013867,-0.611214135088503,5.38643655690537,0.12241937125318,-12.5162969432039,-2.5985963344574,8.95258331298828,0.711320817470551,2.20499992370605,1.15499997138977,-1.22500002384186,935,-0.131261512637138,-0.0553607121109962,-30.154355877095,8.2406528218957,4.02847507727461,0.068697557555298,-1.32769329004595,-1.64952858677077,-1.68556353352794,-11.8292648840015,100.357221259318,111.990780986003,-0.092206592567462,-0.459487207646114,-0.185994825658764,0.0522928409528682,4.00807591539396,8.17778324493576,-0.167029842162425,15.1239790496612,13.8921478830738,-17.8708425340159,-1.14851492108122,10.4761083775321,2.03104607323153,-11.4026171356352,-7.40307154876776,193.939441560972,-8.18673813851148,11.9795751611267,-2.23776239419914,56.1564870867625,85.7056472971383,158.973255964581,0,0,0
205.44,-5.90181198120118,8.25115203857422,9.95297922011325,0.0364040498764805,1.11949100250829,1.18241763114929,1.16286717749185,-1.56517524719239,7.53366041183472,6.92828774160944,-0.213729756829245,-1.97226549105058,-1.83296704292297,-1.82811548665388,-0.183248011205977,9.82862951608213,1.95593876364404,0.965218903568517,11.195144898667,-26.8047810344372,-0.609036128657139,10.0968022041917,-0.75685241958929,5.66685264962083,-0.38235615605207,-12.6215357819784,-2.58360700424628,8.96232090730554,0.713946688140387,2.23697788396774,1.18378013344696,-1.2409890039727,936.142069931548,-0.131417080477236,-0.0554311594987578,-30.0858600997925,9.68613529205322,4.81088614101249,0.0759777940137427,-1.28524725851729,-1.62197804450989,-1.64461400888813,-11.0366577148438,96.5026016235352,111.437928615494,-0.0967852131076662,-0.483550248945596,-0.197802200913429,0.06496135700206,4.15563258186432,8.34781629093214,-0.259036128657116,16.6081740487216,14.4490364288401,-19.4923711097342,-1.18035639717735,10.3972590321643,2.04685241958931,-14.075258002406,-8.60120817137318,189.784525859298,-9.18062854079712,11.5851211660265,-2.71867318696797,58.6096987330227,91.0914186566937,151.784381044879,0,0,0
205.445,-5.90181198120118,8.25115203857422,10.0348009373973,0.0366947600659695,1.14260566950933,1.18241763114929,1.16571192752574,-1.56517524719239,7.53366041183472,6.98542054053822,-0.215367023532905,-2.02445761493487,-1.83296704292297,-1.82682258072035,-0.263613658588159,9.82031582842191,1.99196474350502,0.978903986136787,11.7049142243352,-27.5677243876185,-0.542526627375322,10.0774035996511,-0.798420857890417,5.89265651199737,1.41723220167603,-13.6958147635879,-2.4926780936714,9.02139151489224,0.72987585615229,2.43096394258728,1.3583675729903,-1.33798203328247,943.070142981737,-0.132360792705955,-0.0558585104298386,-30.0858600997925,9.68613529205322,5.65422219174064,0.0819501660905522,-1.22176128723147,-1.62197804450989,-1.63207090816191,-11.0366577148438,96.5026016235352,109.219439602301,-0.102274188485962,-0.522085849329601,-0.197802200913429,0.0883394542696341,4.3717884610302,8.4558942305151,-0.192526627375299,19.1741270302731,12.5297035986396,-21.1311597472851,-1.0611935407141,10.3806316568438,2.08842085789044,-14.8313588143032,-12.2482826758183,185.032380937465,-9.67775102920284,11.820076357037,-2.98216798798455,61.2770058002054,99.7140998972405,146.624353590238,0,0,0
205.45,-5.90181198120118,8.25115203857422,10.1166265563416,0.0369854841179443,1.16572143873091,1.18241763114929,1.16829551047546,-1.56517524719239,7.53366041183472,7.0425560638387,-0.217004368309462,-2.07665222759529,-1.83296704292297,-1.82579416205677,-0.343983138198054,9.81200174432434,2.02799244126119,0.992589721276826,12.2147078583019,-28.3307041216759,-0.476013954594708,10.0580040700901,-0.839991278378293,6.11847114180809,3.21690637259175,-14.7701449720814,-2.40174484716068,9.08046493925485,0.745805783744947,2.62495925141228,1.53296333771791,-1.43497968769497,949.998546396385,-0.133304549935495,-0.0562858817391051,-30.0858600997925,9.68613529205322,6.49759845686251,0.0879228229593161,-1.15827228862357,-1.62197804450989,-1.62076105317297,-11.0366577148438,96.5026016235352,107.000844800685,-0.10776342560549,-0.560623287279787,-0.197802200913429,0.110468400225141,4.58795464756718,8.56397732378361,-0.126013954594685,21.7402023690313,10.6102792452485,-22.7700265303053,-0.942025001982171,10.3640034886487,2.12999127837831,-15.5874956807906,-15.8955310906399,180.280009410085,-10.1748972228438,12.0550427518618,-3.24567535372388,63.944440057654,108.337192309464,141.464080080212,0,0,0
205.455,-5.90181198120118,8.25115203857422,10.1984482736257,0.0372761943074333,1.18883610573195,1.18241763114929,1.17049487306766,-1.56517524719239,7.53366041183472,7.09968886276748,-0.218641635013122,-2.12884435147958,-1.83296704292297,-1.82500770297771,-0.424348785580236,9.80368805666412,2.06401842112217,1.0062748038451,12.7244771839701,-29.0936474748572,-0.409504453312891,10.0386054655496,-0.881559716679421,6.34427500418463,5.01649473031985,-15.8444239536909,-2.3108159365858,9.13953554684155,0.761734951756849,2.81894531003182,1.70755077726125,-1.53197271700474,956.926619446574,-0.134248262164214,-0.056713232670186,-30.0858600997925,9.68613529205322,7.34093450759067,0.0938951950361255,-1.09478631733775,-1.62197804450989,-1.61105524924812,-11.0366577148438,96.5026016235352,104.782355787492,-0.113252400983786,-0.599158887663792,-0.197802200913429,0.131140442332093,4.80411052673307,8.67205526336657,-0.0595044533128686,24.3061553505828,8.69094641504803,-24.4088151678561,-0.822862145518919,10.3473761133282,2.17155971667944,-16.3435964926877,-19.5426055950851,175.527864488252,-10.6720197112495,12.2899979428723,-3.50917015474046,66.6117471248368,116.959873550011,136.304052625571,0,0,0
205.46,-5.77644720365983,9.20083533459119,10.2055361969166,0.0376522005989013,1.19631729927083,1.17078144588726,1.1605498161865,-1.49124269112389,7.63918080143473,7.19314649286953,-0.220003601779941,-2.17706879936366,-1.85236068502636,-1.84382632196546,-0.451175892316979,9.81911889997985,2.09617753075215,1.6115134846482,13.6042548900988,-29.6027708070375,-0.296170977011491,10.0447068461383,-0.863232884654141,6.65687666644262,5.81118349478068,-16.4735030957556,-2.26272961378915,9.16151327595496,0.75929106770143,2.48806088761948,1.6151358979313,-1.66765316012202,961.176547691067,-0.134391559322274,-0.0569331619837273,-29.9154935310165,10.6358185880702,8.18741477748121,0.0992947942984031,-1.02410340108726,-1.57672621293531,-1.55805529242748,-10.1816090948232,91.6486646837226,101.915726671798,-0.117686762300394,-0.63897068393852,-0.201680929334107,0.146209050096827,4.85587946158498,8.60528660012102,-0.0505895845936472,26.2669384321809,7.53629094998742,-25.511644092671,-0.489099238757801,10.3708843768905,2.2385325922565,-16.8769192875405,-24.9370666626834,167.70223969264,-10.8925495147705,12.3942270278931,-3.62605977058411,67.7949981689453,120.785003662109,134.014999389648,0,0,0
205.465,-5.55114728508758,10.9075632804968,10.1530427016247,0.0380961761791189,1.19133421268185,1.1498694190529,1.1407001941403,-1.35837443906181,7.82881728187879,7.31555574237125,-0.221145971556511,-2.22212592234603,-1.88721406308363,-1.87827802539651,-0.435317604355695,9.85347852389596,2.12525105868118,2.68831081535257,14.7789428872308,-29.9094948951775,-0.145517241379309,10.0711373260738,-0.797156684815464,7.03865026551054,5.80465745035216,-16.7475969617531,-2.24880326017782,9.1539171747345,0.742199650909853,1.73875678908948,1.30986386223843,-1.83416515094759,963.290986085904,-0.133896720847504,-0.0569877075251131,-29.6093184248549,12.3425465339758,9.03632920544851,0.104237293115668,-0.94768884578543,-1.49540166413503,-1.47126506411376,-8.64495431631173,82.9253883477203,98.5326196450183,-0.121279962508323,-0.679796503572157,-0.20865160494556,0.156135062269374,4.77658802177858,8.39912885662434,-0.0875922565033178,27.7450874952387,6.99136624020672,-26.1870896910219,0.0157229280096844,10.426388384755,2.32575317604355,-17.2325887088944,-31.7241528683352,157.426982739949,-10.8925495147705,12.3942270278931,-3.62605977058411,67.7949981689453,120.785003662109,134.014999389648,0,0,0
205.47,-5.32583662311164,12.6143726115507,10.1005467031859,0.0385401729302668,1.1863508884749,1.12895639503067,1.1201091291973,-1.22549985119065,8.01846280511913,7.43797082894556,-0.222288395806868,-2.26718519387272,-1.92206910312068,-1.9128594111852,-0.419458560193565,9.88783978624724,2.15432597297842,3.76515949302803,15.9536868992404,-30.2162336094245,0.00514367816091946,10.097569066344,-0.731077334139925,7.42044206941366,5.79813109472988,-17.0217038978886,-2.23487624248975,9.14632071129471,0.725107419115806,0.989416960069813,1.00457726967962,-2.0006850818805,965.405525307522,-0.133401858776411,-0.0570422556674974,-29.3031287187644,14.0493558650297,9.88528411381389,0.109180027615486,-0.87127064666331,-1.41407323738192,-1.38703688719929,-7.10822626257357,74.2016960431742,95.1493512951246,-0.124873334057638,-0.720624269980846,-0.21562261295297,0.163633916755619,4.69729280096795,8.19296128251664,-0.124596692881631,29.2233070436841,6.44641554574672,-26.8625674979274,0.520569167170797,10.4818950393224,2.41297791893526,-17.5882750903084,-38.5115627155017,147.151235812676,-10.8925495147705,12.3942270278931,-3.62605977058411,67.7949981689453,120.785003662109,134.014999389648,0,0,0
205.475,-5.10053670453939,14.3211005574562,10.048053207894,0.0389841485104844,1.18136780188592,1.10804436819631,1.09868149392538,-1.09263159912857,8.20809928556319,7.56038007844728,-0.223430765583438,-2.31224231685509,-1.95692248117794,-1.94751481333629,-0.403600272232282,9.92219941016335,2.18339950090744,4.84195682373239,17.1283748963725,-30.5229576975645,0.155797413793102,10.1239995462795,-0.665001134301248,7.80221566848157,5.79160505030136,-17.2957977638861,-2.22094988887842,9.13872461007425,0.708016002324229,0.240112861539804,0.699305233986754,-2.16719707270608,967.519963702359,-0.132907020301641,-0.0570968012088832,-28.9969536126028,15.7560838109352,10.7341985417812,0.114122526432751,-0.794856091361479,-1.33274868858163,-1.30560802191373,-5.57157148406208,65.4784197071719,91.7662442683451,-0.128466534265567,-0.761450089614483,-0.222593288564422,0.168293582375414,4.61800136116154,7.98680353901996,-0.161599364791302,30.7014561067419,5.90149083596603,-27.5380130962784,1.02539133393828,10.5373990471869,2.50019850272231,-17.9439445116623,-45.2986489211534,136.875978859985,-10.8925495147705,12.3942270278931,-3.62605977058411,67.7949981689453,120.785003662109,134.014999389648,0,0,0
205.48,-4.92708756447436,14.8572687152315,10.504579052635,0.0390354573996422,1.14083877667776,1.12515952506876,1.11436711519592,-1.00811099626453,7.95376490790743,7.62742262186488,-0.227946719623776,-2.33075500010711,-2.01402639566099,-2.00443725966031,-0.288089947969252,9.85746570701712,2.12575534050087,5.34483116724061,18.8483061169057,-30.8612381221588,0.235592984160672,10.0657553405009,-0.55881403167864,8.25219998601657,6.29671216968645,-17.6087605189532,-2.28380219214285,9.16132090420669,0.693712512169236,0.0917602875134995,0.608239703383958,-2.3138013829444,967.378277488718,-0.131809821336813,-0.0580672665860605,-28.8051419754787,15.4000907743504,11.470383558317,0.116769508327993,-0.700990120215093,-1.24140984839038,-1.21712344833317,-4.83768908507731,58.4424140266653,86.6845432734088,-0.129031422621848,-0.801857775100926,-0.236929110325744,0.16231808558705,4.57098628280686,7.98973780090255,0.043458062206758,32.556803175726,5.6984633833344,-27.1105719750577,1.49645423980158,10.2681524615522,2.48891387443589,-16.7582195757839,-46.3533856907673,127.003225346718,-11.4425007430713,11.887457825516,-3.53870287287225,69.7534250281564,128.466385794956,131.490805930599,0,0,0
